.thisRepN,.thisTrialN,.thisN,.thisIndex,.thisTrial,Block Number,Key pressed,Category,Correct?,Int Match?,Int Response,Int Correct?,Line Accuracy,Interference Accuracy,Matching Interferences,New instruction shown?,Buttons switched?,Fast?,gender,age,
0,0,0,0,0,1,['d'],['k'],N,,,,,,,,,,female,25,
0,1,1,8,8,1,['d'],['k'],N,,,,,,,,,,female,25,
0,2,2,4,4,1,['d'],['d'],Y,Y,None,N,,,,,,,female,25,
0,3,3,8,8,1,['d'],['k'],N,N,None,Y,,,,,,,female,25,
0,4,4,6,6,1,['k'],['d'],N,N,None,Y,,,,,,,female,25,
0,5,5,10,10,1,['k'],['d'],N,N,None,Y,,,,,,,female,25,
0,6,6,9,9,1,['d'],['k'],N,Y,['space'],Y,,,,,,,female,25,
0,7,7,4,4,1,['k'],['d'],N,N,None,Y,,,,,,,female,25,
0,8,8,3,3,1,['d'],['d'],Y,Y,['space'],Y,,,,,,,female,25,
0,9,9,1,1,1,['k'],['d'],N,Y,['space'],Y,,,,,,,female,25,
0,10,10,0,0,1,['d'],['d'],Y,Y,None,N,,,,,,,female,25,
1,0,11,6,6,1,['k'],['k'],Y,N,None,Y,,,,,,,female,25,
1,1,12,6,6,1,['d'],['d'],Y,N,None,Y,,,,,,,female,25,
1,2,13,3,3,1,['d'],['k'],N,Y,None,N,,,,,,,female,25,
1,3,14,9,9,1,['d'],['d'],Y,N,None,Y,,,,,,,female,25,
1,4,15,7,7,1,['k'],['d'],N,N,None,Y,,,,,,,female,25,
1,5,16,6,6,1,['k'],['k'],Y,Y,None,N,,,,,,,female,25,
1,6,17,5,5,1,['k'],['d'],N,Y,None,N,,,,,,,female,25,
1,7,18,2,2,1,['d'],['k'],N,N,None,Y,,,,,,,female,25,
1,8,19,8,8,1,['d'],['d'],Y,Y,['space'],Y,,,,,,,female,25,
1,9,20,5,5,1,['k'],['k'],Y,Y,None,N,,,,,,,female,25,
1,10,21,5,5,1,['k'],['d'],N,N,None,Y,,,,,,,female,25,
2,0,22,3,3,1,['d'],['d'],Y,Y,['space'],Y,,,,,,,female,25,
2,1,23,7,7,1,['k'],['k'],Y,Y,['space'],Y,,,,,,,female,25,
2,2,24,8,8,1,['d'],['d'],Y,Y,['space'],Y,,,,,,,female,25,
2,3,25,3,3,1,['d'],['d'],Y,Y,['space'],Y,,,,,,,female,25,
2,4,26,0,0,1,['k'],['k'],Y,N,None,Y,,,,,,,female,25,
2,5,27,9,9,1,['d'],['k'],N,Y,['space'],Y,,,,,,,female,25,
2,6,28,1,1,1,['k'],['k'],Y,N,None,Y,,,,,,,female,25,
2,7,29,6,6,1,['d'],['k'],N,N,None,Y,,,,,,,female,25,
2,8,30,5,5,1,['k'],['d'],N,N,None,Y,,,,,,,female,25,
2,9,31,0,0,1,['k'],['k'],Y,N,None,Y,,,,,,,female,25,
2,10,32,3,3,1,['k'],['d'],N,Y,None,N,,,,,,,female,25,
3,0,33,3,3,1,['k'],['k'],Y,Y,None,N,,,,,,,female,25,
3,1,34,5,5,1,['k'],['k'],Y,N,None,Y,,,,,,,female,25,
3,2,35,2,2,1,['k'],['d'],N,N,None,Y,,,,,,,female,25,
3,3,36,8,8,1,['k'],['k'],Y,Y,['space'],Y,,,,,,,female,25,
3,4,37,1,1,1,['k'],['k'],Y,N,None,Y,,,,,,,female,25,
3,5,38,10,10,1,['d'],['d'],Y,Y,['space'],Y,,,,,,,female,25,
3,6,39,6,6,1,['k'],['k'],Y,Y,None,N,,,,,,,female,25,
3,7,40,3,3,1,['d'],['k'],N,N,None,Y,,,,,,,female,25,
3,8,41,9,9,1,['k'],['k'],Y,Y,None,N,,,,,,,female,25,
3,9,42,10,10,1,['d'],['d'],Y,Y,['space'],Y,,,,,,,female,25,
3,10,43,8,8,1,['k'],['k'],Y,Y,['space'],Y,,,,,,,female,25,
4,0,44,6,6,1,['d'],['k'],N,Y,['space'],Y,,,,,,,female,25,
4,1,45,1,1,1,['k'],['k'],Y,Y,['space'],Y,,,,,,,female,25,
4,2,46,5,5,1,['k'],['k'],Y,N,None,Y,,,,,,,female,25,
4,3,47,3,3,1,['k'],['d'],N,N,None,Y,,,,,,,female,25,
4,4,48,4,4,1,['d'],['d'],Y,N,None,Y,,,,,,,female,25,
4,5,49,7,7,1,['k'],['k'],Y,N,None,Y,29,38,25,,,,female,25,
4,6,50,7,7,2,['d'],['k'],N,,,,,,,,,,female,25,
4,7,51,4,4,2,['k'],['d'],N,,,,,,,,,,female,25,
4,8,52,4,4,2,['k'],['d'],N,Y,None,N,,,,,,,female,25,
4,9,53,4,4,2,['k'],['k'],Y,Y,['space'],Y,,,,,,,female,25,
4,10,54,6,6,2,['k'],['k'],Y,N,None,Y,,,,,,,female,25,
5,0,55,4,4,2,['d'],['k'],N,Y,['space'],Y,,,,,,,female,25,
5,1,56,2,2,2,['k'],['d'],N,N,None,Y,,,,,,,female,25,
5,2,57,7,7,2,['d'],['d'],Y,N,None,Y,,,,,,,female,25,
5,3,58,6,6,2,['d'],['d'],Y,N,None,Y,,,,,,,female,25,
5,4,59,9,9,2,['k'],['k'],Y,Y,['space'],Y,,,,,,,female,25,
5,5,60,8,8,2,['k'],['d'],N,Y,['space'],Y,,,,,,,female,25,
5,6,61,2,2,2,['k'],['k'],Y,Y,['space'],Y,,,,,,,female,25,
5,7,62,1,1,2,['d'],['d'],Y,Y,['space'],Y,,,,,,,female,25,
5,8,63,5,5,2,['k'],['d'],N,N,None,Y,,,,,,,female,25,
5,9,64,10,10,2,['k'],['k'],Y,N,None,Y,,,,,,,female,25,
5,10,65,10,10,2,['d'],['d'],Y,N,None,Y,,,,,,,female,25,
6,0,66,5,5,2,['k'],['k'],Y,N,['space'],N,,,,,,,female,25,
6,1,67,10,10,2,['d'],['k'],N,Y,['space'],Y,,,,,,,female,25,
6,2,68,2,2,2,['d'],['d'],Y,N,None,Y,,,,,,,female,25,
6,3,69,4,4,2,['d'],['k'],N,N,None,Y,,,,,,,female,25,
6,4,70,9,9,2,['k'],['k'],Y,Y,['k'],N,,,,,,,female,25,
6,5,71,3,3,2,['k'],['d'],N,N,['space'],N,,,,,,,female,25,
6,6,72,8,8,2,['d'],['k'],N,Y,None,N,,,,,,,female,25,
6,7,73,6,6,2,['d'],['k'],N,Y,None,N,,,,,,,female,25,
6,8,74,8,8,2,['k'],['k'],Y,N,None,Y,,,,,,,female,25,
6,9,75,4,4,2,['d'],['k'],N,N,None,Y,,,,,,,female,25,
6,10,76,4,4,2,['k'],['d'],N,N,None,Y,,,,,,,female,25,
7,0,77,2,2,2,['k'],['k'],Y,N,['d'],N,,,,,,,female,25,
7,1,78,10,10,2,['k'],['k'],Y,Y,None,N,,,,,,,female,25,
7,2,79,0,0,2,['d'],['k'],N,N,None,Y,,,,,,,female,25,
7,3,80,2,2,2,['k'],['k'],Y,N,None,Y,,,,,,,female,25,
7,4,81,7,7,2,['d'],['k'],N,Y,None,N,,,,,,,female,25,
7,5,82,9,9,2,['d'],['k'],N,Y,['k'],N,,,,,,,female,25,
7,6,83,5,5,2,['d'],['k'],N,N,None,Y,,,,,,,female,25,
7,7,84,1,1,2,['d'],['k'],N,Y,['space'],Y,,,,,,,female,25,
7,8,85,6,6,2,['d'],['k'],N,Y,['space'],Y,,,,,,,female,25,
7,9,86,6,6,2,['k'],['d'],N,N,None,Y,,,,,,,female,25,
7,10,87,2,2,2,['d'],['d'],Y,Y,None,N,,,,,,,female,25,
8,0,88,10,10,2,['k'],['d'],N,N,None,Y,,,,,,,female,25,
8,1,89,7,7,2,['k'],['k'],Y,Y,['space'],Y,,,,,,,female,25,
8,2,90,5,5,2,['d'],['d'],Y,N,None,Y,,,,,,,female,25,
8,3,91,9,9,2,['k'],['d'],N,Y,['space'],Y,,,,,,,female,25,
8,4,92,10,10,2,['d'],['d'],Y,Y,['space'],Y,,,,,,,female,25,
8,5,93,0,0,2,['d'],['d'],Y,Y,['space'],Y,,,,,,,female,25,
8,6,94,0,0,2,['k'],['d'],N,Y,['space'],Y,,,,,,,female,25,
8,7,95,4,4,2,['k'],['k'],Y,Y,['space'],Y,,,,,,,female,25,
8,8,96,9,9,2,['k'],['d'],N,N,None,Y,,,,,,,female,25,
8,9,97,5,5,2,['d'],['d'],Y,N,None,Y,,,,,,,female,25,
8,10,98,8,8,2,['k'],['k'],Y,N,None,Y,,,,,,,female,25,
9,0,99,5,5,2,['d'],['k'],N,N,None,Y,24,37,23,,,,female,25,
9,1,100,10,10,3,['d'],['k'],N,,,,,,,,,,female,25,
9,2,101,6,6,3,['d'],['d'],Y,,,,,,,,,,female,25,
9,3,102,9,9,3,['k'],['k'],Y,N,None,Y,,,,,,,female,25,
9,4,103,8,8,3,['k'],['d'],N,Y,None,N,,,,,,,female,25,
9,5,104,8,8,3,['k'],['k'],Y,Y,None,N,,,,,,,female,25,
9,6,105,7,7,3,['k'],['d'],N,N,None,Y,,,,,,,female,25,
9,7,106,1,1,3,['k'],['d'],N,Y,['space'],Y,,,,,,,female,25,
9,8,107,0,0,3,['k'],['k'],Y,N,None,Y,,,,,,,female,25,
9,9,108,0,0,3,['d'],['d'],Y,Y,['space'],Y,,,,,,,female,25,
9,10,109,8,8,3,['k'],['d'],N,N,None,Y,,,,,,,female,25,
10,0,110,9,9,3,['d'],['d'],Y,N,None,Y,,,,,,,female,25,
10,1,111,1,1,3,['k'],['k'],Y,N,None,Y,,,,,,,female,25,
10,2,112,6,6,3,['k'],['d'],N,N,None,Y,,,,,,,female,25,
10,3,113,1,1,3,['k'],['d'],N,Y,['space'],Y,,,,,,,female,25,
10,4,114,4,4,3,['k'],['d'],N,Y,['space'],Y,,,,,,,female,25,
10,5,115,0,0,3,['d'],['d'],Y,Y,None,N,,,,,,,female,25,
10,6,116,6,6,3,['k'],['k'],Y,N,None,Y,,,,,,,female,25,
10,7,117,8,8,3,['k'],['k'],Y,Y,['space'],Y,,,,,,,female,25,
10,8,118,9,9,3,['d'],['k'],N,N,None,Y,,,,,,,female,25,
10,9,119,2,2,3,['k'],['k'],Y,Y,['space'],Y,,,,,,,female,25,
10,10,120,1,1,3,['k'],['d'],N,Y,['space'],Y,,,,,,,female,25,
11,0,121,3,3,3,['k'],['k'],Y,Y,['space'],Y,,,,,,,female,25,
11,1,122,2,2,3,['d'],['d'],Y,Y,['space'],Y,,,,,,,female,25,
11,2,123,1,1,3,['k'],['d'],N,N,None,Y,,,,,,,female,25,
11,3,124,6,6,3,['k'],['k'],Y,N,None,Y,,,,,,,female,25,
11,4,125,1,1,3,['d'],['d'],Y,N,None,Y,,,,,,,female,25,
11,5,126,7,7,3,['k'],['k'],Y,N,None,Y,,,,,,,female,25,
11,6,127,4,4,3,['k'],['k'],Y,N,None,Y,,,,,,,female,25,
11,7,128,6,6,3,['d'],['d'],Y,N,None,Y,,,,,,,female,25,
11,8,129,2,2,3,['k'],['k'],Y,Y,['space'],Y,,,,,,,female,25,
11,9,130,5,5,3,['k'],['k'],Y,Y,['space'],Y,,,,,,,female,25,
11,10,131,9,9,3,['d'],['d'],Y,N,None,Y,,,,,,,female,25,
12,0,132,2,2,3,['k'],['k'],Y,N,None,Y,,,,,,,female,25,
12,1,133,6,6,3,['d'],['k'],N,N,None,Y,,,,,,,female,25,
12,2,134,7,7,3,['k'],['k'],Y,Y,['space'],Y,,,,,,,female,25,
12,3,135,10,10,3,['k'],['k'],Y,N,None,Y,,,,,,,female,25,
12,4,136,9,9,3,['k'],['k'],Y,N,None,Y,,,,,,,female,25,
12,5,137,5,5,3,['k'],['k'],Y,N,None,Y,,,,,,,female,25,
12,6,138,7,7,3,['d'],['d'],Y,Y,['space'],Y,,,,,,,female,25,
12,7,139,1,1,3,['k'],['k'],Y,Y,None,N,,,,,,,female,25,
12,8,140,3,3,3,['k'],['d'],N,Y,['space'],Y,,,,,,,female,25,
12,9,141,0,0,3,['k'],['k'],Y,Y,['space'],Y,,,,,,,female,25,
12,10,142,10,10,3,['k'],['k'],Y,N,None,Y,,,,,,,female,25,
13,0,143,8,8,3,['k'],['d'],N,Y,['space'],Y,,,,,,,female,25,
13,1,144,1,1,3,['d'],['d'],Y,N,None,Y,,,,,,,female,25,
13,2,145,7,7,3,['k'],['d'],N,N,None,Y,,,,,,,female,25,
13,3,146,10,10,3,['k'],['d'],N,N,None,Y,,,,,,,female,25,
13,4,147,8,8,3,['d'],['d'],Y,N,None,Y,,,,,,,female,25,
13,5,148,8,8,3,['k'],['k'],Y,N,['d'],N,,,,,,,female,25,
13,6,149,10,10,3,['k'],['d'],N,N,['space'],N,33,42,20,,,,female,25,
13,7,150,0,0,4,['k'],['d'],N,,,,,,,,,,female,25,
13,8,151,0,0,4,['d'],['d'],Y,,,,,,,,,,female,25,
13,9,152,10,10,4,['k'],['d'],N,Y,['space'],Y,,,,,,,female,25,
13,10,153,1,1,4,['d'],['k'],N,Y,['space'],Y,,,,,,,female,25,
14,0,154,4,4,4,['k'],['k'],Y,N,None,Y,,,,,,,female,25,
14,1,155,3,3,4,['d'],['k'],N,N,None,Y,,,,,,,female,25,
14,2,156,0,0,4,['k'],['d'],N,N,None,Y,,,,,,,female,25,
14,3,157,5,5,4,['d'],['d'],Y,N,None,Y,,,,,,,female,25,
14,4,158,9,9,4,['k'],['d'],N,N,None,Y,,,,,,,female,25,
14,5,159,0,0,4,['d'],['d'],Y,N,None,Y,,,,,,,female,25,
14,6,160,2,2,4,['k'],['d'],N,N,None,Y,,,,,,,female,25,
14,7,161,9,9,4,['k'],['k'],Y,N,None,Y,,,,,,,female,25,
14,8,162,6,6,4,['d'],['k'],N,Y,['space'],Y,,,,,,,female,25,
14,9,163,2,2,4,['d'],['k'],N,N,None,Y,,,,,,,female,25,
14,10,164,9,9,4,['d'],['d'],Y,N,None,Y,,,,,,,female,25,
15,0,165,6,6,4,['k'],['k'],Y,Y,['space'],Y,,,,,,,female,25,
15,1,166,1,1,4,['d'],['d'],Y,Y,['space'],Y,,,,,,,female,25,
15,2,167,6,6,4,['k'],['k'],Y,Y,['space'],Y,,,,,,,female,25,
15,3,168,2,2,4,['d'],['k'],N,Y,['space'],Y,,,,,,,female,25,
15,4,169,9,9,4,['d'],['d'],Y,N,None,Y,,,,,,,female,25,
15,5,170,4,4,4,['d'],['d'],Y,N,None,Y,,,,,,,female,25,
15,6,171,9,9,4,['k'],['d'],N,N,None,Y,,,,,,,female,25,
15,7,172,8,8,4,['k'],['d'],N,Y,['space'],Y,,,,,,,female,25,
15,8,173,1,1,4,['k'],['k'],Y,N,None,Y,,,,,,,female,25,
15,9,174,0,0,4,['d'],['k'],N,N,None,Y,,,,,,,female,25,
15,10,175,7,7,4,['k'],['k'],Y,Y,['space'],Y,,,,,,,female,25,
16,0,176,10,10,4,['k'],['d'],N,Y,['space'],Y,,,,,,,female,25,
16,1,177,7,7,4,['d'],['d'],Y,Y,['space'],Y,,,,,,,female,25,
16,2,178,0,0,4,['k'],['k'],Y,Y,['space'],Y,,,,,,,female,25,
16,3,179,8,8,4,['k'],['d'],N,Y,['space'],Y,,,,,,,female,25,
16,4,180,9,9,4,['d'],['k'],N,Y,['space'],Y,,,,,,,female,25,
16,5,181,8,8,4,['d'],['k'],N,N,None,Y,,,,,,,female,25,
16,6,182,6,6,4,['d'],['k'],N,N,None,Y,,,,,,,female,25,
16,7,183,2,2,4,['k'],['d'],N,Y,['space'],Y,,,,,,,female,25,
16,8,184,6,6,4,['d'],['d'],Y,N,None,Y,,,,,,,female,25,
16,9,185,6,6,4,['k'],['k'],Y,Y,['space'],Y,,,,,,,female,25,
16,10,186,2,2,4,['d'],['k'],N,Y,['space'],Y,,,,,,,female,25,
17,0,187,10,10,4,['k'],['k'],Y,N,None,Y,,,,,,,female,25,
17,1,188,0,0,4,['k'],['d'],N,Y,['space'],Y,,,,,,,female,25,
17,2,189,9,9,4,['k'],['k'],Y,N,None,Y,,,,,,,female,25,
17,3,190,3,3,4,['k'],['d'],N,Y,['space'],Y,,,,,,,female,25,
17,4,191,10,10,4,['d'],['k'],N,N,None,Y,,,,,,,female,25,
17,5,192,7,7,4,['k'],['d'],N,N,None,Y,,,,,,,female,25,
17,6,193,3,3,4,['d'],['k'],N,N,None,Y,,,,,,,female,25,
17,7,194,3,3,4,['k'],['d'],N,Y,['space'],Y,,,,,,,female,25,
17,8,195,4,4,4,['d'],['k'],N,Y,['space'],Y,,,,,,,female,25,
17,9,196,8,8,4,['d'],['k'],N,N,None,Y,,,,,,,female,25,
17,10,197,1,1,4,['d'],['k'],N,N,None,Y,,,,,,,female,25,
18,0,198,7,7,4,['d'],['k'],N,N,None,Y,,,,,,,female,25,
18,1,199,9,9,4,['d'],['k'],N,Y,['space'],Y,19,48,22,,,,female,25,
18,2,200,4,4,5,['d'],['d'],Y,,,,,,,,,,female,25,
18,3,201,7,7,5,['d'],['d'],Y,,,,,,,,,,female,25,
18,4,202,7,7,5,['k'],['k'],Y,N,None,Y,,,,,,,female,25,
18,5,203,1,1,5,['k'],['d'],N,Y,['space'],Y,,,,,,,female,25,
18,6,204,5,5,5,['d'],['d'],Y,N,None,Y,,,,,,,female,25,
18,7,205,6,6,5,['k'],['d'],N,Y,['space'],Y,,,,,,,female,25,
18,8,206,1,1,5,['k'],['k'],Y,Y,['space'],Y,,,,,,,female,25,
18,9,207,7,7,5,['k'],['d'],N,Y,['space'],Y,,,,,,,female,25,
18,10,208,0,0,5,['d'],['d'],Y,N,None,Y,,,,,,,female,25,
19,0,209,5,5,5,['d'],['k'],N,Y,['space'],Y,,,,,,,female,25,
19,1,210,10,10,5,['d'],['k'],N,Y,['space'],Y,,,,,,,female,25,
19,2,211,2,2,5,['k'],['k'],Y,N,None,Y,,,,,,,female,25,
19,3,212,1,1,5,['d'],['k'],N,N,None,Y,,,,,,,female,25,
19,4,213,9,9,5,['k'],['k'],Y,N,None,Y,,,,,,,female,25,
19,5,214,2,2,5,['k'],['d'],N,Y,['space'],Y,,,,,,,female,25,
19,6,215,6,6,5,['d'],['k'],N,N,None,Y,,,,,,,female,25,
19,7,216,5,5,5,['d'],['k'],N,N,None,Y,,,,,,,female,25,
19,8,217,1,1,5,['d'],['k'],N,N,None,Y,,,,,,,female,25,
19,9,218,5,5,5,['d'],['k'],N,Y,['space'],Y,,,,,,,female,25,
19,10,219,5,5,5,['k'],['d'],N,Y,['space'],Y,,,,,,,female,25,
20,0,220,0,0,5,['d'],['k'],N,N,None,Y,,,,,,,female,25,
20,1,221,3,3,5,['k'],['k'],Y,N,None,Y,,,,,,,female,25,
20,2,222,1,1,5,['d'],['k'],N,Y,['space'],Y,,,,,,,female,25,
20,3,223,5,5,5,['k'],['k'],Y,Y,['space'],Y,,,,,,,female,25,
20,4,224,1,1,5,['k'],['k'],Y,Y,['space'],Y,,,,,,,female,25,
20,5,225,8,8,5,['k'],['k'],Y,Y,['space'],Y,,,,,,,female,25,
20,6,226,0,0,5,['k'],['k'],Y,Y,['space'],Y,,,,,,,female,25,
20,7,227,4,4,5,['k'],['d'],N,Y,['space'],Y,,,,,,,female,25,
20,8,228,9,9,5,['d'],['k'],N,Y,['space'],Y,,,,,,,female,25,
20,9,229,5,5,5,['k'],['d'],N,N,None,Y,,,,,,,female,25,
20,10,230,6,6,5,['d'],['d'],Y,Y,['space'],Y,,,,,,,female,25,
21,0,231,0,0,5,['k'],['d'],N,Y,['space'],Y,,,,,,,female,25,
21,1,232,0,0,5,['d'],['d'],Y,N,None,Y,,,,,,,female,25,
21,2,233,8,8,5,['k'],['k'],Y,Y,['space'],Y,,,,,,,female,25,
21,3,234,1,1,5,['d'],['d'],Y,N,None,Y,,,,,,,female,25,
21,4,235,3,3,5,['d'],['d'],Y,N,None,Y,,,,,,,female,25,
21,5,236,2,2,5,['d'],['d'],Y,Y,['space'],Y,,,,,,,female,25,
21,6,237,2,2,5,['d'],['d'],Y,N,None,Y,,,,,,,female,25,
21,7,238,9,9,5,['d'],['d'],Y,Y,['space'],Y,,,,,,,female,25,
21,8,239,10,10,5,['d'],['k'],N,Y,['space'],Y,,,,,,,female,25,
21,9,240,10,10,5,['k'],['k'],Y,N,None,Y,,,,,,,female,25,
21,10,241,6,6,5,['d'],['d'],Y,N,None,Y,,,,,,,female,25,
22,0,242,4,4,5,['k'],['d'],N,Y,['space'],Y,,,,,,,female,25,
22,1,243,1,1,5,['k'],['k'],Y,N,None,Y,,,,,,,female,25,
22,2,244,6,6,5,['k'],['d'],N,N,None,Y,,,,,,,female,25,
22,3,245,3,3,5,['d'],['d'],Y,Y,['space'],Y,,,,,,,female,25,
22,4,246,8,8,5,['d'],['d'],Y,Y,['space'],Y,,,,,,,female,25,
22,5,247,3,3,5,['d'],['k'],N,N,None,Y,,,,,,,female,25,
22,6,248,9,9,5,['d'],['k'],N,N,None,Y,,,,,,,female,25,
22,7,249,8,8,5,['k'],['k'],Y,N,None,Y,27,48,25,,,,female,25,
22,8,250,4,4,6,['d'],['k'],N,,,,,,,,,,female,25,
22,9,251,5,5,6,['k'],['d'],N,,,,,,,,,,female,25,
22,10,252,6,6,6,['d'],['d'],Y,Y,['space'],Y,,,,,,,female,25,
23,0,253,3,3,6,['d'],['d'],Y,N,None,Y,,,,,,,female,25,
23,1,254,5,5,6,['k'],['k'],Y,N,None,Y,,,,,,,female,25,
23,2,255,7,7,6,['d'],['k'],N,Y,['space'],Y,,,,,,,female,25,
23,3,256,3,3,6,['d'],['d'],Y,N,None,Y,,,,,,,female,25,
23,4,257,7,7,6,['d'],['k'],N,N,None,Y,,,,,,,female,25,
23,5,258,6,6,6,['d'],['k'],N,Y,['space'],Y,,,,,,,female,25,
23,6,259,0,0,6,['k'],['k'],Y,Y,['space'],Y,,,,,,,female,25,
23,7,260,9,9,6,['k'],['k'],Y,Y,['space'],Y,,,,,,,female,25,
23,8,261,9,9,6,['k'],['k'],Y,N,None,Y,,,,,,,female,25,
23,9,262,1,1,6,['d'],['k'],N,N,None,Y,,,,,,,female,25,
23,10,263,2,2,6,['d'],['d'],Y,Y,['space'],Y,,,,,,,female,25,
24,0,264,6,6,6,['k'],['d'],N,Y,['space'],Y,,,,,,,female,25,
24,1,265,4,4,6,['d'],['d'],Y,Y,['space'],Y,,,,,,,female,25,
24,2,266,3,3,6,['d'],['d'],Y,Y,['space'],Y,,,,,,,female,25,
24,3,267,1,1,6,['k'],['d'],N,N,['space'],N,,,,,,,female,25,
24,4,268,0,0,6,['k'],['k'],Y,N,None,Y,,,,,,,female,25,
24,5,269,1,1,6,['k'],['k'],Y,N,None,Y,,,,,,,female,25,
24,6,270,10,10,6,['d'],['k'],N,Y,['space'],Y,,,,,,,female,25,
24,7,271,8,8,6,['k'],['d'],N,Y,['space'],Y,,,,,,,female,25,
24,8,272,7,7,6,['k'],['d'],N,N,None,Y,,,,,,,female,25,
24,9,273,10,10,6,['d'],['d'],Y,Y,['space'],Y,,,,,,,female,25,
24,10,274,8,8,6,['k'],['d'],N,N,None,Y,,,,,,,female,25,
25,0,275,3,3,6,['k'],['d'],N,N,None,Y,,,,,,,female,25,
25,1,276,0,0,6,['d'],['k'],N,Y,['space'],Y,,,,,,,female,25,
25,2,277,7,7,6,['k'],['d'],N,Y,['space'],Y,,,,,,,female,25,
25,3,278,0,0,6,['k'],['d'],N,Y,['space'],Y,,,,,,,female,25,
25,4,279,5,5,6,['d'],['k'],N,N,None,Y,,,,,,,female,25,
25,5,280,5,5,6,['k'],['d'],N,N,None,Y,,,,,,,female,25,
25,6,281,5,5,6,['d'],['d'],Y,N,None,Y,,,,,,,female,25,
25,7,282,6,6,6,['k'],['d'],N,N,None,Y,,,,,,,female,25,
25,8,283,0,0,6,['d'],['d'],Y,N,None,Y,,,,,,,female,25,
25,9,284,0,0,6,['k'],['d'],N,N,None,Y,,,,,,,female,25,
25,10,285,0,0,6,['k'],['k'],Y,N,None,Y,,,,,,,female,25,
26,0,286,3,3,6,['k'],['k'],Y,N,None,Y,,,,,,,female,25,
26,1,287,5,5,6,['k'],['d'],N,N,None,Y,,,,,,,female,25,
26,2,288,9,9,6,['d'],['k'],N,Y,['space'],Y,,,,,,,female,25,
26,3,289,10,10,6,['d'],['d'],Y,N,None,Y,,,,,,,female,25,
26,4,290,2,2,6,['k'],['d'],N,N,None,Y,,,,,,,female,25,
26,5,291,1,1,6,['k'],['k'],Y,N,None,Y,,,,,,,female,25,
26,6,292,2,2,6,['d'],['k'],N,Y,['space'],Y,,,,,,,female,25,
26,7,293,6,6,6,['k'],['k'],Y,N,None,Y,,,,,,,female,25,
26,8,294,0,0,6,['d'],['d'],Y,N,None,Y,,,,,,,female,25,
26,9,295,9,9,6,['k'],['d'],N,Y,['space'],Y,,,,,,,female,25,
26,10,296,7,7,6,['k'],['d'],N,N,None,Y,,,,,,,female,25,
27,0,297,4,4,6,['d'],['d'],Y,N,None,Y,,,,,,,female,25,
27,1,298,0,0,6,['k'],['d'],N,N,None,Y,,,,,,,female,25,
27,2,299,3,3,6,['k'],['k'],Y,N,None,Y,23,47,18,,,,female,25,
27,3,300,6,6,7,['d'],['d'],Y,,,,,,,,,,female,25,
27,4,301,10,10,7,['d'],['d'],Y,,,,,,,,,,female,25,
27,5,302,3,3,7,['k'],['k'],Y,N,None,Y,,,,,,,female,25,
27,6,303,5,5,7,['k'],['d'],N,Y,['space'],Y,,,,,,,female,25,
27,7,304,2,2,7,['k'],['k'],Y,N,None,Y,,,,,,,female,25,
27,8,305,9,9,7,['d'],['d'],Y,N,None,Y,,,,,,,female,25,
27,9,306,1,1,7,['k'],['d'],N,Y,['space'],Y,,,,,,,female,25,
27,10,307,9,9,7,['k'],['k'],Y,Y,['space'],Y,,,,,,,female,25,
28,0,308,0,0,7,['k'],['k'],Y,Y,['space'],Y,,,,,,,female,25,
28,1,309,2,2,7,['k'],['k'],Y,N,None,Y,,,,,,,female,25,
28,2,310,5,5,7,['d'],['d'],Y,N,None,Y,,,,,,,female,25,
28,3,311,0,0,7,['k'],['k'],Y,N,None,Y,,,,,,,female,25,
28,4,312,10,10,7,['k'],['k'],Y,Y,['space'],Y,,,,,,,female,25,
28,5,313,2,2,7,['d'],['d'],Y,Y,['space'],Y,,,,,,,female,25,
28,6,314,9,9,7,['k'],['k'],Y,Y,['space'],Y,,,,,,,female,25,
28,7,315,3,3,7,['d'],['d'],Y,N,None,Y,,,,,,,female,25,
28,8,316,10,10,7,['k'],['k'],Y,N,None,Y,,,,,,,female,25,
28,9,317,7,7,7,['k'],['k'],Y,N,None,Y,,,,,,,female,25,
28,10,318,7,7,7,['d'],['d'],Y,Y,['space'],Y,,,,,,,female,25,
29,0,319,4,4,7,['d'],['d'],Y,N,None,Y,,,,,,,female,25,
29,1,320,3,3,7,['k'],['k'],Y,Y,['space'],Y,,,,,,,female,25,
29,2,321,7,7,7,['d'],['k'],N,Y,['space'],Y,,,,,,,female,25,
29,3,322,8,8,7,['d'],['d'],Y,N,None,Y,,,,,,,female,25,
29,4,323,2,2,7,['k'],['k'],Y,N,None,Y,,,,,,,female,25,
29,5,324,10,10,7,['k'],['k'],Y,N,None,Y,,,,,,,female,25,
29,6,325,0,0,7,['k'],['k'],Y,N,None,Y,,,,,,,female,25,
29,7,326,2,2,7,['k'],['k'],Y,N,None,Y,,,,,,,female,25,
29,8,327,9,9,7,['d'],['d'],Y,N,None,Y,,,,,,,female,25,
29,9,328,9,9,7,['d'],['d'],Y,N,None,Y,,,,,,,female,25,
29,10,329,2,2,7,['k'],['k'],Y,Y,['space'],Y,,,,,,,female,25,
30,0,330,2,2,7,['k'],['k'],Y,Y,['space'],Y,,,,,,,female,25,
30,1,331,5,5,7,['d'],['d'],Y,Y,['space'],Y,,,,,,,female,25,
30,2,332,1,1,7,['k'],['k'],Y,N,None,Y,,,,,,,female,25,
30,3,333,9,9,7,['k'],['k'],Y,N,None,Y,,,,,,,female,25,
30,4,334,4,4,7,['k'],['k'],Y,N,None,Y,,,,,,,female,25,
30,5,335,5,5,7,['k'],['d'],N,N,None,Y,,,,,,,female,25,
30,6,336,0,0,7,['k'],['k'],Y,Y,['space'],Y,,,,,,,female,25,
30,7,337,6,6,7,['d'],['d'],Y,N,None,Y,,,,,,,female,25,
30,8,338,1,1,7,['d'],['d'],Y,N,None,Y,,,,,,,female,25,
30,9,339,2,2,7,['k'],['k'],Y,N,None,Y,,,,,,,female,25,
30,10,340,7,7,7,['k'],['k'],Y,N,None,Y,,,,,,,female,25,
31,0,341,3,3,7,['d'],['d'],Y,N,None,Y,,,,,,,female,25,
31,1,342,10,10,7,['k'],['k'],Y,Y,['space'],Y,,,,,,,female,25,
31,2,343,4,4,7,['d'],['d'],Y,N,None,Y,,,,,,,female,25,
31,3,344,10,10,7,['d'],['d'],Y,Y,['space'],Y,,,,,,,female,25,
31,4,345,5,5,7,['d'],['d'],Y,Y,['space'],Y,,,,,,,female,25,
31,5,346,1,1,7,['k'],['k'],Y,Y,['space'],Y,,,,,,,female,25,
31,6,347,4,4,7,['d'],['d'],Y,Y,['space'],Y,,,,,,,female,25,
31,7,348,3,3,7,['k'],['k'],Y,N,None,Y,,,,,,,female,25,
31,8,349,0,0,7,['d'],['k'],N,N,None,Y,45,48,19,,,,female,25,
31,9,350,4,4,8,['k'],['k'],Y,,,,,,,,,,female,25,
31,10,351,7,7,8,['d'],['d'],Y,,,,,,,,,,female,25,
32,0,352,8,8,8,['k'],['k'],Y,N,None,Y,,,,,,,female,25,
32,1,353,4,4,8,['d'],['d'],Y,N,None,Y,,,,,,,female,25,
32,2,354,2,2,8,['k'],['k'],Y,N,None,Y,,,,,,,female,25,
32,3,355,2,2,8,['k'],['k'],Y,N,None,Y,,,,,,,female,25,
32,4,356,3,3,8,['d'],['d'],Y,N,None,Y,,,,,,,female,25,
32,5,357,10,10,8,['k'],['k'],Y,N,None,Y,,,,,,,female,25,
32,6,358,7,7,8,['d'],['d'],Y,N,None,Y,,,,,,,female,25,
32,7,359,7,7,8,['k'],['k'],Y,Y,['space'],Y,,,,,,,female,25,
32,8,360,4,4,8,['k'],['k'],Y,Y,['space'],Y,,,,,,,female,25,
32,9,361,8,8,8,['k'],['k'],Y,N,None,Y,,,,,,,female,25,
32,10,362,0,0,8,['k'],['k'],Y,Y,['space'],Y,,,,,,,female,25,
33,0,363,3,3,8,['k'],['k'],Y,Y,['space'],Y,,,,,,,female,25,
33,1,364,7,7,8,['k'],['k'],Y,N,None,Y,,,,,,,female,25,
33,2,365,10,10,8,['d'],['d'],Y,N,None,Y,,,,,,,female,25,
33,3,366,7,7,8,['k'],['k'],Y,N,None,Y,,,,,,,female,25,
33,4,367,10,10,8,['k'],['k'],Y,N,None,Y,,,,,,,female,25,
33,5,368,0,0,8,['k'],['k'],Y,Y,['space'],Y,,,,,,,female,25,
33,6,369,1,1,8,['k'],['k'],Y,Y,['space'],Y,,,,,,,female,25,
33,7,370,9,9,8,['k'],['k'],Y,Y,['space'],Y,,,,,,,female,25,
33,8,371,3,3,8,['k'],['k'],Y,Y,['space'],Y,,,,,,,female,25,
33,9,372,10,10,8,['d'],['d'],Y,Y,['space'],Y,,,,,,,female,25,
33,10,373,3,3,8,['k'],['k'],Y,N,None,Y,,,,,,,female,25,
34,0,374,3,3,8,['k'],['k'],Y,Y,['space'],Y,,,,,,,female,25,
34,1,375,3,3,8,['k'],['k'],Y,N,None,Y,,,,,,,female,25,
34,2,376,4,4,8,['d'],['d'],Y,N,None,Y,,,,,,,female,25,
34,3,377,8,8,8,['k'],['k'],Y,N,None,Y,,,,,,,female,25,
34,4,378,1,1,8,['k'],['k'],Y,Y,['space'],Y,,,,,,,female,25,
34,5,379,10,10,8,['d'],['d'],Y,N,None,Y,,,,,,,female,25,
34,6,380,3,3,8,['d'],['d'],Y,N,None,Y,,,,,,,female,25,
34,7,381,8,8,8,['k'],['k'],Y,Y,['space'],Y,,,,,,,female,25,
34,8,382,1,1,8,['d'],['k'],N,N,None,Y,,,,,,,female,25,
34,9,383,2,2,8,['k'],['k'],Y,N,None,Y,,,,,,,female,25,
34,10,384,3,3,8,['d'],['d'],Y,N,None,Y,,,,,,,female,25,
35,0,385,10,10,8,['d'],['d'],Y,Y,['space'],Y,,,,,,,female,25,
35,1,386,2,2,8,['k'],['k'],Y,N,None,Y,,,,,,,female,25,
35,2,387,4,4,8,['d'],['d'],Y,N,None,Y,,,,,,,female,25,
35,3,388,3,3,8,['d'],['d'],Y,N,None,Y,,,,,,,female,25,
35,4,389,5,5,8,['k'],['k'],Y,Y,['space'],Y,,,,,,,female,25,
35,5,390,4,4,8,['d'],['d'],Y,N,None,Y,,,,,,,female,25,
35,6,391,6,6,8,['d'],['d'],Y,N,None,Y,,,,,,,female,25,
35,7,392,9,9,8,['d'],['d'],Y,Y,['space'],Y,,,,,,,female,25,
35,8,393,6,6,8,['k'],['k'],Y,N,None,Y,,,,,,,female,25,
35,9,394,10,10,8,['k'],['k'],Y,N,None,Y,,,,,,,female,25,
35,10,395,3,3,8,['k'],['k'],Y,N,None,Y,,,,,,,female,25,
36,0,396,7,7,8,['d'],['d'],Y,N,None,Y,,,,,,,female,25,
36,1,397,3,3,8,['k'],['k'],Y,N,None,Y,,,,,,,female,25,
36,2,398,8,8,8,['k'],['k'],Y,Y,['space'],Y,,,,,,,female,25,
36,3,399,1,1,8,['d'],['d'],Y,Y,['space'],Y,49,48,17,,,,female,25,
36,4,400,5,5,9,['d'],['d'],Y,,,,,,,,,,female,25,
36,5,401,7,7,9,['d'],['d'],Y,,,,,,,,,,female,25,
36,6,402,7,7,9,['k'],['k'],Y,N,None,Y,,,,,,,female,25,
36,7,403,10,10,9,['d'],['d'],Y,Y,['space'],Y,,,,,,,female,25,
36,8,404,4,4,9,['d'],['d'],Y,Y,['space'],Y,,,,,,,female,25,
36,9,405,8,8,9,['k'],['k'],Y,Y,['space'],Y,,,,,,,female,25,
36,10,406,4,4,9,['d'],['d'],Y,N,None,Y,,,,,,,female,25,
37,0,407,7,7,9,['d'],['d'],Y,Y,['space'],Y,,,,,,,female,25,
37,1,408,4,4,9,['k'],['k'],Y,Y,['space'],Y,,,,,,,female,25,
37,2,409,0,0,9,['d'],['d'],Y,N,None,Y,,,,,,,female,25,
37,3,410,2,2,9,['d'],['d'],Y,N,None,Y,,,,,,,female,25,
37,4,411,2,2,9,['k'],['k'],Y,Y,['space'],Y,,,,,,,female,25,
37,5,412,4,4,9,['d'],['d'],Y,Y,['space'],Y,,,,,,,female,25,
37,6,413,4,4,9,['d'],['d'],Y,Y,['space'],Y,,,,,,,female,25,
37,7,414,9,9,9,['k'],['k'],Y,Y,['space'],Y,,,,,,,female,25,
37,8,415,6,6,9,['k'],['k'],Y,N,None,Y,,,,,,,female,25,
37,9,416,2,2,9,['k'],['k'],Y,N,None,Y,,,,,,,female,25,
37,10,417,7,7,9,['k'],['k'],Y,Y,['space'],Y,,,,,,,female,25,
38,0,418,10,10,9,['k'],['k'],Y,Y,['space'],Y,,,,,,,female,25,
38,1,419,10,10,9,['k'],['k'],Y,Y,None,N,,,,,,,female,25,
38,2,420,4,4,9,['k'],['k'],Y,N,None,Y,,,,,,,female,25,
38,3,421,5,5,9,['d'],['d'],Y,Y,['space'],Y,,,,,,,female,25,
38,4,422,1,1,9,['d'],['d'],Y,Y,['space'],Y,,,,,,,female,25,
38,5,423,2,2,9,['k'],['k'],Y,Y,None,N,,,,,,,female,25,
38,6,424,1,1,9,['d'],['d'],Y,Y,None,N,,,,,,,female,25,
38,7,425,9,9,9,['k'],['d'],N,Y,['space'],Y,,,,,,,female,25,
38,8,426,9,9,9,['k'],['k'],Y,N,None,Y,,,,,,,female,25,
38,9,427,9,9,9,['d'],['d'],Y,N,None,Y,,,,,,,female,25,
38,10,428,9,9,9,['k'],['k'],Y,Y,['space'],Y,,,,,,,female,25,
39,0,429,4,4,9,['d'],['k'],N,N,None,Y,,,,,,,female,25,
39,1,430,0,0,9,['k'],['k'],Y,Y,['space'],Y,,,,,,,female,25,
39,2,431,7,7,9,['d'],['d'],Y,Y,None,N,,,,,,,female,25,
39,3,432,7,7,9,['d'],['d'],Y,N,None,Y,,,,,,,female,25,
39,4,433,7,7,9,['k'],['k'],Y,N,None,Y,,,,,,,female,25,
39,5,434,0,0,9,['d'],['d'],Y,Y,['space'],Y,,,,,,,female,25,
39,6,435,6,6,9,['k'],['k'],Y,Y,['space'],Y,,,,,,,female,25,
39,7,436,3,3,9,['d'],['d'],Y,N,None,Y,,,,,,,female,25,
39,8,437,7,7,9,['k'],['k'],Y,Y,['space'],Y,,,,,,,female,25,
39,9,438,0,0,9,['k'],['k'],Y,N,None,Y,,,,,,,female,25,
39,10,439,8,8,9,['k'],['k'],Y,Y,['space'],Y,,,,,,,female,25,
40,0,440,1,1,9,['d'],['d'],Y,Y,['space'],Y,,,,,,,female,25,
40,1,441,4,4,9,['d'],['d'],Y,N,None,Y,,,,,,,female,25,
40,2,442,7,7,9,['k'],['d'],N,N,None,Y,,,,,,,female,25,
40,3,443,3,3,9,['k'],['k'],Y,N,None,Y,,,,,,,female,25,
40,4,444,3,3,9,['d'],['d'],Y,N,None,Y,,,,,,,female,25,
40,5,445,8,8,9,['d'],['d'],Y,N,None,Y,,,,,,,female,25,
40,6,446,8,8,9,['d'],['d'],Y,N,None,Y,,,,,,,female,25,
40,7,447,7,7,9,['d'],['d'],Y,N,None,Y,,,,,,,female,25,
40,8,448,4,4,9,['k'],['d'],N,N,None,Y,,,,,,,female,25,
40,9,449,4,4,9,['k'],['k'],Y,N,None,Y,46,44,25,,,,female,25,
40,10,450,6,6,10,['d'],['d'],Y,,,,,,,,,,female,25,
41,0,451,9,9,10,['d'],['d'],Y,,,,,,,,,,female,25,
41,1,452,5,5,10,['d'],['d'],Y,Y,['space'],Y,,,,,,,female,25,
41,2,453,8,8,10,['d'],['d'],Y,N,None,Y,,,,,,,female,25,
41,3,454,0,0,10,['d'],['d'],Y,Y,['space'],Y,,,,,,,female,25,
41,4,455,8,8,10,['k'],['k'],Y,Y,['space'],Y,,,,,,,female,25,
41,5,456,2,2,10,['d'],['d'],Y,N,None,Y,,,,,,,female,25,
41,6,457,6,6,10,['d'],['d'],Y,Y,['space'],Y,,,,,,,female,25,
41,7,458,1,1,10,['k'],['k'],Y,N,None,Y,,,,,,,female,25,
41,8,459,5,5,10,['k'],['k'],Y,N,None,Y,,,,,,,female,25,
41,9,460,5,5,10,['d'],['d'],Y,N,None,Y,,,,,,,female,25,
41,10,461,0,0,10,['d'],['d'],Y,Y,['space'],Y,,,,,,,female,25,
42,0,462,8,8,10,['d'],['d'],Y,N,None,Y,,,,,,,female,25,
42,1,463,4,4,10,['d'],['d'],Y,Y,['space'],Y,,,,,,,female,25,
42,2,464,6,6,10,['d'],['d'],Y,N,None,Y,,,,,,,female,25,
42,3,465,10,10,10,['d'],['d'],Y,Y,['space'],Y,,,,,,,female,25,
42,4,466,0,0,10,['k'],['k'],Y,N,None,Y,,,,,,,female,25,
42,5,467,1,1,10,['d'],['d'],Y,N,None,Y,,,,,,,female,25,
42,6,468,3,3,10,['d'],['d'],Y,N,None,Y,,,,,,,female,25,
42,7,469,6,6,10,['k'],['k'],Y,N,None,Y,,,,,,,female,25,
42,8,470,9,9,10,['d'],['d'],Y,N,None,Y,,,,,,,female,25,
42,9,471,5,5,10,['d'],['d'],Y,Y,['space'],Y,,,,,,,female,25,
42,10,472,5,5,10,['d'],['d'],Y,N,None,Y,,,,,,,female,25,
43,0,473,2,2,10,['d'],['d'],Y,Y,['space'],Y,,,,,,,female,25,
43,1,474,5,5,10,['k'],['k'],Y,Y,['space'],Y,,,,,,,female,25,
43,2,475,9,9,10,['d'],['d'],Y,Y,['space'],Y,,,,,,,female,25,
43,3,476,5,5,10,['d'],['d'],Y,N,None,Y,,,,,,,female,25,
43,4,477,6,6,10,['d'],['d'],Y,N,None,Y,,,,,,,female,25,
43,5,478,4,4,10,['k'],['k'],Y,N,None,Y,,,,,,,female,25,
43,6,479,5,5,10,['k'],['k'],Y,Y,['space'],Y,,,,,,,female,25,
43,7,480,8,8,10,['d'],['d'],Y,N,None,Y,,,,,,,female,25,
43,8,481,7,7,10,['k'],['k'],Y,N,None,Y,,,,,,,female,25,
43,9,482,10,10,10,['d'],['d'],Y,Y,['space'],Y,,,,,,,female,25,
43,10,483,5,5,10,['k'],['k'],Y,Y,['space'],Y,,,,,,,female,25,
44,0,484,3,3,10,['k'],['k'],Y,N,None,Y,,,,,,,female,25,
44,1,485,6,6,10,['d'],['d'],Y,N,None,Y,,,,,,,female,25,
44,2,486,0,0,10,['k'],['k'],Y,Y,['space'],Y,,,,,,,female,25,
44,3,487,1,1,10,['k'],['k'],Y,N,None,Y,,,,,,,female,25,
44,4,488,10,10,10,['d'],['d'],Y,N,None,Y,,,,,,,female,25,
44,5,489,8,8,10,['d'],['d'],Y,Y,['space'],Y,,,,,,,female,25,
44,6,490,4,4,10,['k'],['k'],Y,N,None,Y,,,,,,,female,25,
44,7,491,8,8,10,['d'],['d'],Y,N,None,Y,,,,,,,female,25,
44,8,492,8,8,10,['k'],['k'],Y,Y,['space'],Y,,,,,,,female,25,
44,9,493,10,10,10,['k'],['k'],Y,Y,['space'],Y,,,,,,,female,25,
44,10,494,5,5,10,['d'],['d'],Y,Y,['space'],Y,,,,,,,female,25,
45,0,495,1,1,10,['d'],['d'],Y,Y,['space'],Y,,,,,,,female,25,
45,1,496,9,9,10,['d'],['d'],Y,Y,['space'],Y,,,,,,,female,25,
45,2,497,5,5,10,['k'],['k'],Y,N,None,Y,,,,,,,female,25,
45,3,498,6,6,10,['k'],['k'],Y,Y,None,N,,,,,,,female,25,
45,4,499,6,6,10,['k'],['k'],Y,Y,['space'],Y,50,47,23,,,,female,25,
45,5,500,8,8,11,['k'],['d'],Y,,,,,,,Y,Y,Y,female,25,
45,6,501,1,1,11,['d'],['k'],Y,,,,,,,,Y,Y,female,25,
45,7,502,5,5,11,['d'],['k'],Y,Y,['space'],Y,,,,,Y,Y,female,25,
45,8,503,10,10,11,['k'],['d'],Y,Y,['space'],Y,,,,,Y,Y,female,25,
45,9,504,2,2,11,['k'],['d'],Y,N,None,Y,,,,,Y,Y,female,25,
45,10,505,2,2,11,['d'],['k'],Y,Y,['space'],Y,,,,,Y,Y,female,25,
46,0,506,1,1,11,['d'],['k'],Y,Y,['space'],Y,,,,,Y,Y,female,25,
46,1,507,2,2,11,['k'],['d'],Y,N,None,Y,,,,,Y,Y,female,25,
46,2,508,2,2,11,['k'],['d'],Y,N,None,Y,,,,,Y,Y,female,25,
46,3,509,0,0,11,['d'],['k'],Y,Y,['space'],Y,,,,,Y,Y,female,25,
46,4,510,8,8,11,['d'],['k'],Y,N,None,Y,,,,,Y,Y,female,25,
46,5,511,5,5,11,['k'],['d'],Y,Y,['space'],Y,,,,,Y,Y,female,25,
46,6,512,5,5,11,['d'],['k'],Y,N,None,Y,,,,,Y,Y,female,25,
46,7,513,2,2,11,['d'],['k'],Y,N,None,Y,,,,,Y,Y,female,25,
46,8,514,3,3,11,['k'],['d'],Y,N,None,Y,,,,,Y,Y,female,25,
46,9,515,10,10,11,['k'],['d'],Y,N,None,Y,,,,,Y,Y,female,25,
46,10,516,2,2,11,['k'],['d'],Y,N,None,Y,,,,,Y,Y,female,25,
47,0,517,2,2,11,['k'],['d'],Y,N,None,Y,,,,,Y,Y,female,25,
47,1,518,4,4,11,['k'],['d'],Y,N,None,Y,,,,,Y,Y,female,25,
47,2,519,4,4,11,['k'],['d'],Y,N,None,Y,,,,,Y,Y,female,25,
47,3,520,2,2,11,['d'],['d'],N,Y,['space'],Y,,,,,Y,Y,female,25,
47,4,521,1,1,11,['k'],['d'],Y,Y,['space'],Y,,,,,Y,Y,female,25,
47,5,522,2,2,11,['k'],['d'],Y,N,None,Y,,,,,Y,Y,female,25,
47,6,523,9,9,11,['k'],['d'],Y,N,None,Y,,,,,Y,Y,female,25,
47,7,524,7,7,11,['k'],['d'],Y,N,None,Y,,,,,Y,Y,female,25,
47,8,525,5,5,11,['d'],['k'],Y,Y,['space'],Y,,,,,Y,Y,female,25,
47,9,526,10,10,11,['k'],['d'],Y,N,None,Y,,,,,Y,Y,female,25,
47,10,527,8,8,11,['k'],['d'],Y,Y,['space'],Y,,,,,Y,Y,female,25,
48,0,528,1,1,11,['d'],['k'],Y,N,None,Y,,,,,Y,Y,female,25,
48,1,529,8,8,11,['d'],['k'],Y,N,None,Y,,,,,Y,Y,female,25,
48,2,530,4,4,11,['k'],['d'],Y,N,None,Y,,,,,Y,Y,female,25,
48,3,531,3,3,11,['d'],['k'],Y,Y,['space'],Y,,,,,Y,Y,female,25,
48,4,532,5,5,11,['k'],['d'],Y,Y,['space'],Y,,,,,Y,Y,female,25,
48,5,533,2,2,11,['k'],['d'],Y,Y,['space'],Y,,,,,Y,Y,female,25,
48,6,534,9,9,11,['d'],['k'],Y,Y,['space'],Y,,,,,Y,Y,female,25,
48,7,535,3,3,11,['k'],['d'],Y,Y,['space'],Y,,,,,Y,Y,female,25,
48,8,536,10,10,11,['k'],['d'],Y,Y,['space'],Y,,,,,Y,Y,female,25,
48,9,537,0,0,11,['k'],['d'],Y,Y,['space'],Y,,,,,Y,Y,female,25,
48,10,538,1,1,11,['d'],['k'],Y,N,None,Y,,,,,Y,Y,female,25,
49,0,539,4,4,11,['k'],['d'],Y,N,None,Y,,,,,Y,Y,female,25,
49,1,540,8,8,11,['k'],['d'],Y,N,None,Y,,,,,Y,Y,female,25,
49,2,541,7,7,11,['k'],['d'],Y,Y,['space'],Y,,,,,Y,Y,female,25,
49,3,542,5,5,11,['d'],['k'],Y,N,None,Y,,,,,Y,Y,female,25,
49,4,543,8,8,11,['k'],['d'],Y,N,None,Y,,,,,Y,Y,female,25,
49,5,544,8,8,11,['d'],['k'],Y,Y,['space'],Y,,,,,Y,Y,female,25,
49,6,545,5,5,11,['d'],['k'],Y,N,None,Y,,,,,Y,Y,female,25,
49,7,546,7,7,11,['k'],['d'],Y,N,None,Y,,,,,Y,Y,female,25,
49,8,547,9,9,11,['d'],['k'],Y,N,None,Y,,,,,Y,Y,female,25,
49,9,548,2,2,11,['d'],['k'],Y,Y,['space'],Y,,,,,Y,Y,female,25,
49,10,549,9,9,11,['k'],['d'],Y,Y,['space'],Y,49,48,21,,Y,Y,female,25,
50,0,550,10,10,12,['k'],['d'],Y,,,,,,,,Y,Y,female,25,
50,1,551,2,2,12,['k'],['d'],Y,,,,,,,,Y,Y,female,25,
50,2,552,7,7,12,['k'],['d'],Y,N,None,Y,,,,,Y,Y,female,25,
50,3,553,3,3,12,['d'],['k'],Y,N,None,Y,,,,,Y,Y,female,25,
50,4,554,4,4,12,['d'],['k'],Y,Y,['space'],Y,,,,,Y,Y,female,25,
50,5,555,2,2,12,['d'],['k'],Y,Y,['space'],Y,,,,,Y,Y,female,25,
50,6,556,9,9,12,['k'],['d'],Y,Y,['space'],Y,,,,,Y,Y,female,25,
50,7,557,10,10,12,['d'],['k'],Y,Y,['space'],Y,,,,,Y,Y,female,25,
50,8,558,5,5,12,['d'],['d'],N,N,None,Y,,,,,Y,Y,female,25,
50,9,559,0,0,12,['k'],['d'],Y,N,None,Y,,,,,Y,Y,female,25,
50,10,560,3,3,12,['d'],['k'],Y,Y,['space'],Y,,,,,Y,Y,female,25,
51,0,561,8,8,12,['d'],['d'],N,N,None,Y,,,,,Y,Y,female,25,
51,1,562,3,3,12,['k'],['d'],Y,N,None,Y,,,,,Y,Y,female,25,
51,2,563,1,1,12,['d'],['k'],Y,Y,['space'],Y,,,,,Y,Y,female,25,
51,3,564,6,6,12,['k'],['d'],Y,N,None,Y,,,,,Y,Y,female,25,
51,4,565,4,4,12,['k'],['d'],Y,Y,['space'],Y,,,,,Y,Y,female,25,
51,5,566,4,4,12,['k'],['d'],Y,N,None,Y,,,,,Y,Y,female,25,
51,6,567,0,0,12,['k'],['d'],Y,N,None,Y,,,,,Y,Y,female,25,
51,7,568,3,3,12,['k'],['d'],Y,N,None,Y,,,,,Y,Y,female,25,
51,8,569,10,10,12,['d'],['k'],Y,Y,['space'],Y,,,,,Y,Y,female,25,
51,9,570,0,0,12,['k'],['d'],Y,N,None,Y,,,,,Y,Y,female,25,
51,10,571,1,1,12,['d'],['k'],Y,N,None,Y,,,,,Y,Y,female,25,
52,0,572,8,8,12,['k'],['d'],Y,Y,['space'],Y,,,,,Y,Y,female,25,
52,1,573,6,6,12,['d'],['k'],Y,N,None,Y,,,,,Y,Y,female,25,
52,2,574,10,10,12,['d'],['k'],Y,Y,['space'],Y,,,,,Y,Y,female,25,
52,3,575,6,6,12,['d'],['k'],Y,N,None,Y,,,,,Y,Y,female,25,
52,4,576,4,4,12,['d'],['k'],Y,N,None,Y,,,,,Y,Y,female,25,
52,5,577,10,10,12,['k'],['d'],Y,N,None,Y,,,,,Y,Y,female,25,
52,6,578,0,0,12,['d'],['k'],Y,N,None,Y,,,,,Y,Y,female,25,
52,7,579,1,1,12,['k'],['d'],Y,Y,['space'],Y,,,,,Y,Y,female,25,
52,8,580,7,7,12,['d'],['d'],N,N,None,Y,,,,,Y,Y,female,25,
52,9,581,3,3,12,['d'],['k'],Y,Y,['space'],Y,,,,,Y,Y,female,25,
52,10,582,7,7,12,['k'],['d'],Y,Y,['space'],Y,,,,,Y,Y,female,25,
53,0,583,3,3,12,['k'],['d'],Y,N,None,Y,,,,,Y,Y,female,25,
53,1,584,6,6,12,['d'],['k'],Y,Y,['space'],Y,,,,,Y,Y,female,25,
53,2,585,8,8,12,['d'],['k'],Y,Y,['space'],Y,,,,,Y,Y,female,25,
53,3,586,7,7,12,['k'],['d'],Y,Y,['space'],Y,,,,,Y,Y,female,25,
53,4,587,10,10,12,['d'],['k'],Y,N,None,Y,,,,,Y,Y,female,25,
53,5,588,9,9,12,['k'],['d'],Y,Y,['space'],Y,,,,,Y,Y,female,25,
53,6,589,7,7,12,['d'],['k'],Y,N,None,Y,,,,,Y,Y,female,25,
53,7,590,1,1,12,['d'],['k'],Y,N,None,Y,,,,,Y,Y,female,25,
53,8,591,8,8,12,['d'],['k'],Y,N,None,Y,,,,,Y,Y,female,25,
53,9,592,6,6,12,['k'],['d'],Y,N,['space'],N,,,,,Y,Y,female,25,
53,10,593,4,4,12,['d'],['k'],Y,Y,['space'],Y,,,,,Y,Y,female,25,
54,0,594,6,6,12,['d'],['k'],Y,N,None,Y,,,,,Y,Y,female,25,
54,1,595,6,6,12,['k'],['d'],Y,Y,['space'],Y,,,,,Y,Y,female,25,
54,2,596,0,0,12,['d'],['k'],Y,Y,['space'],Y,,,,,Y,Y,female,25,
54,3,597,10,10,12,['d'],['k'],Y,N,None,Y,,,,,Y,Y,female,25,
54,4,598,0,0,12,['k'],['d'],Y,N,None,Y,,,,,Y,Y,female,25,
54,5,599,7,7,12,['d'],['k'],Y,Y,['space'],Y,47,47,21,,Y,Y,female,25,
