.thisRepN,.thisTrialN,.thisN,.thisIndex,.thisTrial,Block Number,Key pressed,Category,Correct?,Int Match?,Int Response,Int Correct?,Line Accuracy,Interference Accuracy,Matching Interferences,New instruction shown?,Buttons switched?,Fast?,gender,age,
0,0,0,5,5,1,['d'],['d'],Y,,,,,,,,,,male ,21,
0,1,1,10,10,1,['k'],['k'],Y,,,,,,,,,,male ,21,
0,2,2,7,7,1,['k'],['k'],Y,Y,['space'],Y,,,,,,,male ,21,
0,3,3,3,3,1,['d'],['d'],Y,N,None,Y,,,,,,,male ,21,
0,4,4,8,8,1,['d'],['k'],N,N,None,Y,,,,,,,male ,21,
0,5,5,7,7,1,['k'],['d'],N,N,None,Y,,,,,,,male ,21,
0,6,6,5,5,1,['d'],['d'],Y,Y,['space'],Y,,,,,,,male ,21,
0,7,7,6,6,1,['k'],['k'],Y,N,None,Y,,,,,,,male ,21,
0,8,8,7,7,1,['d'],['d'],Y,N,None,Y,,,,,,,male ,21,
0,9,9,7,7,1,['k'],['k'],Y,N,['space'],N,,,,,,,male ,21,
0,10,10,7,7,1,['k'],['k'],Y,N,None,Y,,,,,,,male ,21,
1,0,11,5,5,1,['k'],['k'],Y,N,None,Y,,,,,,,male ,21,
1,1,12,2,2,1,['k'],['k'],Y,N,None,Y,,,,,,,male ,21,
1,2,13,0,0,1,['d'],['d'],Y,Y,['space'],Y,,,,,,,male ,21,
1,3,14,0,0,1,['d'],['d'],Y,N,None,Y,,,,,,,male ,21,
1,4,15,4,4,1,['d'],['d'],Y,N,None,Y,,,,,,,male ,21,
1,5,16,8,8,1,['d'],['d'],Y,Y,['space'],Y,,,,,,,male ,21,
1,6,17,1,1,1,['d'],['d'],Y,Y,['space'],Y,,,,,,,male ,21,
1,7,18,10,10,1,['d'],['d'],Y,Y,['space'],Y,,,,,,,male ,21,
1,8,19,5,5,1,['d'],['d'],Y,Y,['space'],Y,,,,,,,male ,21,
1,9,20,5,5,1,['k'],['d'],N,N,None,Y,,,,,,,male ,21,
1,10,21,10,10,1,['d'],['d'],Y,Y,['space'],Y,,,,,,,male ,21,
2,0,22,6,6,1,['d'],['d'],Y,Y,['space'],Y,,,,,,,male ,21,
2,1,23,2,2,1,['d'],['k'],N,Y,['space'],Y,,,,,,,male ,21,
2,2,24,7,7,1,['k'],['d'],N,N,None,Y,,,,,,,male ,21,
2,3,25,5,5,1,['d'],['d'],Y,N,['space'],N,,,,,,,male ,21,
2,4,26,0,0,1,['k'],['d'],N,N,None,Y,,,,,,,male ,21,
2,5,27,1,1,1,['d'],['d'],Y,N,None,Y,,,,,,,male ,21,
2,6,28,7,7,1,['k'],['k'],Y,Y,['space'],Y,,,,,,,male ,21,
2,7,29,0,0,1,['k'],['k'],Y,N,['space'],N,,,,,,,male ,21,
2,8,30,10,10,1,['d'],['d'],Y,N,None,Y,,,,,,,male ,21,
2,9,31,2,2,1,['k'],['d'],N,N,None,Y,,,,,,,male ,21,
2,10,32,9,9,1,['k'],['k'],Y,N,None,Y,,,,,,,male ,21,
3,0,33,4,4,1,['d'],['d'],Y,Y,['space'],Y,,,,,,,male ,21,
3,1,34,0,0,1,['k'],['d'],N,Y,['space'],Y,,,,,,,male ,21,
3,2,35,6,6,1,['d'],['d'],Y,Y,['space'],Y,,,,,,,male ,21,
3,3,36,6,6,1,['d'],['k'],N,N,None,Y,,,,,,,male ,21,
3,4,37,8,8,1,['d'],['d'],Y,Y,['space'],Y,,,,,,,male ,21,
3,5,38,5,5,1,['d'],['d'],Y,Y,['space'],Y,,,,,,,male ,21,
3,6,39,5,5,1,['k'],['k'],Y,N,None,Y,,,,,,,male ,21,
3,7,40,1,1,1,['d'],['d'],Y,N,None,Y,,,,,,,male ,21,
3,8,41,7,7,1,['d'],['d'],Y,Y,['space'],Y,,,,,,,male ,21,
3,9,42,6,6,1,['k'],['d'],N,Y,['space'],Y,,,,,,,male ,21,
3,10,43,10,10,1,['d'],['k'],N,Y,['space'],Y,,,,,,,male ,21,
4,0,44,4,4,1,['k'],['k'],Y,Y,['space'],Y,,,,,,,male ,21,
4,1,45,5,5,1,['k'],['k'],Y,N,None,Y,,,,,,,male ,21,
4,2,46,6,6,1,['k'],['d'],N,Y,['space'],Y,,,,,,,male ,21,
4,3,47,5,5,1,['d'],['d'],Y,Y,['space'],Y,,,,,,,male ,21,
4,4,48,4,4,1,['k'],['k'],Y,Y,['space'],Y,,,,,,,male ,21,
4,5,49,2,2,1,['d'],['d'],Y,Y,None,N,38,44,24,,,,male ,21,
4,6,50,10,10,2,['k'],['k'],Y,,,,,,,,,,male ,21,
4,7,51,8,8,2,['d'],['d'],Y,,,,,,,,,,male ,21,
4,8,52,10,10,2,['d'],['k'],N,Y,['space'],Y,,,,,,,male ,21,
4,9,53,3,3,2,['d'],['d'],Y,Y,['space'],Y,,,,,,,male ,21,
4,10,54,9,9,2,['k'],['k'],Y,N,None,Y,,,,,,,male ,21,
5,0,55,3,3,2,['k'],['k'],Y,Y,['space'],Y,,,,,,,male ,21,
5,1,56,1,1,2,['d'],['d'],Y,N,None,Y,,,,,,,male ,21,
5,2,57,3,3,2,['k'],['k'],Y,N,None,Y,,,,,,,male ,21,
5,3,58,1,1,2,['k'],['d'],N,Y,['space'],Y,,,,,,,male ,21,
5,4,59,4,4,2,['d'],['k'],N,N,None,Y,,,,,,,male ,21,
5,5,60,10,10,2,['k'],['k'],Y,Y,['space'],Y,,,,,,,male ,21,
5,6,61,4,4,2,['d'],['d'],Y,Y,['space'],Y,,,,,,,male ,21,
5,7,62,7,7,2,['k'],['d'],N,Y,['space'],Y,,,,,,,male ,21,
5,8,63,3,3,2,['k'],['k'],Y,Y,['space'],Y,,,,,,,male ,21,
5,9,64,0,0,2,['k'],['k'],Y,N,None,Y,,,,,,,male ,21,
5,10,65,0,0,2,['k'],['d'],N,N,['space'],N,,,,,,,male ,21,
6,0,66,10,10,2,['k'],['k'],Y,Y,None,N,,,,,,,male ,21,
6,1,67,5,5,2,['k'],['k'],Y,N,None,Y,,,,,,,male ,21,
6,2,68,5,5,2,['d'],['d'],Y,N,['space'],N,,,,,,,male ,21,
6,3,69,10,10,2,['k'],['k'],Y,N,None,Y,,,,,,,male ,21,
6,4,70,2,2,2,['d'],['d'],Y,N,None,Y,,,,,,,male ,21,
6,5,71,10,10,2,['k'],['k'],Y,Y,['space'],Y,,,,,,,male ,21,
6,6,72,8,8,2,['k'],['k'],Y,N,None,Y,,,,,,,male ,21,
6,7,73,0,0,2,['k'],['k'],Y,Y,['space'],Y,,,,,,,male ,21,
6,8,74,5,5,2,['k'],['d'],N,Y,['space'],Y,,,,,,,male ,21,
6,9,75,0,0,2,['k'],['k'],Y,Y,['space'],Y,,,,,,,male ,21,
6,10,76,7,7,2,['k'],['k'],Y,Y,['space'],Y,,,,,,,male ,21,
7,0,77,6,6,2,['d'],['d'],Y,N,None,Y,,,,,,,male ,21,
7,1,78,0,0,2,['d'],['d'],Y,N,None,Y,,,,,,,male ,21,
7,2,79,1,1,2,['k'],['k'],Y,N,None,Y,,,,,,,male ,21,
7,3,80,10,10,2,['k'],['d'],N,Y,['space'],Y,,,,,,,male ,21,
7,4,81,2,2,2,['k'],['d'],N,Y,['space'],Y,,,,,,,male ,21,
7,5,82,6,6,2,['k'],['k'],Y,N,None,Y,,,,,,,male ,21,
7,6,83,1,1,2,['k'],['k'],Y,N,None,Y,,,,,,,male ,21,
7,7,84,7,7,2,['k'],['k'],Y,N,None,Y,,,,,,,male ,21,
7,8,85,6,6,2,['k'],['k'],Y,N,None,Y,,,,,,,male ,21,
7,9,86,9,9,2,['d'],['d'],Y,Y,['space'],Y,,,,,,,male ,21,
7,10,87,10,10,2,['d'],['d'],Y,N,None,Y,,,,,,,male ,21,
8,0,88,10,10,2,['d'],['d'],Y,Y,['space'],Y,,,,,,,male ,21,
8,1,89,2,2,2,['d'],['d'],Y,N,None,Y,,,,,,,male ,21,
8,2,90,0,0,2,['d'],['d'],Y,N,None,Y,,,,,,,male ,21,
8,3,91,8,8,2,['k'],['k'],Y,Y,['space'],Y,,,,,,,male ,21,
8,4,92,6,6,2,['k'],['k'],Y,N,None,Y,,,,,,,male ,21,
8,5,93,6,6,2,['k'],['k'],Y,Y,None,N,,,,,,,male ,21,
8,6,94,7,7,2,['k'],['k'],Y,N,None,Y,,,,,,,male ,21,
8,7,95,2,2,2,['d'],['d'],Y,Y,['space'],Y,,,,,,,male ,21,
8,8,96,6,6,2,['k'],['k'],Y,Y,['space'],Y,,,,,,,male ,21,
8,9,97,9,9,2,['k'],['k'],Y,N,None,Y,,,,,,,male ,21,
8,10,98,6,6,2,['k'],['k'],Y,Y,['space'],Y,,,,,,,male ,21,
9,0,99,5,5,2,['d'],['d'],Y,N,None,Y,42,44,23,,,,male ,21,
9,1,100,8,8,3,['k'],['d'],N,,,,,,,,,,male ,21,
9,2,101,0,0,3,['d'],['k'],N,,,,,,,,,,male ,21,
9,3,102,2,2,3,['k'],['k'],Y,Y,['space'],Y,,,,,,,male ,21,
9,4,103,7,7,3,['k'],['k'],Y,N,None,Y,,,,,,,male ,21,
9,5,104,0,0,3,['k'],['k'],Y,Y,['space'],Y,,,,,,,male ,21,
9,6,105,2,2,3,['d'],['d'],Y,N,None,Y,,,,,,,male ,21,
9,7,106,1,1,3,['k'],['k'],Y,N,None,Y,,,,,,,male ,21,
9,8,107,3,3,3,['d'],['d'],Y,Y,['space'],Y,,,,,,,male ,21,
9,9,108,6,6,3,['d'],['d'],Y,N,None,Y,,,,,,,male ,21,
9,10,109,10,10,3,['k'],['k'],Y,N,None,Y,,,,,,,male ,21,
10,0,110,3,3,3,['d'],['k'],N,N,None,Y,,,,,,,male ,21,
10,1,111,6,6,3,['d'],['d'],Y,Y,['space'],Y,,,,,,,male ,21,
10,2,112,7,7,3,['k'],['d'],N,Y,['space'],Y,,,,,,,male ,21,
10,3,113,0,0,3,['k'],['k'],Y,Y,['space'],Y,,,,,,,male ,21,
10,4,114,2,2,3,['d'],['k'],N,N,None,Y,,,,,,,male ,21,
10,5,115,2,2,3,['d'],['d'],Y,N,['space'],N,,,,,,,male ,21,
10,6,116,8,8,3,['d'],['d'],Y,Y,['space'],Y,,,,,,,male ,21,
10,7,117,1,1,3,['k'],['k'],Y,Y,['space'],Y,,,,,,,male ,21,
10,8,118,4,4,3,['k'],['d'],N,N,None,Y,,,,,,,male ,21,
10,9,119,10,10,3,['d'],['d'],Y,N,None,Y,,,,,,,male ,21,
10,10,120,0,0,3,['k'],['k'],Y,N,None,Y,,,,,,,male ,21,
11,0,121,1,1,3,['k'],['k'],Y,N,None,Y,,,,,,,male ,21,
11,1,122,6,6,3,['k'],['k'],Y,N,None,Y,,,,,,,male ,21,
11,2,123,1,1,3,['k'],['k'],Y,N,None,Y,,,,,,,male ,21,
11,3,124,5,5,3,['k'],['d'],N,Y,['space'],Y,,,,,,,male ,21,
11,4,125,2,2,3,['d'],['d'],Y,Y,['space'],Y,,,,,,,male ,21,
11,5,126,7,7,3,['d'],['d'],Y,Y,['space'],Y,,,,,,,male ,21,
11,6,127,6,6,3,['k'],['k'],Y,N,['space'],N,,,,,,,male ,21,
11,7,128,7,7,3,['k'],['k'],Y,Y,['space'],Y,,,,,,,male ,21,
11,8,129,5,5,3,['k'],['k'],Y,N,None,Y,,,,,,,male ,21,
11,9,130,3,3,3,['d'],['d'],Y,Y,['space'],Y,,,,,,,male ,21,
11,10,131,3,3,3,['d'],['d'],Y,Y,['space'],Y,,,,,,,male ,21,
12,0,132,5,5,3,['d'],['d'],Y,Y,['space'],Y,,,,,,,male ,21,
12,1,133,0,0,3,['k'],['k'],Y,N,None,Y,,,,,,,male ,21,
12,2,134,6,6,3,['d'],['d'],Y,N,None,Y,,,,,,,male ,21,
12,3,135,1,1,3,['d'],['k'],N,N,['space'],N,,,,,,,male ,21,
12,4,136,5,5,3,['d'],['d'],Y,N,None,Y,,,,,,,male ,21,
12,5,137,3,3,3,['k'],['k'],Y,Y,['space'],Y,,,,,,,male ,21,
12,6,138,7,7,3,['k'],['k'],Y,N,None,Y,,,,,,,male ,21,
12,7,139,3,3,3,['d'],['d'],Y,N,None,Y,,,,,,,male ,21,
12,8,140,10,10,3,['d'],['d'],Y,N,None,Y,,,,,,,male ,21,
12,9,141,10,10,3,['d'],['k'],N,Y,['space'],Y,,,,,,,male ,21,
12,10,142,6,6,3,['k'],['k'],Y,N,None,Y,,,,,,,male ,21,
13,0,143,1,1,3,['k'],['k'],Y,N,None,Y,,,,,,,male ,21,
13,1,144,2,2,3,['d'],['d'],Y,Y,['space'],Y,,,,,,,male ,21,
13,2,145,5,5,3,['k'],['d'],N,N,None,Y,,,,,,,male ,21,
13,3,146,9,9,3,['d'],['d'],Y,N,None,Y,,,,,,,male ,21,
13,4,147,9,9,3,['k'],['k'],Y,Y,['space'],Y,,,,,,,male ,21,
13,5,148,9,9,3,['d'],['d'],Y,N,None,Y,,,,,,,male ,21,
13,6,149,0,0,3,['d'],['d'],Y,Y,['space'],Y,40,45,20,,,,male ,21,
13,7,150,6,6,4,['k'],['k'],Y,,,,,,,,,,male ,21,
13,8,151,0,0,4,['k'],['k'],Y,,,,,,,,,,male ,21,
13,9,152,8,8,4,['k'],['k'],Y,N,None,Y,,,,,,,male ,21,
13,10,153,6,6,4,['d'],['d'],Y,N,None,Y,,,,,,,male ,21,
14,0,154,1,1,4,['k'],['k'],Y,N,None,Y,,,,,,,male ,21,
14,1,155,0,0,4,['d'],['d'],Y,Y,['space'],Y,,,,,,,male ,21,
14,2,156,7,7,4,['k'],['k'],Y,Y,['space'],Y,,,,,,,male ,21,
14,3,157,6,6,4,['k'],['k'],Y,N,None,Y,,,,,,,male ,21,
14,4,158,0,0,4,['d'],['d'],Y,Y,['space'],Y,,,,,,,male ,21,
14,5,159,2,2,4,['k'],['k'],Y,N,None,Y,,,,,,,male ,21,
14,6,160,0,0,4,['d'],['d'],Y,N,None,Y,,,,,,,male ,21,
14,7,161,9,9,4,['k'],['k'],Y,Y,['space'],Y,,,,,,,male ,21,
14,8,162,1,1,4,['k'],['k'],Y,N,None,Y,,,,,,,male ,21,
14,9,163,5,5,4,['k'],['d'],N,Y,None,N,,,,,,,male ,21,
14,10,164,7,7,4,['d'],['d'],Y,Y,['space'],Y,,,,,,,male ,21,
15,0,165,8,8,4,['d'],['k'],N,N,None,Y,,,,,,,male ,21,
15,1,166,4,4,4,['d'],['k'],N,N,None,Y,,,,,,,male ,21,
15,2,167,2,2,4,['k'],['k'],Y,Y,['space'],Y,,,,,,,male ,21,
15,3,168,0,0,4,['d'],['k'],N,N,None,Y,,,,,,,male ,21,
15,4,169,9,9,4,['k'],['k'],Y,Y,['space'],Y,,,,,,,male ,21,
15,5,170,4,4,4,['d'],['d'],Y,Y,['space'],Y,,,,,,,male ,21,
15,6,171,3,3,4,['k'],['k'],Y,Y,['space'],Y,,,,,,,male ,21,
15,7,172,8,8,4,['k'],['d'],N,Y,['space'],Y,,,,,,,male ,21,
15,8,173,10,10,4,['d'],['d'],Y,Y,['space'],Y,,,,,,,male ,21,
15,9,174,2,2,4,['k'],['k'],Y,Y,None,N,,,,,,,male ,21,
15,10,175,6,6,4,['k'],['k'],Y,N,None,Y,,,,,,,male ,21,
16,0,176,7,7,4,['k'],['k'],Y,Y,['space'],Y,,,,,,,male ,21,
16,1,177,9,9,4,['d'],['d'],Y,N,None,Y,,,,,,,male ,21,
16,2,178,7,7,4,['k'],['k'],Y,N,None,Y,,,,,,,male ,21,
16,3,179,7,7,4,['k'],['k'],Y,N,['space'],N,,,,,,,male ,21,
16,4,180,9,9,4,['d'],['d'],Y,Y,['space'],Y,,,,,,,male ,21,
16,5,181,3,3,4,['d'],['d'],Y,Y,['space'],Y,,,,,,,male ,21,
16,6,182,9,9,4,['k'],['k'],Y,N,None,Y,,,,,,,male ,21,
16,7,183,9,9,4,['k'],['d'],N,N,['k'],N,,,,,,,male ,21,
16,8,184,8,8,4,['k'],['k'],Y,N,None,Y,,,,,,,male ,21,
16,9,185,3,3,4,['d'],['d'],Y,N,None,Y,,,,,,,male ,21,
16,10,186,9,9,4,['k'],['k'],Y,N,None,Y,,,,,,,male ,21,
17,0,187,6,6,4,['k'],['d'],N,N,None,Y,,,,,,,male ,21,
17,1,188,1,1,4,['k'],['k'],Y,Y,['space'],Y,,,,,,,male ,21,
17,2,189,3,3,4,['k'],['k'],Y,Y,['space'],Y,,,,,,,male ,21,
17,3,190,2,2,4,['k'],['d'],N,Y,['space'],Y,,,,,,,male ,21,
17,4,191,5,5,4,['k'],['k'],Y,N,None,Y,,,,,,,male ,21,
17,5,192,2,2,4,['k'],['k'],Y,N,None,Y,,,,,,,male ,21,
17,6,193,6,6,4,['d'],['d'],Y,N,None,Y,,,,,,,male ,21,
17,7,194,4,4,4,['k'],['k'],Y,N,None,Y,,,,,,,male ,21,
17,8,195,0,0,4,['k'],['k'],Y,N,None,Y,,,,,,,male ,21,
17,9,196,7,7,4,['d'],['d'],Y,Y,['space'],Y,,,,,,,male ,21,
17,10,197,6,6,4,['d'],['d'],Y,Y,['space'],Y,,,,,,,male ,21,
18,0,198,8,8,4,['k'],['k'],Y,N,None,Y,,,,,,,male ,21,
18,1,199,2,2,4,['k'],['k'],Y,N,None,Y,42,44,21,,,,male ,21,
18,2,200,8,8,5,['k'],['d'],N,,,,,,,,,,male ,21,
18,3,201,10,10,5,['d'],['k'],N,,,,,,,,,,male ,21,
18,4,202,0,0,5,['d'],['d'],Y,N,None,Y,,,,,,,male ,21,
18,5,203,5,5,5,['d'],['d'],Y,N,None,Y,,,,,,,male ,21,
18,6,204,3,3,5,['k'],['k'],Y,Y,None,N,,,,,,,male ,21,
18,7,205,4,4,5,['k'],['k'],Y,Y,['space'],Y,,,,,,,male ,21,
18,8,206,7,7,5,['d'],['d'],Y,Y,['space'],Y,,,,,,,male ,21,
18,9,207,8,8,5,['d'],['k'],N,N,None,Y,,,,,,,male ,21,
18,10,208,10,10,5,['d'],['d'],Y,Y,['space'],Y,,,,,,,male ,21,
19,0,209,4,4,5,['d'],['d'],Y,N,None,Y,,,,,,,male ,21,
19,1,210,7,7,5,['k'],['k'],Y,Y,['space'],Y,,,,,,,male ,21,
19,2,211,8,8,5,['k'],['k'],Y,N,None,Y,,,,,,,male ,21,
19,3,212,0,0,5,['d'],['k'],N,N,None,Y,,,,,,,male ,21,
19,4,213,8,8,5,['k'],['k'],Y,Y,['space'],Y,,,,,,,male ,21,
19,5,214,6,6,5,['k'],['k'],Y,N,None,Y,,,,,,,male ,21,
19,6,215,9,9,5,['d'],['d'],Y,Y,['space'],Y,,,,,,,male ,21,
19,7,216,4,4,5,['d'],['d'],Y,Y,None,N,,,,,,,male ,21,
19,8,217,8,8,5,['d'],['d'],Y,N,None,Y,,,,,,,male ,21,
19,9,218,3,3,5,['d'],['d'],Y,N,None,Y,,,,,,,male ,21,
19,10,219,9,9,5,['k'],['k'],Y,N,None,Y,,,,,,,male ,21,
20,0,220,9,9,5,['k'],['k'],Y,Y,['space'],Y,,,,,,,male ,21,
20,1,221,1,1,5,['k'],['k'],Y,Y,['space'],Y,,,,,,,male ,21,
20,2,222,5,5,5,['k'],['k'],Y,N,None,Y,,,,,,,male ,21,
20,3,223,8,8,5,['k'],['k'],Y,Y,['space'],Y,,,,,,,male ,21,
20,4,224,1,1,5,['d'],['d'],Y,Y,['space'],Y,,,,,,,male ,21,
20,5,225,3,3,5,['d'],['d'],Y,Y,['space'],Y,,,,,,,male ,21,
20,6,226,8,8,5,['k'],['k'],Y,Y,['space'],Y,,,,,,,male ,21,
20,7,227,1,1,5,['k'],['k'],Y,Y,['space'],Y,,,,,,,male ,21,
20,8,228,0,0,5,['d'],['k'],N,N,None,Y,,,,,,,male ,21,
20,9,229,6,6,5,['k'],['d'],N,N,None,Y,,,,,,,male ,21,
20,10,230,0,0,5,['d'],['d'],Y,N,None,Y,,,,,,,male ,21,
21,0,231,0,0,5,['k'],['k'],Y,Y,['space'],Y,,,,,,,male ,21,
21,1,232,8,8,5,['d'],['d'],Y,N,None,Y,,,,,,,male ,21,
21,2,233,2,2,5,['k'],['d'],N,Y,['space'],Y,,,,,,,male ,21,
21,3,234,6,6,5,['d'],['d'],Y,N,['space'],N,,,,,,,male ,21,
21,4,235,1,1,5,['k'],['k'],Y,Y,['space'],Y,,,,,,,male ,21,
21,5,236,10,10,5,['k'],['k'],Y,Y,['space'],Y,,,,,,,male ,21,
21,6,237,10,10,5,['d'],['d'],Y,N,None,Y,,,,,,,male ,21,
21,7,238,3,3,5,['k'],['k'],Y,N,None,Y,,,,,,,male ,21,
21,8,239,7,7,5,['k'],['k'],Y,Y,['space'],Y,,,,,,,male ,21,
21,9,240,5,5,5,['k'],['d'],N,N,None,Y,,,,,,,male ,21,
21,10,241,1,1,5,['k'],['k'],Y,Y,['space'],Y,,,,,,,male ,21,
22,0,242,7,7,5,['k'],['d'],N,Y,['space'],Y,,,,,,,male ,21,
22,1,243,0,0,5,['d'],['d'],Y,Y,['space'],Y,,,,,,,male ,21,
22,2,244,2,2,5,['k'],['k'],Y,Y,['k'],N,,,,,,,male ,21,
22,3,245,4,4,5,['k'],['d'],N,Y,['space'],Y,,,,,,,male ,21,
22,4,246,3,3,5,['k'],['k'],Y,N,None,Y,,,,,,,male ,21,
22,5,247,1,1,5,['k'],['k'],Y,N,None,Y,,,,,,,male ,21,
22,6,248,3,3,5,['k'],['k'],Y,N,None,Y,,,,,,,male ,21,
22,7,249,8,8,5,['k'],['d'],N,N,None,Y,39,44,25,,,,male ,21,
22,8,250,4,4,6,['d'],['k'],N,,,,,,,,,,male ,21,
22,9,251,6,6,6,['k'],['k'],Y,,,,,,,,,,male ,21,
22,10,252,4,4,6,['d'],['d'],Y,Y,['space'],Y,,,,,,,male ,21,
23,0,253,0,0,6,['k'],['k'],Y,Y,['space'],Y,,,,,,,male ,21,
23,1,254,7,7,6,['d'],['d'],Y,N,None,Y,,,,,,,male ,21,
23,2,255,5,5,6,['k'],['k'],Y,N,None,Y,,,,,,,male ,21,
23,3,256,9,9,6,['k'],['k'],Y,N,None,Y,,,,,,,male ,21,
23,4,257,5,5,6,['d'],['d'],Y,Y,['space'],Y,,,,,,,male ,21,
23,5,258,2,2,6,['d'],['k'],N,N,None,Y,,,,,,,male ,21,
23,6,259,9,9,6,['d'],['d'],Y,N,None,Y,,,,,,,male ,21,
23,7,260,6,6,6,['k'],['d'],N,N,None,Y,,,,,,,male ,21,
23,8,261,7,7,6,['k'],['k'],Y,N,None,Y,,,,,,,male ,21,
23,9,262,0,0,6,['d'],['d'],Y,N,None,Y,,,,,,,male ,21,
23,10,263,9,9,6,['k'],['k'],Y,Y,['space'],Y,,,,,,,male ,21,
24,0,264,5,5,6,['k'],['d'],N,N,None,Y,,,,,,,male ,21,
24,1,265,0,0,6,['k'],['k'],Y,Y,['space'],Y,,,,,,,male ,21,
24,2,266,8,8,6,['k'],['k'],Y,Y,['space'],Y,,,,,,,male ,21,
24,3,267,2,2,6,['d'],['d'],Y,N,None,Y,,,,,,,male ,21,
24,4,268,6,6,6,['d'],['d'],Y,Y,['space'],Y,,,,,,,male ,21,
24,5,269,3,3,6,['d'],['d'],Y,Y,['space'],Y,,,,,,,male ,21,
24,6,270,9,9,6,['k'],['k'],Y,N,None,Y,,,,,,,male ,21,
24,7,271,7,7,6,['k'],['k'],Y,Y,['space'],Y,,,,,,,male ,21,
24,8,272,8,8,6,['d'],['d'],Y,N,None,Y,,,,,,,male ,21,
24,9,273,2,2,6,['d'],['d'],Y,N,None,Y,,,,,,,male ,21,
24,10,274,2,2,6,['d'],['d'],Y,N,None,Y,,,,,,,male ,21,
25,0,275,5,5,6,['k'],['k'],Y,Y,None,N,,,,,,,male ,21,
25,1,276,5,5,6,['k'],['k'],Y,N,None,Y,,,,,,,male ,21,
25,2,277,7,7,6,['k'],['k'],Y,Y,['space'],Y,,,,,,,male ,21,
25,3,278,3,3,6,['d'],['d'],Y,N,None,Y,,,,,,,male ,21,
25,4,279,1,1,6,['d'],['d'],Y,Y,None,N,,,,,,,male ,21,
25,5,280,5,5,6,['k'],['d'],N,Y,['space'],Y,,,,,,,male ,21,
25,6,281,3,3,6,['k'],['k'],Y,Y,['space'],Y,,,,,,,male ,21,
25,7,282,4,4,6,['d'],['d'],Y,N,None,Y,,,,,,,male ,21,
25,8,283,5,5,6,['d'],['d'],Y,N,None,Y,,,,,,,male ,21,
25,9,284,6,6,6,['k'],['d'],N,N,None,Y,,,,,,,male ,21,
25,10,285,7,7,6,['k'],['k'],Y,N,None,Y,,,,,,,male ,21,
26,0,286,6,6,6,['d'],['d'],Y,Y,None,N,,,,,,,male ,21,
26,1,287,5,5,6,['k'],['k'],Y,Y,['space'],Y,,,,,,,male ,21,
26,2,288,9,9,6,['k'],['k'],Y,N,None,Y,,,,,,,male ,21,
26,3,289,5,5,6,['k'],['k'],Y,Y,['space'],Y,,,,,,,male ,21,
26,4,290,3,3,6,['d'],['d'],Y,N,None,Y,,,,,,,male ,21,
26,5,291,4,4,6,['k'],['d'],N,N,None,Y,,,,,,,male ,21,
26,6,292,4,4,6,['d'],['d'],Y,N,['space'],N,,,,,,,male ,21,
26,7,293,5,5,6,['d'],['d'],Y,N,None,Y,,,,,,,male ,21,
26,8,294,10,10,6,['d'],['d'],Y,N,None,Y,,,,,,,male ,21,
26,9,295,10,10,6,['k'],['k'],Y,Y,['space'],Y,,,,,,,male ,21,
26,10,296,0,0,6,['k'],['k'],Y,N,None,Y,,,,,,,male ,21,
27,0,297,9,9,6,['k'],['k'],Y,Y,['space'],Y,,,,,,,male ,21,
27,1,298,1,1,6,['d'],['d'],Y,Y,['space'],Y,,,,,,,male ,21,
27,2,299,10,10,6,['d'],['k'],N,N,None,Y,42,44,20,,,,male ,21,
27,3,300,0,0,7,['d'],['d'],Y,,,,,,,,,,male ,21,
27,4,301,10,10,7,['d'],['d'],Y,,,,,,,,,,male ,21,
27,5,302,3,3,7,['k'],['k'],Y,N,None,Y,,,,,,,male ,21,
27,6,303,10,10,7,['k'],['k'],Y,N,['space'],N,,,,,,,male ,21,
27,7,304,8,8,7,['d'],['d'],Y,Y,['space'],Y,,,,,,,male ,21,
27,8,305,4,4,7,['d'],['d'],Y,N,None,Y,,,,,,,male ,21,
27,9,306,2,2,7,['d'],['d'],Y,Y,['space'],Y,,,,,,,male ,21,
27,10,307,0,0,7,['k'],['k'],Y,Y,['space'],Y,,,,,,,male ,21,
28,0,308,6,6,7,['k'],['k'],Y,N,None,Y,,,,,,,male ,21,
28,1,309,1,1,7,['k'],['d'],N,N,None,Y,,,,,,,male ,21,
28,2,310,5,5,7,['k'],['k'],Y,N,None,Y,,,,,,,male ,21,
28,3,311,2,2,7,['k'],['d'],N,Y,['space'],Y,,,,,,,male ,21,
28,4,312,1,1,7,['k'],['d'],N,N,['space'],N,,,,,,,male ,21,
28,5,313,7,7,7,['d'],['d'],Y,N,None,Y,,,,,,,male ,21,
28,6,314,3,3,7,['k'],['k'],Y,Y,['space'],Y,,,,,,,male ,21,
28,7,315,9,9,7,['d'],['d'],Y,Y,['space'],Y,,,,,,,male ,21,
28,8,316,1,1,7,['d'],['d'],Y,N,None,Y,,,,,,,male ,21,
28,9,317,1,1,7,['k'],['k'],Y,Y,['space'],Y,,,,,,,male ,21,
28,10,318,0,0,7,['d'],['k'],N,Y,['space'],Y,,,,,,,male ,21,
29,0,319,4,4,7,['k'],['k'],Y,N,None,Y,,,,,,,male ,21,
29,1,320,8,8,7,['k'],['k'],Y,Y,['space'],Y,,,,,,,male ,21,
29,2,321,5,5,7,['d'],['d'],Y,Y,['space'],Y,,,,,,,male ,21,
29,3,322,7,7,7,['k'],['d'],N,N,None,Y,,,,,,,male ,21,
29,4,323,6,6,7,['k'],['k'],Y,Y,['space'],Y,,,,,,,male ,21,
29,5,324,10,10,7,['d'],['d'],Y,N,None,Y,,,,,,,male ,21,
29,6,325,1,1,7,['k'],['k'],Y,Y,['space'],Y,,,,,,,male ,21,
29,7,326,10,10,7,['d'],['d'],Y,N,None,Y,,,,,,,male ,21,
29,8,327,2,2,7,['d'],['d'],Y,N,None,Y,,,,,,,male ,21,
29,9,328,7,7,7,['k'],['k'],Y,N,None,Y,,,,,,,male ,21,
29,10,329,3,3,7,['d'],['d'],Y,N,None,Y,,,,,,,male ,21,
30,0,330,3,3,7,['d'],['d'],Y,Y,['space'],Y,,,,,,,male ,21,
30,1,331,0,0,7,['d'],['d'],Y,N,None,Y,,,,,,,male ,21,
30,2,332,4,4,7,['k'],['d'],N,Y,['space'],Y,,,,,,,male ,21,
30,3,333,4,4,7,['k'],['k'],Y,Y,['space'],Y,,,,,,,male ,21,
30,4,334,8,8,7,['d'],['d'],Y,Y,['space'],Y,,,,,,,male ,21,
30,5,335,3,3,7,['d'],['d'],Y,N,None,Y,,,,,,,male ,21,
30,6,336,6,6,7,['d'],['d'],Y,Y,['space'],Y,,,,,,,male ,21,
30,7,337,9,9,7,['d'],['d'],Y,N,None,Y,,,,,,,male ,21,
30,8,338,6,6,7,['d'],['d'],Y,N,None,Y,,,,,,,male ,21,
30,9,339,2,2,7,['k'],['k'],Y,N,None,Y,,,,,,,male ,21,
30,10,340,8,8,7,['d'],['d'],Y,N,None,Y,,,,,,,male ,21,
31,0,341,6,6,7,['d'],['d'],Y,N,None,Y,,,,,,,male ,21,
31,1,342,8,8,7,['k'],['k'],Y,Y,['space'],Y,,,,,,,male ,21,
31,2,343,4,4,7,['d'],['d'],Y,Y,['space'],Y,,,,,,,male ,21,
31,3,344,0,0,7,['k'],['k'],Y,N,None,Y,,,,,,,male ,21,
31,4,345,7,7,7,['d'],['d'],Y,Y,['space'],Y,,,,,,,male ,21,
31,5,346,3,3,7,['k'],['k'],Y,Y,['space'],Y,,,,,,,male ,21,
31,6,347,2,2,7,['k'],['k'],Y,N,None,Y,,,,,,,male ,21,
31,7,348,4,4,7,['d'],['d'],Y,Y,['space'],Y,,,,,,,male ,21,
31,8,349,8,8,7,['k'],['k'],Y,N,None,Y,44,46,22,,,,male ,21,
31,9,350,2,2,8,['k'],['k'],Y,,,,,,,,,,male ,21,
31,10,351,7,7,8,['d'],['d'],Y,,,,,,,,,,male ,21,
32,0,352,1,1,8,['k'],['k'],Y,Y,['space'],Y,,,,,,,male ,21,
32,1,353,6,6,8,['k'],['k'],Y,N,None,Y,,,,,,,male ,21,
32,2,354,4,4,8,['d'],['k'],N,N,None,Y,,,,,,,male ,21,
32,3,355,8,8,8,['k'],['k'],Y,N,None,Y,,,,,,,male ,21,
32,4,356,0,0,8,['d'],['d'],Y,Y,['space'],Y,,,,,,,male ,21,
32,5,357,9,9,8,['k'],['d'],N,Y,['space'],Y,,,,,,,male ,21,
32,6,358,8,8,8,['d'],['d'],Y,N,['space'],N,,,,,,,male ,21,
32,7,359,4,4,8,['d'],['d'],Y,Y,['space'],Y,,,,,,,male ,21,
32,8,360,1,1,8,['k'],['k'],Y,Y,['space'],Y,,,,,,,male ,21,
32,9,361,1,1,8,['k'],['k'],Y,N,None,Y,,,,,,,male ,21,
32,10,362,3,3,8,['k'],['k'],Y,Y,['space'],Y,,,,,,,male ,21,
33,0,363,2,2,8,['d'],['d'],Y,Y,['space'],Y,,,,,,,male ,21,
33,1,364,3,3,8,['d'],['d'],Y,Y,['space'],Y,,,,,,,male ,21,
33,2,365,1,1,8,['k'],['k'],Y,N,None,Y,,,,,,,male ,21,
33,3,366,2,2,8,['k'],['k'],Y,N,None,Y,,,,,,,male ,21,
33,4,367,5,5,8,['d'],['d'],Y,Y,['space'],Y,,,,,,,male ,21,
33,5,368,4,4,8,['k'],['k'],Y,N,None,Y,,,,,,,male ,21,
33,6,369,1,1,8,['d'],['k'],N,Y,['space'],Y,,,,,,,male ,21,
33,7,370,3,3,8,['d'],['d'],Y,N,None,Y,,,,,,,male ,21,
33,8,371,8,8,8,['k'],['d'],N,N,None,Y,,,,,,,male ,21,
33,9,372,6,6,8,['d'],['d'],Y,Y,['space'],Y,,,,,,,male ,21,
33,10,373,9,9,8,['k'],['k'],Y,N,None,Y,,,,,,,male ,21,
34,0,374,10,10,8,['k'],['k'],Y,Y,['space'],Y,,,,,,,male ,21,
34,1,375,9,9,8,['d'],['d'],Y,Y,['space'],Y,,,,,,,male ,21,
34,2,376,4,4,8,['k'],['d'],N,N,None,Y,,,,,,,male ,21,
34,3,377,3,3,8,['k'],['k'],Y,Y,['space'],Y,,,,,,,male ,21,
34,4,378,8,8,8,['d'],['d'],Y,N,None,Y,,,,,,,male ,21,
34,5,379,4,4,8,['d'],['d'],Y,Y,['space'],Y,,,,,,,male ,21,
34,6,380,1,1,8,['k'],['d'],N,Y,['space'],Y,,,,,,,male ,21,
34,7,381,6,6,8,['d'],['d'],Y,N,None,Y,,,,,,,male ,21,
34,8,382,9,9,8,['k'],['k'],Y,N,None,Y,,,,,,,male ,21,
34,9,383,0,0,8,['k'],['k'],Y,Y,['space'],Y,,,,,,,male ,21,
34,10,384,2,2,8,['k'],['k'],Y,N,None,Y,,,,,,,male ,21,
35,0,385,1,1,8,['k'],['k'],Y,Y,['space'],Y,,,,,,,male ,21,
35,1,386,6,6,8,['d'],['d'],Y,Y,['space'],Y,,,,,,,male ,21,
35,2,387,8,8,8,['d'],['d'],Y,N,None,Y,,,,,,,male ,21,
35,3,388,5,5,8,['k'],['k'],Y,Y,['space'],Y,,,,,,,male ,21,
35,4,389,2,2,8,['d'],['d'],Y,N,['space'],N,,,,,,,male ,21,
35,5,390,10,10,8,['k'],['k'],Y,N,None,Y,,,,,,,male ,21,
35,6,391,9,9,8,['d'],['d'],Y,Y,['space'],Y,,,,,,,male ,21,
35,7,392,2,2,8,['k'],['k'],Y,N,['space'],N,,,,,,,male ,21,
35,8,393,5,5,8,['k'],['k'],Y,N,None,Y,,,,,,,male ,21,
35,9,394,4,4,8,['k'],['d'],N,Y,['space'],Y,,,,,,,male ,21,
35,10,395,0,0,8,['d'],['k'],N,Y,['space'],Y,,,,,,,male ,21,
36,0,396,0,0,8,['k'],['d'],N,N,None,Y,,,,,,,male ,21,
36,1,397,3,3,8,['d'],['d'],Y,Y,['space'],Y,,,,,,,male ,21,
36,2,398,3,3,8,['d'],['d'],Y,N,None,Y,,,,,,,male ,21,
36,3,399,6,6,8,['k'],['k'],Y,Y,['space'],Y,41,45,25,,,,male ,21,
36,4,400,2,2,9,['d'],['k'],N,,,,,,,,,,male ,21,
36,5,401,9,9,9,['d'],['d'],Y,,,,,,,,,,male ,21,
36,6,402,3,3,9,['k'],['k'],Y,Y,['space'],Y,,,,,,,male ,21,
36,7,403,5,5,9,['k'],['k'],Y,Y,['space'],Y,,,,,,,male ,21,
36,8,404,3,3,9,['k'],['k'],Y,Y,None,N,,,,,,,male ,21,
36,9,405,9,9,9,['k'],['d'],N,Y,['space'],Y,,,,,,,male ,21,
36,10,406,4,4,9,['k'],['k'],Y,Y,['space'],Y,,,,,,,male ,21,
37,0,407,9,9,9,['d'],['d'],Y,N,None,Y,,,,,,,male ,21,
37,1,408,8,8,9,['k'],['k'],Y,Y,['space'],Y,,,,,,,male ,21,
37,2,409,9,9,9,['d'],['d'],Y,Y,['space'],Y,,,,,,,male ,21,
37,3,410,7,7,9,['d'],['d'],Y,N,None,Y,,,,,,,male ,21,
37,4,411,10,10,9,['k'],['k'],Y,N,None,Y,,,,,,,male ,21,
37,5,412,2,2,9,['k'],['k'],Y,N,None,Y,,,,,,,male ,21,
37,6,413,1,1,9,['d'],['d'],Y,N,None,Y,,,,,,,male ,21,
37,7,414,1,1,9,['k'],['k'],Y,Y,['space'],Y,,,,,,,male ,21,
37,8,415,5,5,9,['d'],['d'],Y,N,None,Y,,,,,,,male ,21,
37,9,416,9,9,9,['d'],['k'],N,N,None,Y,,,,,,,male ,21,
37,10,417,2,2,9,['d'],['d'],Y,Y,['space'],Y,,,,,,,male ,21,
38,0,418,10,10,9,['k'],['k'],Y,N,None,Y,,,,,,,male ,21,
38,1,419,1,1,9,['k'],['k'],Y,N,None,Y,,,,,,,male ,21,
38,2,420,3,3,9,['d'],['d'],Y,Y,['space'],Y,,,,,,,male ,21,
38,3,421,1,1,9,['k'],['k'],Y,Y,['space'],Y,,,,,,,male ,21,
38,4,422,5,5,9,['d'],['d'],Y,Y,['space'],Y,,,,,,,male ,21,
38,5,423,5,5,9,['k'],['k'],Y,N,None,Y,,,,,,,male ,21,
38,6,424,10,10,9,['d'],['d'],Y,Y,['space'],Y,,,,,,,male ,21,
38,7,425,6,6,9,['k'],['k'],Y,N,None,Y,,,,,,,male ,21,
38,8,426,9,9,9,['d'],['k'],N,N,None,Y,,,,,,,male ,21,
38,9,427,5,5,9,['d'],['d'],Y,Y,['space'],Y,,,,,,,male ,21,
38,10,428,10,10,9,['k'],['d'],N,N,None,Y,,,,,,,male ,21,
39,0,429,1,1,9,['d'],['k'],N,N,None,Y,,,,,,,male ,21,
39,1,430,0,0,9,['d'],['k'],N,N,None,Y,,,,,,,male ,21,
39,2,431,8,8,9,['k'],['k'],Y,N,None,Y,,,,,,,male ,21,
39,3,432,8,8,9,['k'],['k'],Y,Y,['space'],Y,,,,,,,male ,21,
39,4,433,1,1,9,['k'],['k'],Y,N,None,Y,,,,,,,male ,21,
39,5,434,7,7,9,['d'],['d'],Y,Y,['space'],Y,,,,,,,male ,21,
39,6,435,0,0,9,['d'],['d'],Y,N,['space'],N,,,,,,,male ,21,
39,7,436,3,3,9,['d'],['d'],Y,N,None,Y,,,,,,,male ,21,
39,8,437,4,4,9,['d'],['d'],Y,Y,['space'],Y,,,,,,,male ,21,
39,9,438,6,6,9,['d'],['d'],Y,N,None,Y,,,,,,,male ,21,
39,10,439,2,2,9,['k'],['k'],Y,Y,['space'],Y,,,,,,,male ,21,
40,0,440,10,10,9,['k'],['k'],Y,N,None,Y,,,,,,,male ,21,
40,1,441,5,5,9,['d'],['d'],Y,N,None,Y,,,,,,,male ,21,
40,2,442,9,9,9,['d'],['d'],Y,N,None,Y,,,,,,,male ,21,
40,3,443,10,10,9,['k'],['k'],Y,Y,['space'],Y,,,,,,,male ,21,
40,4,444,7,7,9,['d'],['d'],Y,Y,['space'],Y,,,,,,,male ,21,
40,5,445,2,2,9,['k'],['k'],Y,N,None,Y,,,,,,,male ,21,
40,6,446,9,9,9,['k'],['k'],Y,Y,['space'],Y,,,,,,,male ,21,
40,7,447,9,9,9,['d'],['d'],Y,N,None,Y,,,,,,,male ,21,
40,8,448,2,2,9,['k'],['k'],Y,Y,['space'],Y,,,,,,,male ,21,
40,9,449,8,8,9,['d'],['d'],Y,Y,['space'],Y,43,46,23,,,,male ,21,
40,10,450,9,9,10,['d'],['d'],Y,,,,,,,,,,male ,21,
41,0,451,0,0,10,['d'],['d'],Y,,,,,,,,,,male ,21,
41,1,452,10,10,10,['k'],['k'],Y,Y,['space'],Y,,,,,,,male ,21,
41,2,453,6,6,10,['d'],['d'],Y,Y,['space'],Y,,,,,,,male ,21,
41,3,454,9,9,10,['k'],['k'],Y,N,['space'],N,,,,,,,male ,21,
41,4,455,2,2,10,['d'],['d'],Y,Y,['space'],Y,,,,,,,male ,21,
41,5,456,1,1,10,['k'],['k'],Y,N,None,Y,,,,,,,male ,21,
41,6,457,3,3,10,['k'],['k'],Y,Y,['space'],Y,,,,,,,male ,21,
41,7,458,8,8,10,['d'],['d'],Y,N,None,Y,,,,,,,male ,21,
41,8,459,8,8,10,['k'],['k'],Y,Y,None,N,,,,,,,male ,21,
41,9,460,7,7,10,['d'],['d'],Y,N,None,Y,,,,,,,male ,21,
41,10,461,6,6,10,['k'],['k'],Y,N,None,Y,,,,,,,male ,21,
42,0,462,3,3,10,['d'],['d'],Y,N,None,Y,,,,,,,male ,21,
42,1,463,6,6,10,['k'],['k'],Y,Y,['space'],Y,,,,,,,male ,21,
42,2,464,9,9,10,['k'],['k'],Y,N,None,Y,,,,,,,male ,21,
42,3,465,7,7,10,['k'],['k'],Y,N,None,Y,,,,,,,male ,21,
42,4,466,9,9,10,['d'],['d'],Y,N,None,Y,,,,,,,male ,21,
42,5,467,4,4,10,['d'],['d'],Y,Y,['space'],Y,,,,,,,male ,21,
42,6,468,5,5,10,['d'],['k'],N,Y,['space'],Y,,,,,,,male ,21,
42,7,469,9,9,10,['d'],['d'],Y,Y,['space'],Y,,,,,,,male ,21,
42,8,470,1,1,10,['d'],['d'],Y,N,None,Y,,,,,,,male ,21,
42,9,471,9,9,10,['d'],['d'],Y,N,None,Y,,,,,,,male ,21,
42,10,472,4,4,10,['d'],['d'],Y,Y,['space'],Y,,,,,,,male ,21,
43,0,473,7,7,10,['k'],['k'],Y,Y,['space'],Y,,,,,,,male ,21,
43,1,474,10,10,10,['k'],['k'],Y,Y,['space'],Y,,,,,,,male ,21,
43,2,475,1,1,10,['k'],['k'],Y,Y,None,N,,,,,,,male ,21,
43,3,476,0,0,10,['k'],['k'],Y,N,None,Y,,,,,,,male ,21,
43,4,477,4,4,10,['k'],['k'],Y,N,None,Y,,,,,,,male ,21,
43,5,478,2,2,10,['k'],['k'],Y,N,None,Y,,,,,,,male ,21,
43,6,479,3,3,10,['d'],['d'],Y,N,None,Y,,,,,,,male ,21,
43,7,480,8,8,10,['k'],['k'],Y,N,None,Y,,,,,,,male ,21,
43,8,481,4,4,10,['d'],['k'],N,Y,['space'],Y,,,,,,,male ,21,
43,9,482,0,0,10,['d'],['d'],Y,Y,['space'],Y,,,,,,,male ,21,
43,10,483,7,7,10,['k'],['k'],Y,Y,['space'],Y,,,,,,,male ,21,
44,0,484,3,3,10,['d'],['d'],Y,Y,['space'],Y,,,,,,,male ,21,
44,1,485,5,5,10,['k'],['d'],N,N,None,Y,,,,,,,male ,21,
44,2,486,7,7,10,['d'],['d'],Y,N,None,Y,,,,,,,male ,21,
44,3,487,10,10,10,['k'],['d'],N,Y,['space'],Y,,,,,,,male ,21,
44,4,488,3,3,10,['d'],['d'],Y,N,None,Y,,,,,,,male ,21,
44,5,489,4,4,10,['k'],['k'],Y,N,None,Y,,,,,,,male ,21,
44,6,490,8,8,10,['d'],['k'],N,Y,['space'],Y,,,,,,,male ,21,
44,7,491,0,0,10,['k'],['k'],Y,Y,['space'],Y,,,,,,,male ,21,
44,8,492,10,10,10,['k'],['d'],N,Y,"['space', 'v']",N,,,,,,,male ,21,
44,9,493,9,9,10,['d'],['d'],Y,N,['space'],N,,,,,,,male ,21,
44,10,494,10,10,10,['k'],['k'],Y,N,None,Y,,,,,,,male ,21,
45,0,495,3,3,10,['k'],['d'],N,Y,['space'],Y,,,,,,,male ,21,
45,1,496,4,4,10,['k'],['k'],Y,Y,['space'],Y,,,,,,,male ,21,
45,2,497,8,8,10,['k'],['k'],Y,N,None,Y,,,,,,,male ,21,
45,3,498,4,4,10,['d'],['d'],Y,Y,None,N,,,,,,,male ,21,
45,4,499,8,8,10,['d'],['d'],Y,N,None,Y,43,42,24,,,,male ,21,
45,5,500,2,2,11,['k'],['k'],N,,,,,,,Y,Y,Y,male ,21,
45,6,501,1,1,11,['k'],['d'],Y,,,,,,,,Y,Y,male ,21,
45,7,502,8,8,11,['k'],['d'],Y,Y,['space'],Y,,,,,Y,Y,male ,21,
45,8,503,8,8,11,['k'],['d'],Y,Y,['space'],Y,,,,,Y,Y,male ,21,
45,9,504,10,10,11,['d'],['d'],N,N,None,Y,,,,,Y,Y,male ,21,
45,10,505,10,10,11,['k'],['d'],Y,N,['space'],N,,,,,Y,Y,male ,21,
46,0,506,6,6,11,['k'],['d'],Y,N,None,Y,,,,,Y,Y,male ,21,
46,1,507,0,0,11,['k'],['d'],Y,N,None,Y,,,,,Y,Y,male ,21,
46,2,508,7,7,11,['d'],['k'],Y,Y,['space'],Y,,,,,Y,Y,male ,21,
46,3,509,1,1,11,['k'],['k'],N,Y,['space'],Y,,,,,Y,Y,male ,21,
46,4,510,7,7,11,['k'],['d'],Y,N,None,Y,,,,,Y,Y,male ,21,
46,5,511,9,9,11,['k'],['d'],Y,N,None,Y,,,,,Y,Y,male ,21,
46,6,512,1,1,11,['d'],['k'],Y,Y,['space'],Y,,,,,Y,Y,male ,21,
46,7,513,7,7,11,['d'],['k'],Y,Y,['space'],Y,,,,,Y,Y,male ,21,
46,8,514,9,9,11,['k'],['d'],Y,N,['space'],N,,,,,Y,Y,male ,21,
46,9,515,5,5,11,['d'],['k'],Y,N,None,Y,,,,,Y,Y,male ,21,
46,10,516,4,4,11,['d'],['d'],N,N,None,Y,,,,,Y,Y,male ,21,
47,0,517,0,0,11,['k'],['d'],Y,N,None,Y,,,,,Y,Y,male ,21,
47,1,518,7,7,11,['d'],['k'],Y,Y,None,N,,,,,Y,Y,male ,21,
47,2,519,8,8,11,['k'],['d'],Y,N,None,Y,,,,,Y,Y,male ,21,
47,3,520,1,1,11,['d'],['k'],Y,Y,['space'],Y,,,,,Y,Y,male ,21,
47,4,521,4,4,11,['d'],['k'],Y,Y,['space'],Y,,,,,Y,Y,male ,21,
47,5,522,0,0,11,['d'],['k'],Y,N,None,Y,,,,,Y,Y,male ,21,
47,6,523,1,1,11,['k'],['d'],Y,Y,['space'],Y,,,,,Y,Y,male ,21,
47,7,524,3,3,11,['k'],['d'],Y,N,None,Y,,,,,Y,Y,male ,21,
47,8,525,8,8,11,['d'],['k'],Y,N,None,Y,,,,,Y,Y,male ,21,
47,9,526,4,4,11,['k'],['d'],Y,Y,['space'],Y,,,,,Y,Y,male ,21,
47,10,527,4,4,11,['d'],['k'],Y,Y,['space'],Y,,,,,Y,Y,male ,21,
48,0,528,5,5,11,['k'],['d'],Y,Y,['space'],Y,,,,,Y,Y,male ,21,
48,1,529,4,4,11,['d'],['k'],Y,Y,['space'],Y,,,,,Y,Y,male ,21,
48,2,530,4,4,11,['k'],['d'],Y,N,None,Y,,,,,Y,Y,male ,21,
48,3,531,4,4,11,['k'],['d'],Y,Y,['space'],Y,,,,,Y,Y,male ,21,
48,4,532,3,3,11,['k'],['d'],Y,N,None,Y,,,,,Y,Y,male ,21,
48,5,533,10,10,11,['d'],['k'],Y,Y,None,N,,,,,Y,Y,male ,21,
48,6,534,10,10,11,['k'],['d'],Y,Y,['space'],Y,,,,,Y,Y,male ,21,
48,7,535,10,10,11,['d'],['k'],Y,Y,['space'],Y,,,,,Y,Y,male ,21,
48,8,536,8,8,11,['d'],['k'],Y,N,None,Y,,,,,Y,Y,male ,21,
48,9,537,3,3,11,['k'],['d'],Y,N,None,Y,,,,,Y,Y,male ,21,
48,10,538,4,4,11,['d'],['k'],Y,N,None,Y,,,,,Y,Y,male ,21,
49,0,539,4,4,11,['d'],['k'],Y,N,['space'],N,,,,,Y,Y,male ,21,
49,1,540,3,3,11,['d'],['k'],Y,Y,['space'],Y,,,,,Y,Y,male ,21,
49,2,541,7,7,11,['k'],['d'],Y,N,None,Y,,,,,Y,Y,male ,21,
49,3,542,7,7,11,['d'],['k'],Y,N,['space'],N,,,,,Y,Y,male ,21,
49,4,543,10,10,11,['d'],['d'],N,Y,['space'],Y,,,,,Y,Y,male ,21,
49,5,544,2,2,11,['d'],['k'],Y,Y,['space'],Y,,,,,Y,Y,male ,21,
49,6,545,7,7,11,['k'],['k'],N,Y,['space'],Y,,,,,Y,Y,male ,21,
49,7,546,10,10,11,['d'],['k'],Y,N,None,Y,,,,,Y,Y,male ,21,
49,8,547,2,2,11,['d'],['k'],Y,N,None,Y,,,,,Y,Y,male ,21,
49,9,548,6,6,11,['d'],['k'],Y,N,None,Y,,,,,Y,Y,male ,21,
49,10,549,4,4,11,['k'],['d'],Y,Y,['space'],Y,44,42,23,,Y,Y,male ,21,
50,0,550,10,10,12,['k'],['d'],Y,,,,,,,,Y,Y,male ,21,
50,1,551,4,4,12,['k'],['d'],Y,,,,,,,,Y,Y,male ,21,
50,2,552,10,10,12,['d'],['k'],Y,N,None,Y,,,,,Y,Y,male ,21,
50,3,553,9,9,12,['d'],['k'],Y,Y,['space'],Y,,,,,Y,Y,male ,21,
50,4,554,2,2,12,['k'],['d'],Y,Y,['space'],Y,,,,,Y,Y,male ,21,
50,5,555,2,2,12,['k'],['d'],Y,Y,['space'],Y,,,,,Y,Y,male ,21,
50,6,556,5,5,12,['d'],['d'],N,Y,['space'],Y,,,,,Y,Y,male ,21,
50,7,557,4,4,12,['k'],['d'],Y,Y,['space'],Y,,,,,Y,Y,male ,21,
50,8,558,2,2,12,['k'],['d'],Y,N,None,Y,,,,,Y,Y,male ,21,
50,9,559,9,9,12,['d'],['k'],Y,N,None,Y,,,,,Y,Y,male ,21,
50,10,560,7,7,12,['d'],['k'],Y,Y,['space'],Y,,,,,Y,Y,male ,21,
51,0,561,0,0,12,['d'],['k'],Y,N,None,Y,,,,,Y,Y,male ,21,
51,1,562,9,9,12,['k'],['d'],Y,Y,['space'],Y,,,,,Y,Y,male ,21,
51,2,563,3,3,12,['d'],['k'],Y,N,None,Y,,,,,Y,Y,male ,21,
51,3,564,9,9,12,['k'],['d'],Y,Y,['space'],Y,,,,,Y,Y,male ,21,
51,4,565,8,8,12,['k'],['d'],Y,N,None,Y,,,,,Y,Y,male ,21,
51,5,566,8,8,12,['k'],['d'],Y,N,['space'],N,,,,,Y,Y,male ,21,
51,6,567,2,2,12,['k'],['d'],Y,N,None,Y,,,,,Y,Y,male ,21,
51,7,568,5,5,12,['k'],['d'],Y,Y,['space'],Y,,,,,Y,Y,male ,21,
51,8,569,0,0,12,['k'],['d'],Y,N,None,Y,,,,,Y,Y,male ,21,
51,9,570,0,0,12,['k'],['d'],Y,Y,['space'],Y,,,,,Y,Y,male ,21,
51,10,571,7,7,12,['d'],['k'],Y,Y,['space'],Y,,,,,Y,Y,male ,21,
52,0,572,8,8,12,['d'],['k'],Y,Y,['space'],Y,,,,,Y,Y,male ,21,
52,1,573,4,4,12,['d'],['k'],Y,N,None,Y,,,,,Y,Y,male ,21,
52,2,574,2,2,12,['d'],['d'],N,N,None,Y,,,,,Y,Y,male ,21,
52,3,575,3,3,12,['d'],['k'],Y,N,None,Y,,,,,Y,Y,male ,21,
52,4,576,1,1,12,['d'],['d'],N,N,None,Y,,,,,Y,Y,male ,21,
52,5,577,0,0,12,['d'],['k'],Y,Y,['space'],Y,,,,,Y,Y,male ,21,
52,6,578,7,7,12,['d'],['k'],Y,N,None,Y,,,,,Y,Y,male ,21,
52,7,579,5,5,12,['d'],['k'],Y,N,None,Y,,,,,Y,Y,male ,21,
52,8,580,1,1,12,['d'],['k'],Y,Y,['space'],Y,,,,,Y,Y,male ,21,
52,9,581,1,1,12,['d'],['k'],Y,Y,['space'],Y,,,,,Y,Y,male ,21,
52,10,582,5,5,12,['k'],['d'],Y,Y,['space'],Y,,,,,Y,Y,male ,21,
53,0,583,4,4,12,['k'],['d'],Y,Y,['space'],Y,,,,,Y,Y,male ,21,
53,1,584,9,9,12,['k'],['d'],Y,N,None,Y,,,,,Y,Y,male ,21,
53,2,585,1,1,12,['k'],['d'],Y,N,None,Y,,,,,Y,Y,male ,21,
53,3,586,9,9,12,['d'],['k'],Y,N,None,Y,,,,,Y,Y,male ,21,
53,4,587,2,2,12,['d'],['k'],Y,Y,['space'],Y,,,,,Y,Y,male ,21,
53,5,588,8,8,12,['d'],['k'],Y,Y,['space'],Y,,,,,Y,Y,male ,21,
53,6,589,6,6,12,['d'],['d'],N,Y,['space'],Y,,,,,Y,Y,male ,21,
53,7,590,9,9,12,['k'],['d'],Y,N,None,Y,,,,,Y,Y,male ,21,
53,8,591,3,3,12,['d'],['d'],N,N,None,Y,,,,,Y,Y,male ,21,
53,9,592,5,5,12,['d'],['k'],Y,Y,['space'],Y,,,,,Y,Y,male ,21,
53,10,593,10,10,12,['d'],['k'],Y,N,None,Y,,,,,Y,Y,male ,21,
54,0,594,10,10,12,['k'],['k'],N,Y,['space'],Y,,,,,Y,Y,male ,21,
54,1,595,3,3,12,['d'],['d'],N,N,None,Y,,,,,Y,Y,male ,21,
54,2,596,6,6,12,['d'],['k'],Y,Y,['space'],Y,,,,,Y,Y,male ,21,
54,3,597,4,4,12,['k'],['d'],Y,Y,['space'],Y,,,,,Y,Y,male ,21,
54,4,598,6,6,12,['d'],['k'],Y,N,None,Y,,,,,Y,Y,male ,21,
54,5,599,10,10,12,['d'],['k'],Y,Y,['space'],Y,43,47,25,,Y,Y,male ,21,
