.thisRepN,.thisTrialN,.thisN,.thisIndex,.thisTrial,Block Number,Key pressed,Category,Correct?,Int Match?,Int Response,Int Correct?,Line Accuracy,Interference Accuracy,Matching Interferences,New instruction shown?,Buttons switched?,Fast?,gender,age,
0,0,0,6,6,1,['k'],['d'],N,,,,,,,,,,M,21,
0,1,1,4,4,1,['d'],['k'],N,,,,,,,,,,M,21,
0,2,2,0,0,1,['k'],['d'],N,N,None,Y,,,,,,,M,21,
0,3,3,4,4,1,['d'],['k'],N,N,None,Y,,,,,,,M,21,
0,4,4,12,12,1,['k'],['k'],Y,N,None,Y,,,,,,,M,21,
0,5,5,9,9,1,['k'],['d'],N,N,['space'],N,,,,,,,M,21,
0,6,6,11,11,1,['d'],['d'],Y,Y,['space'],Y,,,,,,,M,21,
0,7,7,3,3,1,['k'],['d'],N,N,None,Y,,,,,,,M,21,
0,8,8,12,12,1,['k'],['k'],Y,N,None,Y,,,,,,,M,21,
0,9,9,4,4,1,['k'],['d'],N,N,None,Y,,,,,,,M,21,
0,10,10,11,11,1,['d'],['k'],N,N,None,Y,,,,,,,M,21,
0,11,11,1,1,1,['k'],['d'],N,N,None,Y,,,,,,,M,21,
0,12,12,9,9,1,['k'],['d'],N,Y,None,N,,,,,,,M,21,
0,13,13,4,4,1,['d'],['d'],Y,N,['space'],N,,,,,,,M,21,
0,14,14,8,8,1,['d'],['d'],Y,Y,['k'],N,,,,,,,M,21,
1,0,15,5,5,1,['k'],['k'],Y,Y,['space'],Y,,,,,,,M,21,
1,1,16,4,4,1,['k'],['k'],Y,N,['space'],N,,,,,,,M,21,
1,2,17,2,2,1,['k'],['k'],Y,Y,['k'],N,,,,,,,M,21,
1,3,18,5,5,1,['d'],['d'],Y,N,['space'],N,,,,,,,M,21,
1,4,19,4,4,1,['d'],['d'],Y,N,None,Y,,,,,,,M,21,
1,5,20,7,7,1,['d'],['d'],Y,N,None,Y,,,,,,,M,21,
1,6,21,14,14,1,['d'],['d'],Y,N,['space'],N,,,,,,,M,21,
1,7,22,4,4,1,['k'],['k'],Y,N,['space'],N,,,,,,,M,21,
1,8,23,5,5,1,['k'],['k'],Y,N,['space'],N,,,,,,,M,21,
1,9,24,3,3,1,['k'],['k'],Y,Y,None,N,,,,,,,M,21,
1,10,25,13,13,1,['k'],['k'],Y,Y,['space'],Y,,,,,,,M,21,
1,11,26,6,6,1,['d'],['k'],N,Y,['space'],Y,,,,,,,M,21,
1,12,27,7,7,1,['k'],['d'],N,N,None,Y,,,,,,,M,21,
1,13,28,10,10,1,['k'],['k'],Y,N,None,Y,,,,,,,M,21,
1,14,29,8,8,1,['d'],['d'],Y,N,['space'],N,,,,,,,M,21,
2,0,30,6,6,1,['k'],['k'],Y,Y,None,N,,,,,,,M,21,
2,1,31,10,10,1,['k'],['k'],Y,Y,None,N,,,,,,,M,21,
2,2,32,3,3,1,['d'],['d'],Y,N,None,Y,,,,,,,M,21,
2,3,33,2,2,1,['d'],['d'],Y,Y,['space'],Y,,,,,,,M,21,
2,4,34,2,2,1,['d'],['d'],Y,N,None,Y,,,,,,,M,21,
2,5,35,14,14,1,['k'],['k'],Y,Y,['space'],Y,,,,,,,M,21,
2,6,36,3,3,1,['d'],['d'],Y,Y,['space'],Y,,,,,,,M,21,
2,7,37,13,13,1,['k'],['k'],Y,Y,['space'],Y,,,,,,,M,21,
2,8,38,2,2,1,['k'],['k'],Y,N,None,Y,,,,,,,M,21,
2,9,39,1,1,1,['d'],['d'],Y,Y,['space'],Y,,,,,,,M,21,
2,10,40,3,3,1,['k'],['k'],Y,Y,None,N,,,,,,,M,21,
2,11,41,1,1,1,['k'],['d'],N,N,['space'],N,,,,,,,M,21,
2,12,42,6,6,1,['d'],['k'],N,N,['space'],N,,,,,,,M,21,
2,13,43,10,10,1,['d'],['d'],Y,N,None,Y,,,,,,,M,21,
2,14,44,1,1,1,['d'],['d'],Y,N,['space'],N,,,,,,,M,21,
3,0,45,12,12,1,['k'],['k'],Y,Y,None,N,,,,,,,M,21,
3,1,46,4,4,1,['k'],['k'],Y,N,None,Y,,,,,,,M,21,
3,2,47,13,13,1,['d'],['d'],Y,Y,['space'],Y,,,,,,,M,21,
3,3,48,4,4,1,['d'],['k'],N,Y,['space'],Y,,,,,,,M,21,
3,4,49,8,8,1,['k'],['k'],Y,Y,None,N,35,28,20,,,,M,21,
3,5,50,2,2,2,['d'],['d'],Y,,,,,,,,,,M,21,
3,6,51,7,7,2,['k'],['k'],Y,,,,,,,,,,M,21,
3,7,52,4,4,2,['k'],['d'],N,N,['space'],N,,,,,,,M,21,
3,8,53,14,14,2,['d'],['d'],Y,Y,None,N,,,,,,,M,21,
3,9,54,13,13,2,['d'],['d'],Y,N,['space'],N,,,,,,,M,21,
3,10,55,7,7,2,['d'],['d'],Y,N,None,Y,,,,,,,M,21,
3,11,56,10,10,2,['d'],['d'],Y,Y,['space'],Y,,,,,,,M,21,
3,12,57,0,0,2,['k'],['d'],N,Y,['space'],Y,,,,,,,M,21,
3,13,58,6,6,2,['d'],['d'],Y,N,None,Y,,,,,,,M,21,
3,14,59,14,14,2,['k'],['k'],Y,N,None,Y,,,,,,,M,21,
4,0,60,11,11,2,['d'],['d'],Y,Y,['space'],Y,,,,,,,M,21,
4,1,61,13,13,2,['k'],['k'],Y,Y,None,N,,,,,,,M,21,
4,2,62,8,8,2,['k'],['k'],Y,Y,['space'],Y,,,,,,,M,21,
4,3,63,14,14,2,['k'],['d'],N,Y,None,N,,,,,,,M,21,
4,4,64,6,6,2,['d'],['d'],Y,Y,['space'],Y,,,,,,,M,21,
4,5,65,8,8,2,['d'],['k'],N,Y,['space'],Y,,,,,,,M,21,
4,6,66,13,13,2,['k'],['k'],Y,N,None,Y,,,,,,,M,21,
4,7,67,5,5,2,['k'],['d'],N,Y,['d'],N,,,,,,,M,21,
4,8,68,12,12,2,['d'],['k'],N,N,['space'],N,,,,,,,M,21,
4,9,69,14,14,2,['k'],['k'],Y,N,None,Y,,,,,,,M,21,
4,10,70,4,4,2,['k'],['k'],Y,N,['space'],N,,,,,,,M,21,
4,11,71,1,1,2,['d'],['d'],Y,Y,['space'],Y,,,,,,,M,21,
4,12,72,8,8,2,['k'],['k'],Y,Y,['space'],Y,,,,,,,M,21,
4,13,73,9,9,2,['k'],['k'],Y,Y,['space'],Y,,,,,,,M,21,
4,14,74,2,2,2,['k'],['d'],N,N,None,Y,,,,,,,M,21,
5,0,75,5,5,2,['k'],['k'],Y,Y,None,N,,,,,,,M,21,
5,1,76,10,10,2,['k'],['d'],N,Y,['space'],Y,,,,,,,M,21,
5,2,77,6,6,2,['k'],['d'],N,N,None,Y,,,,,,,M,21,
5,3,78,3,3,2,['d'],['d'],Y,N,None,Y,,,,,,,M,21,
5,4,79,3,3,2,['k'],['d'],N,Y,['space'],Y,,,,,,,M,21,
5,5,80,6,6,2,['d'],['k'],N,Y,None,N,,,,,,,M,21,
5,6,81,0,0,2,['d'],['d'],Y,Y,['space'],Y,,,,,,,M,21,
5,7,82,4,4,2,['d'],['d'],Y,N,None,Y,,,,,,,M,21,
5,8,83,11,11,2,['k'],['k'],Y,Y,['space'],Y,,,,,,,M,21,
5,9,84,0,0,2,['k'],['d'],N,Y,None,N,,,,,,,M,21,
5,10,85,13,13,2,['d'],['d'],Y,Y,None,N,,,,,,,M,21,
5,11,86,0,0,2,['k'],['k'],Y,N,None,Y,,,,,,,M,21,
5,12,87,3,3,2,['k'],['k'],Y,N,['space'],N,,,,,,,M,21,
5,13,88,8,8,2,['k'],['k'],Y,N,None,Y,,,,,,,M,21,
5,14,89,1,1,2,['d'],['d'],Y,Y,None,N,,,,,,,M,21,
6,0,90,2,2,2,['k'],['k'],Y,N,None,Y,,,,,,,M,21,
6,1,91,2,2,2,['d'],['d'],Y,Y,['space'],Y,,,,,,,M,21,
6,2,92,6,6,2,['d'],['d'],Y,Y,['space'],Y,,,,,,,M,21,
6,3,93,3,3,2,['d'],['k'],N,Y,['k'],N,,,,,,,M,21,
6,4,94,3,3,2,['d'],['d'],Y,N,None,Y,,,,,,,M,21,
6,5,95,6,6,2,['k'],['k'],Y,N,['space'],N,,,,,,,M,21,
6,6,96,4,4,2,['d'],['d'],Y,N,None,Y,,,,,,,M,21,
6,7,97,14,14,2,['d'],['k'],N,N,None,Y,,,,,,,M,21,
6,8,98,13,13,2,['k'],['k'],Y,N,None,Y,,,,,,,M,21,
6,9,99,11,11,2,['k'],['k'],Y,N,None,Y,36,32,25,,,,M,21,
6,10,100,4,4,3,['d'],['d'],Y,,,,,,,,,,M,21,
6,11,101,6,6,3,['k'],['k'],Y,,,,,,,,,,M,21,
6,12,102,7,7,3,['d'],['d'],Y,Y,['space'],Y,,,,,,,M,21,
6,13,103,12,12,3,['d'],['k'],N,N,None,Y,,,,,,,M,21,
6,14,104,11,11,3,['d'],['d'],Y,N,None,Y,,,,,,,M,21,
7,0,105,11,11,3,['k'],['k'],Y,Y,None,N,,,,,,,M,21,
7,1,106,5,5,3,['d'],['k'],N,Y,None,N,,,,,,,M,21,
7,2,107,14,14,3,['k'],['k'],Y,Y,None,N,,,,,,,M,21,
7,3,108,9,9,3,['k'],['d'],N,Y,None,N,,,,,,,M,21,
7,4,109,9,9,3,['k'],['k'],Y,Y,None,N,,,,,,,M,21,
7,5,110,12,12,3,['d'],['d'],Y,Y,None,N,,,,,,,M,21,
7,6,111,6,6,3,['k'],['k'],Y,Y,None,N,,,,,,,M,21,
7,7,112,0,0,3,['k'],['k'],Y,Y,['space'],Y,,,,,,,M,21,
7,8,113,2,2,3,['d'],['d'],Y,N,None,Y,,,,,,,M,21,
7,9,114,0,0,3,['d'],['d'],Y,N,None,Y,,,,,,,M,21,
7,10,115,2,2,3,['d'],['d'],Y,N,None,Y,,,,,,,M,21,
7,11,116,13,13,3,['k'],['d'],N,Y,None,N,,,,,,,M,21,
7,12,117,12,12,3,['k'],['k'],Y,N,None,Y,,,,,,,M,21,
7,13,118,2,2,3,['d'],['d'],Y,N,['space'],N,,,,,,,M,21,
7,14,119,7,7,3,['k'],['k'],Y,N,None,Y,,,,,,,M,21,
8,0,120,12,12,3,['d'],['d'],Y,Y,['space'],Y,,,,,,,M,21,
8,1,121,4,4,3,['k'],['k'],Y,N,None,Y,,,,,,,M,21,
8,2,122,13,13,3,['k'],['k'],Y,N,None,Y,,,,,,,M,21,
8,3,123,1,1,3,['k'],['k'],Y,N,None,Y,,,,,,,M,21,
8,4,124,5,5,3,['k'],['d'],N,N,None,Y,,,,,,,M,21,
8,5,125,4,4,3,['k'],['k'],Y,N,None,Y,,,,,,,M,21,
8,6,126,10,10,3,['k'],['k'],Y,N,None,Y,,,,,,,M,21,
8,7,127,9,9,3,['d'],['d'],Y,Y,['space'],Y,,,,,,,M,21,
8,8,128,2,2,3,['k'],['k'],Y,N,None,Y,,,,,,,M,21,
8,9,129,14,14,3,['k'],['k'],Y,Y,None,N,,,,,,,M,21,
8,10,130,8,8,3,['k'],['d'],N,N,None,Y,,,,,,,M,21,
8,11,131,9,9,3,['k'],['k'],Y,Y,['space'],Y,,,,,,,M,21,
8,12,132,13,13,3,['k'],['k'],Y,N,None,Y,,,,,,,M,21,
8,13,133,2,2,3,['k'],['k'],Y,N,None,Y,,,,,,,M,21,
8,14,134,4,4,3,['d'],['k'],N,N,['d'],N,,,,,,,M,21,
9,0,135,5,5,3,['k'],['k'],Y,N,None,Y,,,,,,,M,21,
9,1,136,1,1,3,['k'],['k'],Y,Y,['space'],Y,,,,,,,M,21,
9,2,137,13,13,3,['d'],['d'],Y,N,['space'],N,,,,,,,M,21,
9,3,138,7,7,3,['k'],['k'],Y,N,None,Y,,,,,,,M,21,
9,4,139,8,8,3,['k'],['k'],Y,N,None,Y,,,,,,,M,21,
9,5,140,0,0,3,['k'],['k'],Y,Y,['space'],Y,,,,,,,M,21,
9,6,141,2,2,3,['k'],['k'],Y,Y,None,N,,,,,,,M,21,
9,7,142,9,9,3,['k'],['k'],Y,N,None,Y,,,,,,,M,21,
9,8,143,7,7,3,['k'],['k'],Y,Y,['space'],Y,,,,,,,M,21,
9,9,144,11,11,3,['d'],['d'],Y,N,None,Y,,,,,,,M,21,
9,10,145,3,3,3,['d'],['d'],Y,N,None,Y,,,,,,,M,21,
9,11,146,1,1,3,['k'],['k'],Y,N,['k'],N,,,,,,,M,21,
9,12,147,11,11,3,['k'],['k'],Y,N,None,Y,,,,,,,M,21,
9,13,148,3,3,3,['k'],['k'],Y,N,['space'],N,,,,,,,M,21,
9,14,149,2,2,3,['d'],['d'],Y,N,None,Y,43,33,18,,,,M,21,
10,0,150,10,10,4,['k'],['k'],Y,,,,,,,,,,M,21,
10,1,151,5,5,4,['d'],['d'],Y,,,,,,,,,,M,21,
10,2,152,12,12,4,['k'],['d'],N,Y,['space'],Y,,,,,,,M,21,
10,3,153,2,2,4,['k'],['k'],Y,N,['space'],N,,,,,,,M,21,
10,4,154,5,5,4,['k'],['k'],Y,Y,None,N,,,,,,,M,21,
10,5,155,6,6,4,['k'],['k'],Y,N,['space'],N,,,,,,,M,21,
10,6,156,6,6,4,['d'],['d'],Y,Y,['space'],Y,,,,,,,M,21,
10,7,157,6,6,4,['k'],['d'],N,N,None,Y,,,,,,,M,21,
10,8,158,10,10,4,['k'],['d'],N,N,None,Y,,,,,,,M,21,
10,9,159,4,4,4,['k'],['k'],Y,Y,None,N,,,,,,,M,21,
10,10,160,11,11,4,['d'],['k'],N,N,None,Y,,,,,,,M,21,
10,11,161,8,8,4,['d'],['d'],Y,N,['space'],N,,,,,,,M,21,
10,12,162,12,12,4,['k'],['k'],Y,Y,['space'],Y,,,,,,,M,21,
10,13,163,5,5,4,['k'],['k'],Y,N,None,Y,,,,,,,M,21,
10,14,164,1,1,4,['d'],['d'],Y,Y,['space'],Y,,,,,,,M,21,
11,0,165,12,12,4,['d'],['d'],Y,Y,['space'],Y,,,,,,,M,21,
11,1,166,5,5,4,['d'],['k'],N,N,['k'],N,,,,,,,M,21,
11,2,167,2,2,4,['d'],['d'],Y,N,['space'],N,,,,,,,M,21,
11,3,168,7,7,4,['k'],['k'],Y,Y,None,N,,,,,,,M,21,
11,4,169,1,1,4,['d'],['d'],Y,Y,['space'],Y,,,,,,,M,21,
11,5,170,8,8,4,['d'],['d'],Y,N,None,Y,,,,,,,M,21,
11,6,171,8,8,4,['k'],['d'],N,N,['space'],N,,,,,,,M,21,
11,7,172,7,7,4,['k'],['k'],Y,Y,None,N,,,,,,,M,21,
11,8,173,9,9,4,['k'],['k'],Y,N,None,Y,,,,,,,M,21,
11,9,174,12,12,4,['k'],['k'],Y,N,None,Y,,,,,,,M,21,
11,10,175,14,14,4,['k'],['k'],Y,N,None,Y,,,,,,,M,21,
11,11,176,0,0,4,['k'],['k'],Y,Y,['space'],Y,,,,,,,M,21,
11,12,177,9,9,4,['d'],['d'],Y,N,None,Y,,,,,,,M,21,
11,13,178,6,6,4,['d'],['d'],Y,Y,None,N,,,,,,,M,21,
11,14,179,12,12,4,['d'],['d'],Y,Y,None,N,,,,,,,M,21,
12,0,180,8,8,4,['d'],['k'],N,Y,None,N,,,,,,,M,21,
12,1,181,11,11,4,['k'],['k'],Y,Y,None,N,,,,,,,M,21,
12,2,182,3,3,4,['d'],['d'],Y,N,None,Y,,,,,,,M,21,
12,3,183,1,1,4,['d'],['d'],Y,N,None,Y,,,,,,,M,21,
12,4,184,3,3,4,['d'],['d'],Y,Y,None,N,,,,,,,M,21,
12,5,185,0,0,4,['d'],['d'],Y,N,['space'],N,,,,,,,M,21,
12,6,186,9,9,4,['k'],['k'],Y,N,['space'],N,,,,,,,M,21,
12,7,187,10,10,4,['k'],['k'],Y,Y,['space'],Y,,,,,,,M,21,
12,8,188,14,14,4,['k'],['k'],Y,Y,None,N,,,,,,,M,21,
12,9,189,7,7,4,['d'],['d'],Y,Y,None,N,,,,,,,M,21,
12,10,190,5,5,4,['d'],['d'],Y,Y,['space'],Y,,,,,,,M,21,
12,11,191,12,12,4,['d'],['d'],Y,Y,None,N,,,,,,,M,21,
12,12,192,9,9,4,['k'],['d'],N,Y,['space'],Y,,,,,,,M,21,
12,13,193,10,10,4,['d'],['d'],Y,N,None,Y,,,,,,,M,21,
12,14,194,13,13,4,['d'],['d'],Y,Y,['space'],Y,,,,,,,M,21,
13,0,195,2,2,4,['k'],['k'],Y,N,None,Y,,,,,,,M,21,
13,1,196,6,6,4,['k'],['k'],Y,Y,None,N,,,,,,,M,21,
13,2,197,10,10,4,['d'],['k'],N,N,None,Y,,,,,,,M,21,
13,3,198,5,5,4,['k'],['d'],N,N,None,Y,,,,,,,M,21,
13,4,199,10,10,4,['d'],['k'],N,Y,['space'],Y,39,27,25,,,,M,21,
13,5,200,3,3,5,['d'],['k'],N,,,,,,,,,,M,21,
13,6,201,9,9,5,['k'],['k'],Y,,,,,,,,,,M,21,
13,7,202,6,6,5,['d'],['d'],Y,Y,None,N,,,,,,,M,21,
13,8,203,0,0,5,['d'],['k'],N,Y,None,N,,,,,,,M,21,
13,9,204,8,8,5,['k'],['k'],Y,N,None,Y,,,,,,,M,21,
13,10,205,6,6,5,['d'],['d'],Y,Y,['space'],Y,,,,,,,M,21,
13,11,206,9,9,5,['d'],['d'],Y,N,['space'],N,,,,,,,M,21,
13,12,207,3,3,5,['k'],['k'],Y,N,['space'],N,,,,,,,M,21,
13,13,208,8,8,5,['d'],['k'],N,Y,['space'],Y,,,,,,,M,21,
13,14,209,9,9,5,['k'],['k'],Y,Y,None,N,,,,,,,M,21,
14,0,210,3,3,5,['k'],['k'],Y,N,['space'],N,,,,,,,M,21,
14,1,211,9,9,5,['k'],['k'],Y,N,None,Y,,,,,,,M,21,
14,2,212,8,8,5,['k'],['k'],Y,N,None,Y,,,,,,,M,21,
14,3,213,8,8,5,['k'],['k'],Y,Y,None,N,,,,,,,M,21,
14,4,214,11,11,5,['d'],['d'],Y,N,None,Y,,,,,,,M,21,
14,5,215,0,0,5,['k'],['k'],Y,Y,None,N,,,,,,,M,21,
14,6,216,9,9,5,['d'],['d'],Y,Y,None,N,,,,,,,M,21,
14,7,217,1,1,5,['k'],['d'],N,N,['space'],N,,,,,,,M,21,
14,8,218,9,9,5,['k'],['k'],Y,N,None,Y,,,,,,,M,21,
14,9,219,12,12,5,['d'],['d'],Y,Y,None,N,,,,,,,M,21,
14,10,220,12,12,5,['k'],['k'],Y,Y,['space'],Y,,,,,,,M,21,
14,11,221,5,5,5,['d'],['d'],Y,N,None,Y,,,,,,,M,21,
14,12,222,4,4,5,['d'],['d'],Y,Y,['space'],Y,,,,,,,M,21,
14,13,223,6,6,5,['d'],['d'],Y,Y,None,N,,,,,,,M,21,
14,14,224,1,1,5,['d'],['d'],Y,Y,['space'],Y,,,,,,,M,21,
15,0,225,1,1,5,['k'],['d'],N,N,None,Y,,,,,,,M,21,
15,1,226,3,3,5,['d'],['d'],Y,Y,['space'],Y,,,,,,,M,21,
15,2,227,10,10,5,['k'],['k'],Y,N,None,Y,,,,,,,M,21,
15,3,228,0,0,5,['k'],['k'],Y,Y,['space'],Y,,,,,,,M,21,
15,4,229,0,0,5,['k'],['k'],Y,Y,None,N,,,,,,,M,21,
15,5,230,1,1,5,['k'],['k'],Y,N,None,Y,,,,,,,M,21,
15,6,231,2,2,5,['k'],['k'],Y,N,None,Y,,,,,,,M,21,
15,7,232,3,3,5,['d'],['k'],N,N,['space'],N,,,,,,,M,21,
15,8,233,9,9,5,['d'],['d'],Y,N,None,Y,,,,,,,M,21,
15,9,234,3,3,5,['d'],['d'],Y,N,None,Y,,,,,,,M,21,
15,10,235,13,13,5,['k'],['k'],Y,N,['space'],N,,,,,,,M,21,
15,11,236,12,12,5,['d'],['d'],Y,N,None,Y,,,,,,,M,21,
15,12,237,3,3,5,['d'],['d'],Y,Y,['space'],Y,,,,,,,M,21,
15,13,238,11,11,5,['d'],['d'],Y,Y,None,N,,,,,,,M,21,
15,14,239,11,11,5,['k'],['k'],Y,Y,['space'],Y,,,,,,,M,21,
16,0,240,7,7,5,['k'],['d'],N,Y,['space'],Y,,,,,,,M,21,
16,1,241,3,3,5,['k'],['k'],Y,Y,None,N,,,,,,,M,21,
16,2,242,2,2,5,['k'],['k'],Y,Y,['space'],Y,,,,,,,M,21,
16,3,243,6,6,5,['d'],['d'],Y,Y,['space'],Y,,,,,,,M,21,
16,4,244,0,0,5,['d'],['d'],Y,N,None,Y,,,,,,,M,21,
16,5,245,5,5,5,['d'],['d'],Y,N,None,Y,,,,,,,M,21,
16,6,246,14,14,5,['d'],['k'],N,N,['space'],N,,,,,,,M,21,
16,7,247,11,11,5,['k'],['d'],N,Y,None,N,,,,,,,M,21,
16,8,248,7,7,5,['k'],['k'],Y,N,['space'],N,,,,,,,M,21,
16,9,249,7,7,5,['d'],['d'],Y,N,['space'],N,41,27,24,,,,M,21,
16,10,250,6,6,6,['k'],['k'],Y,,,,,,,,,,M,21,
16,11,251,13,13,6,['k'],['k'],Y,,,,,,,,,,M,21,
16,12,252,14,14,6,['k'],['k'],Y,N,None,Y,,,,,,,M,21,
16,13,253,7,7,6,['k'],['k'],Y,N,['space'],N,,,,,,,M,21,
16,14,254,11,11,6,['d'],['d'],Y,N,None,Y,,,,,,,M,21,
17,0,255,11,11,6,['d'],['d'],Y,N,None,Y,,,,,,,M,21,
17,1,256,11,11,6,['k'],['d'],N,N,None,Y,,,,,,,M,21,
17,2,257,10,10,6,['k'],['k'],Y,Y,['space'],Y,,,,,,,M,21,
17,3,258,5,5,6,['k'],['k'],Y,Y,['space'],Y,,,,,,,M,21,
17,4,259,6,6,6,['k'],['d'],N,Y,None,N,,,,,,,M,21,
17,5,260,14,14,6,['k'],['d'],N,N,['space'],N,,,,,,,M,21,
17,6,261,1,1,6,['d'],['k'],N,Y,None,N,,,,,,,M,21,
17,7,262,5,5,6,['d'],['d'],Y,Y,['space'],Y,,,,,,,M,21,
17,8,263,14,14,6,['d'],['d'],Y,N,['space'],N,,,,,,,M,21,
17,9,264,2,2,6,['d'],['d'],Y,Y,None,N,,,,,,,M,21,
17,10,265,11,11,6,['d'],['d'],Y,N,['d'],N,,,,,,,M,21,
17,11,266,14,14,6,['d'],['d'],Y,Y,['space'],Y,,,,,,,M,21,
17,12,267,4,4,6,['k'],['k'],Y,N,['space'],N,,,,,,,M,21,
17,13,268,5,5,6,['k'],['k'],Y,Y,['space'],Y,,,,,,,M,21,
17,14,269,13,13,6,['d'],['d'],Y,Y,None,N,,,,,,,M,21,
18,0,270,7,7,6,['d'],['d'],Y,N,None,Y,,,,,,,M,21,
18,1,271,8,8,6,['d'],['d'],Y,Y,['space'],Y,,,,,,,M,21,
18,2,272,9,9,6,['k'],['k'],Y,Y,None,N,,,,,,,M,21,
18,3,273,12,12,6,['d'],['d'],Y,Y,['space'],Y,,,,,,,M,21,
18,4,274,7,7,6,['d'],['k'],N,N,None,Y,,,,,,,M,21,
18,5,275,11,11,6,['k'],['d'],N,Y,['space'],Y,,,,,,,M,21,
18,6,276,12,12,6,['k'],['k'],Y,N,None,Y,,,,,,,M,21,
18,7,277,1,1,6,['d'],['d'],Y,N,None,Y,,,,,,,M,21,
18,8,278,0,0,6,['k'],['k'],Y,N,None,Y,,,,,,,M,21,
18,9,279,12,12,6,['d'],['d'],Y,Y,None,N,,,,,,,M,21,
18,10,280,14,14,6,['k'],['k'],Y,N,None,Y,,,,,,,M,21,
18,11,281,14,14,6,['k'],['d'],N,N,['space'],N,,,,,,,M,21,
18,12,282,10,10,6,['d'],['d'],Y,Y,['space'],Y,,,,,,,M,21,
18,13,283,11,11,6,['k'],['k'],Y,Y,['space'],Y,,,,,,,M,21,
18,14,284,0,0,6,['k'],['d'],N,Y,['space'],Y,,,,,,,M,21,
19,0,285,0,0,6,['k'],['k'],Y,Y,['space'],Y,,,,,,,M,21,
19,1,286,8,8,6,['k'],['k'],Y,Y,['space'],Y,,,,,,,M,21,
19,2,287,11,11,6,['k'],['k'],Y,Y,['space'],Y,,,,,,,M,21,
19,3,288,10,10,6,['k'],['k'],Y,N,['space'],N,,,,,,,M,21,
19,4,289,9,9,6,['d'],['d'],Y,N,None,Y,,,,,,,M,21,
19,5,290,9,9,6,['k'],['k'],Y,N,None,Y,,,,,,,M,21,
19,6,291,5,5,6,['d'],['d'],Y,N,None,Y,,,,,,,M,21,
19,7,292,14,14,6,['d'],['d'],Y,Y,['space'],Y,,,,,,,M,21,
19,8,293,12,12,6,['k'],['k'],Y,N,None,Y,,,,,,,M,21,
19,9,294,11,11,6,['k'],['k'],Y,Y,['space'],Y,,,,,,,M,21,
19,10,295,3,3,6,['k'],['d'],N,N,None,Y,,,,,,,M,21,
19,11,296,10,10,6,['d'],['d'],Y,Y,['space'],Y,,,,,,,M,21,
19,12,297,8,8,6,['k'],['k'],Y,Y,['k'],N,,,,,,,M,21,
19,13,298,5,5,6,['d'],['d'],Y,N,None,Y,,,,,,,M,21,
19,14,299,7,7,6,['d'],['d'],Y,N,None,Y,41,34,24,,,,M,21,
20,0,300,12,12,7,['k'],['d'],N,,,,,,,,,,M,21,
20,1,301,9,9,7,['d'],['d'],Y,,,,,,,,,,M,21,
20,2,302,0,0,7,['d'],['d'],Y,N,['space'],N,,,,,,,M,21,
20,3,303,4,4,7,['k'],['k'],Y,N,None,Y,,,,,,,M,21,
20,4,304,10,10,7,['d'],['d'],Y,Y,None,N,,,,,,,M,21,
20,5,305,1,1,7,['d'],['d'],Y,N,None,Y,,,,,,,M,21,
20,6,306,14,14,7,['k'],['k'],Y,Y,None,N,,,,,,,M,21,
20,7,307,12,12,7,['d'],['d'],Y,N,None,Y,,,,,,,M,21,
20,8,308,8,8,7,['k'],['k'],Y,Y,None,N,,,,,,,M,21,
20,9,309,13,13,7,['k'],['d'],N,Y,None,N,,,,,,,M,21,
20,10,310,10,10,7,['k'],['k'],Y,N,None,Y,,,,,,,M,21,
20,11,311,12,12,7,['d'],['k'],N,N,['space'],N,,,,,,,M,21,
20,12,312,13,13,7,['k'],['k'],Y,N,None,Y,,,,,,,M,21,
20,13,313,3,3,7,['d'],['k'],N,N,None,Y,,,,,,,M,21,
20,14,314,0,0,7,['d'],['k'],N,Y,['space'],Y,,,,,,,M,21,
21,0,315,0,0,7,['k'],['k'],Y,N,None,Y,,,,,,,M,21,
21,1,316,6,6,7,['k'],['k'],Y,Y,['space'],Y,,,,,,,M,21,
21,2,317,8,8,7,['k'],['k'],Y,Y,None,N,,,,,,,M,21,
21,3,318,4,4,7,['d'],['d'],Y,N,None,Y,,,,,,,M,21,
21,4,319,9,9,7,['k'],['k'],Y,Y,None,N,,,,,,,M,21,
21,5,320,7,7,7,['k'],['d'],N,N,None,Y,,,,,,,M,21,
21,6,321,3,3,7,['k'],['k'],Y,N,None,Y,,,,,,,M,21,
21,7,322,14,14,7,['d'],['d'],Y,N,None,Y,,,,,,,M,21,
21,8,323,1,1,7,['d'],['k'],N,N,None,Y,,,,,,,M,21,
21,9,324,0,0,7,['k'],['k'],Y,Y,None,N,,,,,,,M,21,
21,10,325,0,0,7,['k'],['d'],N,N,['space'],N,,,,,,,M,21,
21,11,326,12,12,7,['k'],['d'],N,N,None,Y,,,,,,,M,21,
21,12,327,9,9,7,['k'],['k'],Y,Y,['space'],Y,,,,,,,M,21,
21,13,328,4,4,7,['k'],['k'],Y,Y,['space'],Y,,,,,,,M,21,
21,14,329,13,13,7,['d'],['k'],N,N,None,Y,,,,,,,M,21,
22,0,330,13,13,7,['d'],['d'],Y,N,None,Y,,,,,,,M,21,
22,1,331,10,10,7,['k'],['k'],Y,N,None,Y,,,,,,,M,21,
22,2,332,4,4,7,['d'],['d'],Y,N,None,Y,,,,,,,M,21,
22,3,333,10,10,7,['k'],['d'],N,N,['space'],N,,,,,,,M,21,
22,4,334,8,8,7,['k'],['k'],Y,Y,None,N,,,,,,,M,21,
22,5,335,2,2,7,['d'],['k'],N,N,None,Y,,,,,,,M,21,
22,6,336,13,13,7,['k'],['k'],Y,Y,['space'],Y,,,,,,,M,21,
22,7,337,5,5,7,['k'],['k'],Y,Y,['space'],Y,,,,,,,M,21,
22,8,338,10,10,7,['k'],['k'],Y,Y,['space'],Y,,,,,,,M,21,
22,9,339,12,12,7,['d'],['d'],Y,Y,['space'],Y,,,,,,,M,21,
22,10,340,4,4,7,['d'],['d'],Y,Y,['space'],Y,,,,,,,M,21,
22,11,341,2,2,7,['d'],['d'],Y,Y,['space'],Y,,,,,,,M,21,
22,12,342,13,13,7,['d'],['k'],N,N,None,Y,,,,,,,M,21,
22,13,343,10,10,7,['d'],['d'],Y,N,None,Y,,,,,,,M,21,
22,14,344,5,5,7,['d'],['d'],Y,N,None,Y,,,,,,,M,21,
23,0,345,9,9,7,['k'],['k'],Y,Y,None,N,,,,,,,M,21,
23,1,346,5,5,7,['d'],['d'],Y,N,None,Y,,,,,,,M,21,
23,2,347,13,13,7,['k'],['k'],Y,N,None,Y,,,,,,,M,21,
23,3,348,1,1,7,['k'],['k'],Y,N,None,Y,,,,,,,M,21,
23,4,349,5,5,7,['d'],['d'],Y,N,None,Y,37,35,19,,,,M,21,
23,5,350,7,7,8,['d'],['d'],Y,,,,,,,,,,M,21,
23,6,351,0,0,8,['k'],['k'],Y,,,,,,,,,,M,21,
23,7,352,0,0,8,['d'],['d'],Y,Y,None,N,,,,,,,M,21,
23,8,353,1,1,8,['k'],['k'],Y,Y,None,N,,,,,,,M,21,
23,9,354,10,10,8,['k'],['k'],Y,Y,None,N,,,,,,,M,21,
23,10,355,0,0,8,['d'],['d'],Y,Y,None,N,,,,,,,M,21,
23,11,356,8,8,8,['d'],['k'],N,Y,None,N,,,,,,,M,21,
23,12,357,11,11,8,['d'],['d'],Y,N,None,Y,,,,,,,M,21,
23,13,358,9,9,8,['d'],['d'],Y,Y,None,N,,,,,,,M,21,
23,14,359,3,3,8,['k'],['k'],Y,Y,['space'],Y,,,,,,,M,21,
24,0,360,3,3,8,['k'],['k'],Y,Y,None,N,,,,,,,M,21,
24,1,361,9,9,8,['k'],['d'],N,N,None,Y,,,,,,,M,21,
24,2,362,14,14,8,['k'],['d'],N,Y,['space'],Y,,,,,,,M,21,
24,3,363,12,12,8,['k'],['k'],Y,Y,['space'],Y,,,,,,,M,21,
24,4,364,5,5,8,['k'],['k'],Y,Y,['space'],Y,,,,,,,M,21,
24,5,365,2,2,8,['d'],['d'],Y,N,None,Y,,,,,,,M,21,
24,6,366,8,8,8,['d'],['d'],Y,Y,['space'],Y,,,,,,,M,21,
24,7,367,4,4,8,['d'],['d'],Y,N,None,Y,,,,,,,M,21,
24,8,368,1,1,8,['k'],['k'],Y,Y,None,N,,,,,,,M,21,
24,9,369,4,4,8,['d'],['d'],Y,N,['space'],N,,,,,,,M,21,
24,10,370,2,2,8,['d'],['d'],Y,N,['space'],N,,,,,,,M,21,
24,11,371,4,4,8,['k'],['k'],Y,Y,['space'],Y,,,,,,,M,21,
24,12,372,5,5,8,['d'],['d'],Y,Y,['space'],Y,,,,,,,M,21,
24,13,373,7,7,8,['d'],['d'],Y,N,['space'],N,,,,,,,M,21,
24,14,374,1,1,8,['d'],['d'],Y,Y,None,N,,,,,,,M,21,
25,0,375,10,10,8,['d'],['d'],Y,N,None,Y,,,,,,,M,21,
25,1,376,6,6,8,['k'],['k'],Y,Y,['space'],Y,,,,,,,M,21,
25,2,377,10,10,8,['k'],['d'],N,N,None,Y,,,,,,,M,21,
25,3,378,1,1,8,['d'],['d'],Y,Y,['space'],Y,,,,,,,M,21,
25,4,379,3,3,8,['d'],['d'],Y,Y,None,N,,,,,,,M,21,
25,5,380,8,8,8,['d'],['d'],Y,Y,None,N,,,,,,,M,21,
25,6,381,0,0,8,['d'],['d'],Y,N,['space'],N,,,,,,,M,21,
25,7,382,12,12,8,['k'],['k'],Y,Y,['space'],Y,,,,,,,M,21,
25,8,383,3,3,8,['d'],['d'],Y,Y,None,N,,,,,,,M,21,
25,9,384,8,8,8,['k'],['d'],N,Y,['space'],Y,,,,,,,M,21,
25,10,385,7,7,8,['k'],['k'],Y,N,['space'],N,,,,,,,M,21,
25,11,386,11,11,8,['k'],['d'],N,N,None,Y,,,,,,,M,21,
25,12,387,8,8,8,['d'],['d'],Y,Y,['space'],Y,,,,,,,M,21,
25,13,388,1,1,8,['d'],['k'],N,N,None,Y,,,,,,,M,21,
25,14,389,11,11,8,['d'],['d'],Y,N,['space'],N,,,,,,,M,21,
26,0,390,5,5,8,['d'],['d'],Y,N,['space'],N,,,,,,,M,21,
26,1,391,11,11,8,['d'],['d'],Y,N,['space'],N,,,,,,,M,21,
26,2,392,6,6,8,['k'],['k'],Y,N,None,Y,,,,,,,M,21,
26,3,393,2,2,8,['d'],['d'],Y,Y,['space'],Y,,,,,,,M,21,
26,4,394,12,12,8,['k'],['k'],Y,N,['space'],N,,,,,,,M,21,
26,5,395,3,3,8,['k'],['d'],N,N,None,Y,,,,,,,M,21,
26,6,396,14,14,8,['k'],['k'],Y,N,['space'],N,,,,,,,M,21,
26,7,397,14,14,8,['d'],['k'],N,N,['space'],N,,,,,,,M,21,
26,8,398,2,2,8,['d'],['k'],N,N,['space'],N,,,,,,,M,21,
26,9,399,6,6,8,['k'],['k'],Y,N,None,Y,40,24,25,,,,M,21,
26,10,400,0,0,9,['k'],['k'],Y,,,,,,,,,,M,21,
26,11,401,14,14,9,['d'],['d'],Y,,,,,,,,,,M,21,
26,12,402,14,14,9,['k'],['k'],Y,N,['space'],N,,,,,,,M,21,
26,13,403,9,9,9,['k'],['k'],Y,Y,['space'],Y,,,,,,,M,21,
26,14,404,13,13,9,['k'],['k'],Y,N,None,Y,,,,,,,M,21,
27,0,405,14,14,9,['d'],['d'],Y,N,None,Y,,,,,,,M,21,
27,1,406,7,7,9,['k'],['k'],Y,N,['space'],N,,,,,,,M,21,
27,2,407,14,14,9,['k'],['k'],Y,Y,['space'],Y,,,,,,,M,21,
27,3,408,7,7,9,['k'],['k'],Y,Y,['space'],Y,,,,,,,M,21,
27,4,409,11,11,9,['k'],['k'],Y,Y,['space'],Y,,,,,,,M,21,
27,5,410,1,1,9,['k'],['d'],N,Y,['space'],Y,,,,,,,M,21,
27,6,411,2,2,9,['k'],['k'],Y,Y,None,N,,,,,,,M,21,
27,7,412,2,2,9,['k'],['k'],Y,Y,['space'],Y,,,,,,,M,21,
27,8,413,9,9,9,['d'],['k'],N,N,None,Y,,,,,,,M,21,
27,9,414,3,3,9,['d'],['d'],Y,Y,['space'],Y,,,,,,,M,21,
27,10,415,10,10,9,['k'],['d'],N,N,None,Y,,,,,,,M,21,
27,11,416,6,6,9,['d'],['d'],Y,Y,None,N,,,,,,,M,21,
27,12,417,14,14,9,['k'],['k'],Y,N,None,Y,,,,,,,M,21,
27,13,418,14,14,9,['k'],['k'],Y,Y,None,N,,,,,,,M,21,
27,14,419,0,0,9,['d'],['d'],Y,Y,['space'],Y,,,,,,,M,21,
28,0,420,4,4,9,['d'],['d'],Y,Y,['space'],Y,,,,,,,M,21,
28,1,421,3,3,9,['d'],['d'],Y,Y,None,N,,,,,,,M,21,
28,2,422,1,1,9,['d'],['d'],Y,N,None,Y,,,,,,,M,21,
28,3,423,10,10,9,['k'],['d'],N,N,None,Y,,,,,,,M,21,
28,4,424,4,4,9,['k'],['k'],Y,N,None,Y,,,,,,,M,21,
28,5,425,12,12,9,['k'],['k'],Y,N,None,Y,,,,,,,M,21,
28,6,426,7,7,9,['d'],['d'],Y,N,None,Y,,,,,,,M,21,
28,7,427,13,13,9,['k'],['d'],N,N,None,Y,,,,,,,M,21,
28,8,428,11,11,9,['d'],['d'],Y,Y,None,N,,,,,,,M,21,
28,9,429,14,14,9,['k'],['d'],N,Y,None,N,,,,,,,M,21,
28,10,430,0,0,9,['k'],['k'],Y,N,None,Y,,,,,,,M,21,
28,11,431,7,7,9,['d'],['d'],Y,Y,None,N,,,,,,,M,21,
28,12,432,9,9,9,['d'],['d'],Y,Y,None,N,,,,,,,M,21,
28,13,433,5,5,9,['d'],['d'],Y,Y,['space'],Y,,,,,,,M,21,
28,14,434,14,14,9,['d'],['d'],Y,N,None,Y,,,,,,,M,21,
29,0,435,13,13,9,['k'],['d'],N,Y,['space'],Y,,,,,,,M,21,
29,1,436,4,4,9,['d'],['d'],Y,N,None,Y,,,,,,,M,21,
29,2,437,13,13,9,['k'],['k'],Y,N,None,Y,,,,,,,M,21,
29,3,438,4,4,9,['k'],['k'],Y,N,None,Y,,,,,,,M,21,
29,4,439,9,9,9,['d'],['d'],Y,Y,None,N,,,,,,,M,21,
29,5,440,13,13,9,['d'],['d'],Y,N,None,Y,,,,,,,M,21,
29,6,441,13,13,9,['d'],['k'],N,Y,['space'],Y,,,,,,,M,21,
29,7,442,5,5,9,['k'],['k'],Y,Y,None,N,,,,,,,M,21,
29,8,443,11,11,9,['k'],['k'],Y,N,None,Y,,,,,,,M,21,
29,9,444,12,12,9,['k'],['k'],Y,Y,None,N,,,,,,,M,21,
29,10,445,4,4,9,['k'],['k'],Y,N,['space'],N,,,,,,,M,21,
29,11,446,9,9,9,['d'],['d'],Y,N,None,Y,,,,,,,M,21,
29,12,447,1,1,9,['k'],['k'],Y,Y,['space'],Y,,,,,,,M,21,
29,13,448,1,1,9,['d'],['d'],Y,N,None,Y,,,,,,,M,21,
29,14,449,4,4,9,['d'],['d'],Y,Y,['space'],Y,42,34,25,,,,M,21,
30,0,450,3,3,10,['k'],['k'],Y,,,,,,,,,,M,21,
30,1,451,11,11,10,['k'],['k'],Y,,,,,,,,,,M,21,
30,2,452,7,7,10,['d'],['d'],Y,N,None,Y,,,,,,,M,21,
30,3,453,8,8,10,['d'],['d'],Y,N,None,Y,,,,,,,M,21,
30,4,454,4,4,10,['d'],['d'],Y,Y,['space'],Y,,,,,,,M,21,
30,5,455,0,0,10,['d'],['d'],Y,N,None,Y,,,,,,,M,21,
30,6,456,1,1,10,['k'],['d'],N,Y,None,N,,,,,,,M,21,
30,7,457,5,5,10,['k'],['k'],Y,Y,None,N,,,,,,,M,21,
30,8,458,8,8,10,['d'],['d'],Y,Y,None,N,,,,,,,M,21,
30,9,459,13,13,10,['k'],['k'],Y,N,None,Y,,,,,,,M,21,
30,10,460,8,8,10,['k'],['k'],Y,N,None,Y,,,,,,,M,21,
30,11,461,9,9,10,['k'],['k'],Y,Y,['space'],Y,,,,,,,M,21,
30,12,462,13,13,10,['k'],['k'],Y,N,['space'],N,,,,,,,M,21,
30,13,463,6,6,10,['k'],['k'],Y,Y,None,N,,,,,,,M,21,
30,14,464,3,3,10,"['d', 'k']",['d'],N,N,['space'],N,,,,,,,M,21,
31,0,465,8,8,10,['d'],['d'],Y,Y,['space'],Y,,,,,,,M,21,
31,1,466,3,3,10,['d'],['d'],Y,Y,['k'],N,,,,,,,M,21,
31,2,467,6,6,10,['k'],['d'],N,N,None,Y,,,,,,,M,21,
31,3,468,2,2,10,['d'],['d'],Y,Y,None,N,,,,,,,M,21,
31,4,469,9,9,10,['d'],['d'],Y,N,None,Y,,,,,,,M,21,
31,5,470,10,10,10,['k'],['k'],Y,Y,None,N,,,,,,,M,21,
31,6,471,7,7,10,['k'],['k'],Y,Y,None,N,,,,,,,M,21,
31,7,472,1,1,10,['d'],['d'],Y,N,None,Y,,,,,,,M,21,
31,8,473,3,3,10,['d'],['d'],Y,Y,None,N,,,,,,,M,21,
31,9,474,7,7,10,['d'],['d'],Y,Y,None,N,,,,,,,M,21,
31,10,475,14,14,10,['d'],['d'],Y,Y,None,N,,,,,,,M,21,
31,11,476,10,10,10,['d'],['d'],Y,Y,['space'],Y,,,,,,,M,21,
31,12,477,2,2,10,['d'],['d'],Y,Y,['space'],Y,,,,,,,M,21,
31,13,478,14,14,10,['k'],['k'],Y,N,None,Y,,,,,,,M,21,
31,14,479,13,13,10,['k'],['k'],Y,Y,['space'],Y,,,,,,,M,21,
32,0,480,5,5,10,['d'],['d'],Y,Y,['space'],Y,,,,,,,M,21,
32,1,481,7,7,10,['d'],['d'],Y,Y,['space'],Y,,,,,,,M,21,
32,2,482,7,7,10,['k'],['k'],Y,N,None,Y,,,,,,,M,21,
32,3,483,14,14,10,['k'],['k'],Y,N,['space'],N,,,,,,,M,21,
32,4,484,11,11,10,['k'],['k'],Y,N,None,Y,,,,,,,M,21,
32,5,485,6,6,10,['d'],['d'],Y,N,['space'],N,,,,,,,M,21,
32,6,486,13,13,10,['k'],['d'],N,Y,None,N,,,,,,,M,21,
32,7,487,11,11,10,['d'],['d'],Y,N,None,Y,,,,,,,M,21,
32,8,488,0,0,10,['k'],['k'],Y,Y,None,N,,,,,,,M,21,
32,9,489,7,7,10,['d'],['k'],N,Y,None,N,,,,,,,M,21,
32,10,490,5,5,10,['k'],['k'],Y,N,None,Y,,,,,,,M,21,
32,11,491,1,1,10,['d'],['d'],Y,N,None,Y,,,,,,,M,21,
32,12,492,1,1,10,['d'],['d'],Y,N,['space'],N,,,,,,,M,21,
32,13,493,8,8,10,['k'],['k'],Y,N,None,Y,,,,,,,M,21,
32,14,494,7,7,10,['k'],['k'],Y,N,None,Y,,,,,,,M,21,
33,0,495,12,12,10,['d'],['d'],Y,Y,['space'],Y,,,,,,,M,21,
33,1,496,2,2,10,['d'],['d'],Y,Y,None,N,,,,,,,M,21,
33,2,497,4,4,10,['k'],['d'],N,N,None,Y,,,,,,,M,21,
33,3,498,6,6,10,['k'],['k'],Y,N,None,Y,,,,,,,M,21,
33,4,499,7,7,10,['d'],['d'],Y,N,None,Y,44,28,24,,,,M,21,
33,5,500,7,7,11,None,,Timed out,,,,,,,Y,Y,Y,M,21,
33,6,501,11,11,11,['d'],['k'],Y,,,,,,,,Y,Y,M,21,
33,7,502,9,9,11,['k'],['d'],Y,Y,['space'],Y,,,,,Y,Y,M,21,
33,8,503,6,6,11,['d'],['d'],N,N,['space'],N,,,,,Y,Y,M,21,
33,9,504,11,11,11,['k'],['d'],Y,Y,['space'],Y,,,,,Y,Y,M,21,
33,10,505,11,11,11,['d'],['k'],Y,N,None,Y,,,,,Y,Y,M,21,
33,11,506,7,7,11,['k'],['k'],N,Y,None,N,,,,,Y,Y,M,21,
33,12,507,6,6,11,['k'],['d'],Y,Y,['space'],Y,,,,,Y,Y,M,21,
33,13,508,2,2,11,['d'],['k'],Y,N,None,Y,,,,,Y,Y,M,21,
33,14,509,3,3,11,['k'],['k'],N,Y,None,N,,,,,Y,Y,M,21,
34,0,510,6,6,11,['k'],['k'],N,Y,['space'],Y,,,,,Y,Y,M,21,
34,1,511,5,5,11,['d'],['k'],Y,N,None,Y,,,,,Y,Y,M,21,
34,2,512,11,11,11,['d'],['k'],Y,N,None,Y,,,,,Y,Y,M,21,
34,3,513,0,0,11,['d'],['d'],N,Y,None,N,,,,,Y,Y,M,21,
34,4,514,1,1,11,['d'],['k'],Y,Y,None,N,,,,,Y,Y,M,21,
34,5,515,13,13,11,['d'],['d'],N,N,['space'],N,,,,,Y,Y,M,21,
34,6,516,10,10,11,['d'],['k'],Y,N,None,Y,,,,,Y,Y,M,21,
34,7,517,8,8,11,['d'],['d'],N,N,['space'],N,,,,,Y,Y,M,21,
34,8,518,5,5,11,['d'],['k'],Y,Y,['space'],Y,,,,,Y,Y,M,21,
34,9,519,14,14,11,['k'],['k'],N,N,None,Y,,,,,Y,Y,M,21,
34,10,520,2,2,11,['k'],['d'],Y,Y,['space'],Y,,,,,Y,Y,M,21,
34,11,521,12,12,11,['d'],['k'],Y,Y,['space'],Y,,,,,Y,Y,M,21,
34,12,522,5,5,11,['d'],['k'],Y,N,None,Y,,,,,Y,Y,M,21,
34,13,523,8,8,11,['d'],['k'],Y,Y,None,N,,,,,Y,Y,M,21,
34,14,524,6,6,11,['d'],['d'],N,Y,['space'],Y,,,,,Y,Y,M,21,
35,0,525,13,13,11,['d'],['k'],Y,Y,None,N,,,,,Y,Y,M,21,
35,1,526,5,5,11,['d'],['k'],Y,Y,None,N,,,,,Y,Y,M,21,
35,2,527,13,13,11,['d'],['k'],Y,Y,['space'],Y,,,,,Y,Y,M,21,
35,3,528,9,9,11,['d'],['k'],Y,N,['space'],N,,,,,Y,Y,M,21,
35,4,529,12,12,11,['d'],['d'],N,N,None,Y,,,,,Y,Y,M,21,
35,5,530,1,1,11,None,,Timed out,Y,None,N,,,,,Y,Y,M,21,
35,6,531,4,4,11,['k'],['d'],Y,N,['d'],N,,,,,Y,Y,M,21,
35,7,532,0,0,11,['d'],['k'],Y,Y,None,N,,,,,Y,Y,M,21,
35,8,533,8,8,11,['k'],['d'],Y,N,['space'],N,,,,,Y,Y,M,21,
35,9,534,10,10,11,['d'],['k'],Y,N,None,Y,,,,,Y,Y,M,21,
35,10,535,14,14,11,['k'],['d'],Y,Y,None,N,,,,,Y,Y,M,21,
35,11,536,6,6,11,['k'],['d'],Y,N,None,Y,,,,,Y,Y,M,21,
35,12,537,14,14,11,['k'],['d'],Y,Y,None,N,,,,,Y,Y,M,21,
35,13,538,12,12,11,['k'],['d'],Y,N,None,Y,,,,,Y,Y,M,21,
35,14,539,0,0,11,['d'],['k'],Y,Y,None,N,,,,,Y,Y,M,21,
36,0,540,6,6,11,['k'],['d'],Y,Y,None,N,,,,,Y,Y,M,21,
36,1,541,3,3,11,['k'],['d'],Y,Y,['space'],Y,,,,,Y,Y,M,21,
36,2,542,7,7,11,None,,Timed out,N,['space'],N,,,,,Y,Y,M,21,
36,3,543,2,2,11,['d'],['k'],Y,Y,['space'],Y,,,,,Y,Y,M,21,
36,4,544,9,9,11,['k'],['d'],Y,N,['space'],N,,,,,Y,Y,M,21,
36,5,545,4,4,11,['d'],['k'],Y,Y,None,N,,,,,Y,Y,M,21,
36,6,546,0,0,11,['d'],['k'],Y,N,None,Y,,,,,Y,Y,M,21,
36,7,547,10,10,11,['k'],['d'],Y,N,None,Y,,,,,Y,Y,M,21,
36,8,548,6,6,11,None,,Timed out,N,None,Y,,,,,Y,Y,M,21,
36,9,549,0,0,11,['k'],['d'],Y,N,None,Y,36,26,25,,Y,Y,M,21,
36,10,550,1,1,12,['d'],['k'],Y,,,,,,,,Y,Y,M,21,
36,11,551,10,10,12,['d'],['d'],N,,,,,,,,Y,Y,M,21,
36,12,552,9,9,12,None,,Timed out,N,None,Y,,,,,Y,Y,M,21,
36,13,553,13,13,12,['k'],['d'],Y,Y,None,N,,,,,Y,Y,M,21,
36,14,554,6,6,12,['d'],['k'],Y,N,None,Y,,,,,Y,Y,M,21,
37,0,555,2,2,12,['d'],['k'],Y,Y,['space'],Y,,,,,Y,Y,M,21,
37,1,556,7,7,12,['d'],['k'],Y,Y,['space'],Y,,,,,Y,Y,M,21,
37,2,557,2,2,12,['d'],['k'],Y,N,None,Y,,,,,Y,Y,M,21,
37,3,558,5,5,12,['k'],['d'],Y,Y,['space'],Y,,,,,Y,Y,M,21,
37,4,559,5,5,12,['k'],['d'],Y,Y,['space'],Y,,,,,Y,Y,M,21,
37,5,560,7,7,12,['d'],['k'],Y,Y,['space'],Y,,,,,Y,Y,M,21,
37,6,561,5,5,12,['k'],['d'],Y,Y,['space'],Y,,,,,Y,Y,M,21,
37,7,562,10,10,12,['k'],['d'],Y,Y,['space'],Y,,,,,Y,Y,M,21,
37,8,563,0,0,12,['d'],['d'],N,Y,['space'],Y,,,,,Y,Y,M,21,
37,9,564,14,14,12,['k'],['k'],N,Y,['space'],Y,,,,,Y,Y,M,21,
37,10,565,10,10,12,['k'],['k'],N,N,None,Y,,,,,Y,Y,M,21,
37,11,566,1,1,12,['d'],['k'],Y,N,None,Y,,,,,Y,Y,M,21,
37,12,567,12,12,12,['k'],['d'],Y,Y,None,N,,,,,Y,Y,M,21,
37,13,568,8,8,12,['k'],['d'],Y,N,None,Y,,,,,Y,Y,M,21,
37,14,569,11,11,12,None,,Timed out,N,None,Y,,,,,Y,Y,M,21,
38,0,570,0,0,12,['d'],['d'],N,Y,['space'],Y,,,,,Y,Y,M,21,
38,1,571,10,10,12,['d'],['k'],Y,N,['k'],N,,,,,Y,Y,M,21,
38,2,572,7,7,12,['d'],['k'],Y,N,['space'],N,,,,,Y,Y,M,21,
38,3,573,4,4,12,['d'],['k'],Y,Y,None,N,,,,,Y,Y,M,21,
38,4,574,0,0,12,['k'],['d'],Y,Y,['space'],Y,,,,,Y,Y,M,21,
38,5,575,2,2,12,['d'],['d'],N,Y,['space'],Y,,,,,Y,Y,M,21,
38,6,576,8,8,12,['d'],['k'],Y,N,None,Y,,,,,Y,Y,M,21,
38,7,577,9,9,12,['k'],['d'],Y,Y,None,N,,,,,Y,Y,M,21,
38,8,578,11,11,12,['k'],['d'],Y,Y,['space'],Y,,,,,Y,Y,M,21,
38,9,579,13,13,12,['k'],['d'],Y,N,['space'],N,,,,,Y,Y,M,21,
38,10,580,11,11,12,None,,Timed out,Y,['space'],Y,,,,,Y,Y,M,21,
38,11,581,10,10,12,['k'],['d'],Y,Y,['space'],Y,,,,,Y,Y,M,21,
38,12,582,13,13,12,['k'],['d'],Y,N,['space'],N,,,,,Y,Y,M,21,
38,13,583,1,1,12,['k'],['d'],Y,N,None,Y,,,,,Y,Y,M,21,
38,14,584,4,4,12,['d'],['d'],N,Y,None,N,,,,,Y,Y,M,21,
39,0,585,12,12,12,['k'],['k'],N,Y,None,N,,,,,Y,Y,M,21,
39,1,586,13,13,12,['k'],['d'],Y,Y,['space'],Y,,,,,Y,Y,M,21,
39,2,587,3,3,12,['d'],['d'],N,N,None,Y,,,,,Y,Y,M,21,
39,3,588,8,8,12,['d'],['k'],Y,Y,['space'],Y,,,,,Y,Y,M,21,
39,4,589,14,14,12,None,,Timed out,Y,None,N,,,,,Y,Y,M,21,
39,5,590,2,2,12,['k'],['k'],N,N,None,Y,,,,,Y,Y,M,21,
39,6,591,10,10,12,['d'],['k'],Y,Y,None,N,,,,,Y,Y,M,21,
39,7,592,2,2,12,['d'],['k'],Y,N,['space'],N,,,,,Y,Y,M,21,
39,8,593,8,8,12,['d'],['k'],Y,N,['space'],N,,,,,Y,Y,M,21,
39,9,594,1,1,12,['k'],['d'],Y,N,None,Y,,,,,Y,Y,M,21,
39,10,595,12,12,12,['d'],['k'],Y,N,None,Y,,,,,Y,Y,M,21,
39,11,596,12,12,12,['d'],['k'],Y,N,['space'],N,,,,,Y,Y,M,21,
39,12,597,12,12,12,['d'],['k'],Y,N,None,Y,,,,,Y,Y,M,21,
39,13,598,3,3,12,['k'],['d'],Y,N,None,Y,,,,,Y,Y,M,21,
39,14,599,10,10,12,['d'],['k'],Y,N,None,Y,36,33,25,,Y,Y,M,21,
