.thisRepN,.thisTrialN,.thisN,.thisIndex,.thisTrial,Block Number,Key pressed,Category,Correct?,Int Match?,Int Response,Int Correct?,Line Accuracy,Interference Accuracy,Matching Interferences,New instruction shown?,Buttons switched?,Fast?,gender,age,
0,0,0,10,10,1,['d'],['k'],N,,,,,,,,,,M,20,
0,1,1,0,0,1,['k'],['k'],Y,,,,,,,,,,M,20,
0,2,2,6,6,1,['d'],['d'],Y,Y,None,N,,,,,,,M,20,
0,3,3,11,11,1,None,,Timed out,N,None,Y,,,,,,,M,20,
0,4,4,7,7,1,['d'],['k'],N,Y,None,N,,,,,,,M,20,
0,5,5,12,12,1,['k'],['k'],Y,N,None,Y,,,,,,,M,20,
0,6,6,3,3,1,['k'],['k'],Y,N,None,Y,,,,,,,M,20,
0,7,7,4,4,1,['d'],['d'],Y,N,None,Y,,,,,,,M,20,
0,8,8,10,10,1,['k'],['k'],Y,Y,None,N,,,,,,,M,20,
0,9,9,5,5,1,['d'],['d'],Y,Y,None,N,,,,,,,M,20,
0,10,10,4,4,1,['k'],['k'],Y,N,None,Y,,,,,,,M,20,
0,11,11,12,12,1,['k'],['k'],Y,Y,None,N,,,,,,,M,20,
0,12,12,7,7,1,['d'],['k'],N,Y,None,N,,,,,,,M,20,
0,13,13,14,14,1,['k'],['k'],Y,N,None,Y,,,,,,,M,20,
0,14,14,8,8,1,['k'],['k'],Y,Y,['space'],Y,,,,,,,M,20,
1,0,15,0,0,1,['k'],['k'],Y,N,None,Y,,,,,,,M,20,
1,1,16,12,12,1,['d'],['d'],Y,N,None,Y,,,,,,,M,20,
1,2,17,0,0,1,['d'],['d'],Y,N,None,Y,,,,,,,M,20,
1,3,18,8,8,1,['k'],['k'],Y,Y,None,N,,,,,,,M,20,
1,4,19,1,1,1,['k'],['d'],N,Y,None,N,,,,,,,M,20,
1,5,20,4,4,1,['k'],['k'],Y,Y,None,N,,,,,,,M,20,
1,6,21,0,0,1,['k'],['k'],Y,N,None,Y,,,,,,,M,20,
1,7,22,9,9,1,['k'],['k'],Y,Y,['space'],Y,,,,,,,M,20,
1,8,23,11,11,1,['k'],['k'],Y,N,None,Y,,,,,,,M,20,
1,9,24,11,11,1,['k'],['k'],Y,N,None,Y,,,,,,,M,20,
1,10,25,11,11,1,['k'],['k'],Y,N,None,Y,,,,,,,M,20,
1,11,26,11,11,1,['d'],['d'],Y,Y,None,N,,,,,,,M,20,
1,12,27,4,4,1,['k'],['k'],Y,N,None,Y,,,,,,,M,20,
1,13,28,10,10,1,['k'],['k'],Y,Y,None,N,,,,,,,M,20,
1,14,29,0,0,1,['d'],['d'],Y,Y,['space'],Y,,,,,,,M,20,
2,0,30,0,0,1,['d'],['k'],N,N,None,Y,,,,,,,M,20,
2,1,31,14,14,1,['k'],['k'],Y,Y,None,N,,,,,,,M,20,
2,2,32,11,11,1,['d'],['d'],Y,N,None,Y,,,,,,,M,20,
2,3,33,3,3,1,['k'],['k'],Y,Y,None,N,,,,,,,M,20,
2,4,34,3,3,1,['d'],['d'],Y,Y,None,N,,,,,,,M,20,
2,5,35,7,7,1,['d'],['d'],Y,N,None,Y,,,,,,,M,20,
2,6,36,3,3,1,['d'],['d'],Y,N,None,Y,,,,,,,M,20,
2,7,37,12,12,1,['k'],['k'],Y,Y,['space'],Y,,,,,,,M,20,
2,8,38,0,0,1,['k'],['k'],Y,Y,None,N,,,,,,,M,20,
2,9,39,5,5,1,['d'],['d'],Y,Y,None,N,,,,,,,M,20,
2,10,40,12,12,1,['k'],['k'],Y,N,None,Y,,,,,,,M,20,
2,11,41,12,12,1,['k'],['k'],Y,N,None,Y,,,,,,,M,20,
2,12,42,6,6,1,['d'],['d'],Y,N,None,Y,,,,,,,M,20,
2,13,43,7,7,1,['d'],['d'],Y,Y,None,N,,,,,,,M,20,
2,14,44,11,11,1,['k'],['k'],Y,N,None,Y,,,,,,,M,20,
3,0,45,7,7,1,['k'],['d'],N,N,None,Y,,,,,,,M,20,
3,1,46,1,1,1,['d'],['d'],Y,N,None,Y,,,,,,,M,20,
3,2,47,12,12,1,['d'],['d'],Y,N,None,Y,,,,,,,M,20,
3,3,48,0,0,1,['k'],['k'],Y,Y,['space'],Y,,,,,,,M,20,
3,4,49,2,2,1,['d'],['d'],Y,Y,None,N,43,30,23,,,,M,20,
3,5,50,10,10,2,['d'],['d'],Y,,,,,,,,,,M,20,
3,6,51,14,14,2,['d'],['d'],Y,,,,,,,,,,M,20,
3,7,52,12,12,2,['d'],['d'],Y,N,None,Y,,,,,,,M,20,
3,8,53,5,5,2,['d'],['d'],Y,Y,['space'],Y,,,,,,,M,20,
3,9,54,3,3,2,['d'],['d'],Y,N,None,Y,,,,,,,M,20,
3,10,55,1,1,2,['k'],['k'],Y,N,None,Y,,,,,,,M,20,
3,11,56,12,12,2,['k'],['d'],N,N,['space'],N,,,,,,,M,20,
3,12,57,9,9,2,['d'],['d'],Y,Y,None,N,,,,,,,M,20,
3,13,58,9,9,2,['d'],['k'],N,N,None,Y,,,,,,,M,20,
3,14,59,0,0,2,['k'],['k'],Y,N,None,Y,,,,,,,M,20,
4,0,60,13,13,2,['k'],['k'],Y,N,None,Y,,,,,,,M,20,
4,1,61,6,6,2,['d'],['d'],Y,Y,None,N,,,,,,,M,20,
4,2,62,10,10,2,['k'],['k'],Y,N,None,Y,,,,,,,M,20,
4,3,63,6,6,2,['d'],['d'],Y,N,None,Y,,,,,,,M,20,
4,4,64,12,12,2,['d'],['d'],Y,Y,['space'],Y,,,,,,,M,20,
4,5,65,2,2,2,['d'],['d'],Y,Y,None,N,,,,,,,M,20,
4,6,66,3,3,2,['k'],['k'],Y,Y,None,N,,,,,,,M,20,
4,7,67,7,7,2,['d'],['d'],Y,Y,None,N,,,,,,,M,20,
4,8,68,5,5,2,['k'],['k'],Y,Y,None,N,,,,,,,M,20,
4,9,69,5,5,2,['k'],['k'],Y,Y,['space'],Y,,,,,,,M,20,
4,10,70,3,3,2,['k'],['d'],N,Y,None,N,,,,,,,M,20,
4,11,71,12,12,2,['d'],['k'],N,Y,['space'],Y,,,,,,,M,20,
4,12,72,7,7,2,['k'],['k'],Y,N,None,Y,,,,,,,M,20,
4,13,73,1,1,2,['k'],['k'],Y,Y,None,N,,,,,,,M,20,
4,14,74,5,5,2,['k'],['k'],Y,Y,None,N,,,,,,,M,20,
5,0,75,14,14,2,['d'],['k'],N,Y,None,N,,,,,,,M,20,
5,1,76,11,11,2,['d'],['d'],Y,N,None,Y,,,,,,,M,20,
5,2,77,2,2,2,['d'],['k'],N,N,None,Y,,,,,,,M,20,
5,3,78,8,8,2,['k'],['k'],Y,N,None,Y,,,,,,,M,20,
5,4,79,0,0,2,['k'],['k'],Y,Y,None,N,,,,,,,M,20,
5,5,80,8,8,2,['d'],['k'],N,Y,['space'],Y,,,,,,,M,20,
5,6,81,14,14,2,['d'],['d'],Y,N,None,Y,,,,,,,M,20,
5,7,82,1,1,2,['k'],['d'],N,Y,None,N,,,,,,,M,20,
5,8,83,6,6,2,['k'],['k'],Y,Y,None,N,,,,,,,M,20,
5,9,84,8,8,2,['d'],['d'],Y,Y,None,N,,,,,,,M,20,
5,10,85,4,4,2,['k'],['k'],Y,N,None,Y,,,,,,,M,20,
5,11,86,7,7,2,['d'],['d'],Y,N,None,Y,,,,,,,M,20,
5,12,87,5,5,2,['k'],['k'],Y,Y,None,N,,,,,,,M,20,
5,13,88,10,10,2,['k'],['k'],Y,N,None,Y,,,,,,,M,20,
5,14,89,2,2,2,['k'],['d'],N,N,None,Y,,,,,,,M,20,
6,0,90,0,0,2,['k'],['k'],Y,Y,None,N,,,,,,,M,20,
6,1,91,6,6,2,['k'],['k'],Y,Y,['space'],Y,,,,,,,M,20,
6,2,92,7,7,2,['k'],['k'],Y,Y,None,N,,,,,,,M,20,
6,3,93,13,13,2,['k'],['k'],Y,N,None,Y,,,,,,,M,20,
6,4,94,2,2,2,['k'],['k'],Y,Y,None,N,,,,,,,M,20,
6,5,95,4,4,2,['d'],['d'],Y,N,None,Y,,,,,,,M,20,
6,6,96,14,14,2,['d'],['d'],Y,Y,None,N,,,,,,,M,20,
6,7,97,11,11,2,['k'],['k'],Y,N,None,Y,,,,,,,M,20,
6,8,98,7,7,2,['k'],['k'],Y,N,None,Y,,,,,,,M,20,
6,9,99,11,11,2,['d'],['d'],Y,N,None,Y,41,28,25,,,,M,20,
6,10,100,4,4,3,['k'],['d'],N,,,,,,,,,,M,20,
6,11,101,0,0,3,['k'],['k'],Y,,,,,,,,,,M,20,
6,12,102,14,14,3,['d'],['d'],Y,Y,['space'],Y,,,,,,,M,20,
6,13,103,14,14,3,['k'],['k'],Y,Y,['space'],Y,,,,,,,M,20,
6,14,104,2,2,3,['k'],['k'],Y,N,None,Y,,,,,,,M,20,
7,0,105,2,2,3,['d'],['d'],Y,Y,['space'],Y,,,,,,,M,20,
7,1,106,9,9,3,['d'],['d'],Y,N,None,Y,,,,,,,M,20,
7,2,107,12,12,3,['k'],['k'],Y,N,None,Y,,,,,,,M,20,
7,3,108,6,6,3,['k'],['k'],Y,Y,None,N,,,,,,,M,20,
7,4,109,13,13,3,['d'],['d'],Y,Y,None,N,,,,,,,M,20,
7,5,110,6,6,3,['k'],['k'],Y,Y,None,N,,,,,,,M,20,
7,6,111,8,8,3,['k'],['k'],Y,Y,['space'],Y,,,,,,,M,20,
7,7,112,0,0,3,['k'],['k'],Y,Y,None,N,,,,,,,M,20,
7,8,113,14,14,3,['d'],['d'],Y,N,None,Y,,,,,,,M,20,
7,9,114,8,8,3,['d'],['d'],Y,Y,['space'],Y,,,,,,,M,20,
7,10,115,6,6,3,['d'],['d'],Y,Y,['space'],Y,,,,,,,M,20,
7,11,116,13,13,3,['k'],['k'],Y,N,None,Y,,,,,,,M,20,
7,12,117,3,3,3,['d'],['d'],Y,Y,['space'],Y,,,,,,,M,20,
7,13,118,7,7,3,['k'],['k'],Y,Y,None,N,,,,,,,M,20,
7,14,119,4,4,3,['d'],['d'],Y,N,None,Y,,,,,,,M,20,
8,0,120,13,13,3,['d'],['d'],Y,N,None,Y,,,,,,,M,20,
8,1,121,11,11,3,['d'],['k'],N,N,None,Y,,,,,,,M,20,
8,2,122,2,2,3,['k'],['k'],Y,Y,['space'],Y,,,,,,,M,20,
8,3,123,6,6,3,['d'],['d'],Y,Y,None,N,,,,,,,M,20,
8,4,124,4,4,3,['k'],['d'],N,N,None,Y,,,,,,,M,20,
8,5,125,11,11,3,['d'],['d'],Y,Y,['space'],Y,,,,,,,M,20,
8,6,126,7,7,3,['k'],['k'],Y,Y,None,N,,,,,,,M,20,
8,7,127,3,3,3,['d'],['d'],Y,N,None,Y,,,,,,,M,20,
8,8,128,11,11,3,['k'],['k'],Y,N,['space'],N,,,,,,,M,20,
8,9,129,10,10,3,['k'],['k'],Y,N,None,Y,,,,,,,M,20,
8,10,130,9,9,3,['k'],['k'],Y,Y,None,N,,,,,,,M,20,
8,11,131,10,10,3,['k'],['k'],Y,N,None,Y,,,,,,,M,20,
8,12,132,14,14,3,['k'],['k'],Y,N,None,Y,,,,,,,M,20,
8,13,133,8,8,3,['k'],['k'],Y,N,None,Y,,,,,,,M,20,
8,14,134,3,3,3,['k'],['k'],Y,Y,['space'],Y,,,,,,,M,20,
9,0,135,5,5,3,['k'],['k'],Y,N,None,Y,,,,,,,M,20,
9,1,136,13,13,3,['d'],['k'],N,Y,['space'],Y,,,,,,,M,20,
9,2,137,6,6,3,['d'],['d'],Y,N,None,Y,,,,,,,M,20,
9,3,138,6,6,3,['d'],['d'],Y,Y,None,N,,,,,,,M,20,
9,4,139,9,9,3,['k'],['k'],Y,N,None,Y,,,,,,,M,20,
9,5,140,13,13,3,['k'],['k'],Y,N,None,Y,,,,,,,M,20,
9,6,141,4,4,3,['k'],['k'],Y,N,None,Y,,,,,,,M,20,
9,7,142,8,8,3,['k'],['k'],Y,Y,None,N,,,,,,,M,20,
9,8,143,9,9,3,['d'],['d'],Y,N,None,Y,,,,,,,M,20,
9,9,144,9,9,3,['k'],['k'],Y,Y,['space'],Y,,,,,,,M,20,
9,10,145,11,11,3,['d'],['d'],Y,Y,None,N,,,,,,,M,20,
9,11,146,12,12,3,['d'],['d'],Y,N,None,Y,,,,,,,M,20,
9,12,147,0,0,3,['d'],['d'],Y,N,None,Y,,,,,,,M,20,
9,13,148,8,8,3,['k'],['k'],Y,N,['space'],N,,,,,,,M,20,
9,14,149,13,13,3,['k'],['k'],Y,Y,None,N,46,34,24,,,,M,20,
10,0,150,3,3,4,['d'],['k'],N,,,,,,,,,,M,20,
10,1,151,6,6,4,['k'],['k'],Y,,,,,,,,,,M,20,
10,2,152,2,2,4,['d'],['d'],Y,N,None,Y,,,,,,,M,20,
10,3,153,1,1,4,['d'],['d'],Y,N,None,Y,,,,,,,M,20,
10,4,154,7,7,4,['d'],['d'],Y,N,None,Y,,,,,,,M,20,
10,5,155,6,6,4,['d'],['d'],Y,N,None,Y,,,,,,,M,20,
10,6,156,6,6,4,['k'],['d'],N,Y,['space'],Y,,,,,,,M,20,
10,7,157,3,3,4,['d'],['d'],Y,Y,None,N,,,,,,,M,20,
10,8,158,9,9,4,['d'],['d'],Y,N,None,Y,,,,,,,M,20,
10,9,159,2,2,4,['k'],['k'],Y,Y,['space'],Y,,,,,,,M,20,
10,10,160,5,5,4,['k'],['k'],Y,N,None,Y,,,,,,,M,20,
10,11,161,3,3,4,['k'],['k'],Y,Y,['space'],Y,,,,,,,M,20,
10,12,162,9,9,4,['d'],['k'],N,Y,None,N,,,,,,,M,20,
10,13,163,3,3,4,['d'],['d'],Y,Y,None,N,,,,,,,M,20,
10,14,164,7,7,4,['d'],['k'],N,Y,None,N,,,,,,,M,20,
11,0,165,3,3,4,['k'],['k'],Y,N,None,Y,,,,,,,M,20,
11,1,166,9,9,4,['k'],['k'],Y,N,None,Y,,,,,,,M,20,
11,2,167,8,8,4,['k'],['k'],Y,N,None,Y,,,,,,,M,20,
11,3,168,13,13,4,['k'],['k'],Y,Y,['space'],Y,,,,,,,M,20,
11,4,169,1,1,4,['d'],['d'],Y,Y,None,N,,,,,,,M,20,
11,5,170,1,1,4,['k'],['k'],Y,N,None,Y,,,,,,,M,20,
11,6,171,6,6,4,['k'],['k'],Y,Y,['space'],Y,,,,,,,M,20,
11,7,172,11,11,4,['d'],['d'],Y,N,None,Y,,,,,,,M,20,
11,8,173,10,10,4,['d'],['d'],Y,N,None,Y,,,,,,,M,20,
11,9,174,14,14,4,['d'],['d'],Y,Y,None,N,,,,,,,M,20,
11,10,175,2,2,4,['k'],['k'],Y,Y,None,N,,,,,,,M,20,
11,11,176,13,13,4,['d'],['d'],Y,N,None,Y,,,,,,,M,20,
11,12,177,4,4,4,['k'],['k'],Y,N,None,Y,,,,,,,M,20,
11,13,178,3,3,4,['k'],['k'],Y,N,None,Y,,,,,,,M,20,
11,14,179,7,7,4,['k'],['k'],Y,Y,['space'],Y,,,,,,,M,20,
12,0,180,10,10,4,['k'],['d'],N,N,None,Y,,,,,,,M,20,
12,1,181,7,7,4,['k'],['k'],Y,N,None,Y,,,,,,,M,20,
12,2,182,9,9,4,['k'],['k'],Y,N,None,Y,,,,,,,M,20,
12,3,183,4,4,4,['k'],['k'],Y,Y,['space'],Y,,,,,,,M,20,
12,4,184,1,1,4,['k'],['k'],Y,N,None,Y,,,,,,,M,20,
12,5,185,5,5,4,['d'],['d'],Y,N,None,Y,,,,,,,M,20,
12,6,186,11,11,4,['k'],['k'],Y,N,None,Y,,,,,,,M,20,
12,7,187,1,1,4,['d'],['d'],Y,Y,['space'],Y,,,,,,,M,20,
12,8,188,3,3,4,['d'],['d'],Y,N,None,Y,,,,,,,M,20,
12,9,189,5,5,4,['d'],['k'],N,Y,None,N,,,,,,,M,20,
12,10,190,7,7,4,['k'],['d'],N,N,None,Y,,,,,,,M,20,
12,11,191,9,9,4,['k'],['k'],Y,N,None,Y,,,,,,,M,20,
12,12,192,3,3,4,['k'],['k'],Y,N,None,Y,,,,,,,M,20,
12,13,193,5,5,4,['k'],['d'],N,N,None,Y,,,,,,,M,20,
12,14,194,10,10,4,['d'],['d'],Y,Y,['space'],Y,,,,,,,M,20,
13,0,195,8,8,4,['k'],['d'],N,N,None,Y,,,,,,,M,20,
13,1,196,3,3,4,['d'],['d'],Y,N,None,Y,,,,,,,M,20,
13,2,197,11,11,4,['k'],['k'],Y,N,None,Y,,,,,,,M,20,
13,3,198,12,12,4,['k'],['k'],Y,N,None,Y,,,,,,,M,20,
13,4,199,3,3,4,['d'],['d'],Y,Y,['space'],Y,41,40,18,,,,M,20,
13,5,200,6,6,5,['k'],['k'],Y,,,,,,,,,,M,20,
13,6,201,5,5,5,['k'],['k'],Y,,,,,,,,,,M,20,
13,7,202,12,12,5,['k'],['k'],Y,N,None,Y,,,,,,,M,20,
13,8,203,11,11,5,['k'],['k'],Y,N,['space'],N,,,,,,,M,20,
13,9,204,2,2,5,['d'],['d'],Y,N,None,Y,,,,,,,M,20,
13,10,205,2,2,5,['d'],['d'],Y,N,None,Y,,,,,,,M,20,
13,11,206,13,13,5,['k'],['k'],Y,N,None,Y,,,,,,,M,20,
13,12,207,8,8,5,['k'],['k'],Y,N,None,Y,,,,,,,M,20,
13,13,208,10,10,5,['k'],['k'],Y,N,None,Y,,,,,,,M,20,
13,14,209,9,9,5,['d'],['d'],Y,N,None,Y,,,,,,,M,20,
14,0,210,7,7,5,['k'],['k'],Y,Y,['space'],Y,,,,,,,M,20,
14,1,211,8,8,5,['k'],['k'],Y,Y,['space'],Y,,,,,,,M,20,
14,2,212,0,0,5,['k'],['k'],Y,N,None,Y,,,,,,,M,20,
14,3,213,12,12,5,['d'],['d'],Y,Y,None,N,,,,,,,M,20,
14,4,214,12,12,5,['k'],['k'],Y,N,None,Y,,,,,,,M,20,
14,5,215,4,4,5,['d'],['d'],Y,N,None,Y,,,,,,,M,20,
14,6,216,9,9,5,['d'],['d'],Y,Y,None,N,,,,,,,M,20,
14,7,217,9,9,5,['d'],['d'],Y,Y,['space'],Y,,,,,,,M,20,
14,8,218,0,0,5,['d'],['d'],Y,N,None,Y,,,,,,,M,20,
14,9,219,3,3,5,['k'],['d'],N,N,None,Y,,,,,,,M,20,
14,10,220,0,0,5,['d'],['d'],Y,N,None,Y,,,,,,,M,20,
14,11,221,9,9,5,['d'],['d'],Y,Y,['space'],Y,,,,,,,M,20,
14,12,222,7,7,5,['k'],['k'],Y,Y,None,N,,,,,,,M,20,
14,13,223,10,10,5,['k'],['k'],Y,Y,['space'],Y,,,,,,,M,20,
14,14,224,10,10,5,['d'],['d'],Y,Y,None,N,,,,,,,M,20,
15,0,225,5,5,5,['k'],['k'],Y,Y,None,N,,,,,,,M,20,
15,1,226,2,2,5,['d'],['k'],N,N,None,Y,,,,,,,M,20,
15,2,227,13,13,5,['k'],['k'],Y,N,None,Y,,,,,,,M,20,
15,3,228,13,13,5,['k'],['k'],Y,Y,['space'],Y,,,,,,,M,20,
15,4,229,12,12,5,['k'],['k'],Y,Y,None,N,,,,,,,M,20,
15,5,230,3,3,5,['k'],['k'],Y,N,None,Y,,,,,,,M,20,
15,6,231,14,14,5,['k'],['d'],N,Y,['space'],Y,,,,,,,M,20,
15,7,232,9,9,5,['d'],['d'],Y,N,None,Y,,,,,,,M,20,
15,8,233,14,14,5,['k'],['k'],Y,N,None,Y,,,,,,,M,20,
15,9,234,13,13,5,['d'],['d'],Y,Y,['space'],Y,,,,,,,M,20,
15,10,235,11,11,5,['d'],['d'],Y,Y,['space'],Y,,,,,,,M,20,
15,11,236,0,0,5,['k'],['d'],N,Y,None,N,,,,,,,M,20,
15,12,237,4,4,5,['k'],['k'],Y,N,None,Y,,,,,,,M,20,
15,13,238,0,0,5,['k'],['k'],Y,N,None,Y,,,,,,,M,20,
15,14,239,5,5,5,['k'],['k'],Y,Y,['space'],Y,,,,,,,M,20,
16,0,240,8,8,5,['k'],['d'],N,N,None,Y,,,,,,,M,20,
16,1,241,12,12,5,['d'],['d'],Y,Y,['space'],Y,,,,,,,M,20,
16,2,242,0,0,5,['k'],['k'],Y,Y,['space'],Y,,,,,,,M,20,
16,3,243,2,2,5,['k'],['k'],Y,Y,None,N,,,,,,,M,20,
16,4,244,5,5,5,['d'],['d'],Y,N,None,Y,,,,,,,M,20,
16,5,245,8,8,5,['d'],['d'],Y,N,None,Y,,,,,,,M,20,
16,6,246,5,5,5,['d'],['d'],Y,N,None,Y,,,,,,,M,20,
16,7,247,13,13,5,['k'],['k'],Y,Y,['space'],Y,,,,,,,M,20,
16,8,248,4,4,5,['k'],['k'],Y,N,None,Y,,,,,,,M,20,
16,9,249,5,5,5,['k'],['k'],Y,Y,['space'],Y,45,39,22,,,,M,20,
16,10,250,13,13,6,['d'],['d'],Y,,,,,,,,,,M,20,
16,11,251,14,14,6,['d'],['d'],Y,,,,,,,,,,M,20,
16,12,252,1,1,6,['k'],['k'],Y,Y,['space'],Y,,,,,,,M,20,
16,13,253,1,1,6,['d'],['d'],Y,N,None,Y,,,,,,,M,20,
16,14,254,14,14,6,['d'],['d'],Y,Y,None,N,,,,,,,M,20,
17,0,255,4,4,6,['d'],['d'],Y,Y,['space'],Y,,,,,,,M,20,
17,1,256,10,10,6,['d'],['k'],N,N,None,Y,,,,,,,M,20,
17,2,257,13,13,6,['d'],['d'],Y,Y,['space'],Y,,,,,,,M,20,
17,3,258,14,14,6,['d'],['d'],Y,Y,None,N,,,,,,,M,20,
17,4,259,3,3,6,['k'],['k'],Y,Y,['space'],Y,,,,,,,M,20,
17,5,260,6,6,6,['k'],['k'],Y,Y,['space'],Y,,,,,,,M,20,
17,6,261,11,11,6,['d'],['d'],Y,N,None,Y,,,,,,,M,20,
17,7,262,2,2,6,['k'],['d'],N,N,None,Y,,,,,,,M,20,
17,8,263,6,6,6,['k'],['k'],Y,N,None,Y,,,,,,,M,20,
17,9,264,7,7,6,['d'],['d'],Y,Y,['space'],Y,,,,,,,M,20,
17,10,265,7,7,6,['d'],['d'],Y,N,['space'],N,,,,,,,M,20,
17,11,266,7,7,6,['d'],['d'],Y,Y,None,N,,,,,,,M,20,
17,12,267,7,7,6,['k'],['k'],Y,Y,None,N,,,,,,,M,20,
17,13,268,14,14,6,['d'],['k'],N,N,None,Y,,,,,,,M,20,
17,14,269,0,0,6,['d'],['d'],Y,Y,['space'],Y,,,,,,,M,20,
18,0,270,1,1,6,['d'],['d'],Y,N,None,Y,,,,,,,M,20,
18,1,271,10,10,6,['k'],['k'],Y,N,None,Y,,,,,,,M,20,
18,2,272,9,9,6,['k'],['k'],Y,Y,None,N,,,,,,,M,20,
18,3,273,6,6,6,['d'],['d'],Y,N,None,Y,,,,,,,M,20,
18,4,274,11,11,6,['d'],['d'],Y,N,None,Y,,,,,,,M,20,
18,5,275,13,13,6,['k'],['k'],Y,N,None,Y,,,,,,,M,20,
18,6,276,4,4,6,['k'],['k'],Y,N,None,Y,,,,,,,M,20,
18,7,277,1,1,6,['k'],['k'],Y,N,None,Y,,,,,,,M,20,
18,8,278,1,1,6,['k'],['d'],N,Y,['space'],Y,,,,,,,M,20,
18,9,279,11,11,6,['d'],['d'],Y,Y,None,N,,,,,,,M,20,
18,10,280,9,9,6,['k'],['d'],N,Y,['space'],Y,,,,,,,M,20,
18,11,281,2,2,6,['d'],['d'],Y,Y,['space'],Y,,,,,,,M,20,
18,12,282,12,12,6,['k'],['d'],N,N,None,Y,,,,,,,M,20,
18,13,283,1,1,6,['d'],['d'],Y,N,None,Y,,,,,,,M,20,
18,14,284,9,9,6,['d'],['d'],Y,Y,None,N,,,,,,,M,20,
19,0,285,3,3,6,['d'],['d'],Y,Y,['space'],Y,,,,,,,M,20,
19,1,286,6,6,6,['d'],['d'],Y,Y,['space'],Y,,,,,,,M,20,
19,2,287,1,1,6,['k'],['k'],Y,Y,None,N,,,,,,,M,20,
19,3,288,14,14,6,['k'],['d'],N,Y,None,N,,,,,,,M,20,
19,4,289,8,8,6,['d'],['d'],Y,N,None,Y,,,,,,,M,20,
19,5,290,8,8,6,['d'],['d'],Y,N,None,Y,,,,,,,M,20,
19,6,291,13,13,6,['d'],['k'],N,Y,['space'],Y,,,,,,,M,20,
19,7,292,2,2,6,['d'],['d'],Y,Y,['space'],Y,,,,,,,M,20,
19,8,293,2,2,6,['d'],['d'],Y,Y,['space'],Y,,,,,,,M,20,
19,9,294,10,10,6,['d'],['k'],N,N,None,Y,,,,,,,M,20,
19,10,295,12,12,6,['k'],['d'],N,N,None,Y,,,,,,,M,20,
19,11,296,8,8,6,['d'],['k'],N,N,['space'],N,,,,,,,M,20,
19,12,297,8,8,6,['k'],['k'],Y,Y,None,N,,,,,,,M,20,
19,13,298,8,8,6,['k'],['k'],Y,N,None,Y,,,,,,,M,20,
19,14,299,1,1,6,['k'],['k'],Y,N,None,Y,39,36,25,,,,M,20,
20,0,300,14,14,7,['d'],['d'],Y,,,,,,,,,,M,20,
20,1,301,1,1,7,['k'],['k'],Y,,,,,,,,,,M,20,
20,2,302,13,13,7,['k'],['k'],Y,N,None,Y,,,,,,,M,20,
20,3,303,12,12,7,['k'],['k'],Y,N,None,Y,,,,,,,M,20,
20,4,304,0,0,7,['k'],['k'],Y,Y,None,N,,,,,,,M,20,
20,5,305,3,3,7,['d'],['d'],Y,N,None,Y,,,,,,,M,20,
20,6,306,2,2,7,['d'],['d'],Y,Y,None,N,,,,,,,M,20,
20,7,307,7,7,7,['d'],['d'],Y,N,None,Y,,,,,,,M,20,
20,8,308,5,5,7,['k'],['k'],Y,N,None,Y,,,,,,,M,20,
20,9,309,5,5,7,['k'],['k'],Y,Y,['space'],Y,,,,,,,M,20,
20,10,310,1,1,7,['d'],['d'],Y,N,None,Y,,,,,,,M,20,
20,11,311,2,2,7,['d'],['d'],Y,N,None,Y,,,,,,,M,20,
20,12,312,13,13,7,['d'],['d'],Y,N,None,Y,,,,,,,M,20,
20,13,313,9,9,7,['k'],['k'],Y,N,None,Y,,,,,,,M,20,
20,14,314,2,2,7,['k'],['k'],Y,Y,['space'],Y,,,,,,,M,20,
21,0,315,9,9,7,['k'],['k'],Y,N,None,Y,,,,,,,M,20,
21,1,316,5,5,7,['k'],['k'],Y,Y,None,N,,,,,,,M,20,
21,2,317,13,13,7,['d'],['d'],Y,Y,None,N,,,,,,,M,20,
21,3,318,12,12,7,['k'],['k'],Y,Y,['space'],Y,,,,,,,M,20,
21,4,319,11,11,7,['k'],['d'],N,N,None,Y,,,,,,,M,20,
21,5,320,10,10,7,['d'],['k'],N,N,None,Y,,,,,,,M,20,
21,6,321,12,12,7,['k'],['d'],N,N,None,Y,,,,,,,M,20,
21,7,322,0,0,7,['d'],['d'],Y,Y,None,N,,,,,,,M,20,
21,8,323,6,6,7,['k'],['k'],Y,Y,['space'],Y,,,,,,,M,20,
21,9,324,11,11,7,['d'],['d'],Y,N,None,Y,,,,,,,M,20,
21,10,325,11,11,7,['d'],['k'],N,Y,None,N,,,,,,,M,20,
21,11,326,7,7,7,['k'],['k'],Y,Y,None,N,,,,,,,M,20,
21,12,327,0,0,7,['d'],['d'],Y,N,None,Y,,,,,,,M,20,
21,13,328,13,13,7,['k'],['k'],Y,Y,['space'],Y,,,,,,,M,20,
21,14,329,2,2,7,['d'],['d'],Y,N,None,Y,,,,,,,M,20,
22,0,330,7,7,7,['d'],['d'],Y,Y,None,N,,,,,,,M,20,
22,1,331,10,10,7,['k'],['k'],Y,Y,['space'],Y,,,,,,,M,20,
22,2,332,0,0,7,['k'],['k'],Y,N,None,Y,,,,,,,M,20,
22,3,333,9,9,7,['d'],['d'],Y,Y,['space'],Y,,,,,,,M,20,
22,4,334,6,6,7,['k'],['k'],Y,N,None,Y,,,,,,,M,20,
22,5,335,14,14,7,['k'],['d'],N,N,None,Y,,,,,,,M,20,
22,6,336,12,12,7,['k'],['d'],N,N,None,Y,,,,,,,M,20,
22,7,337,11,11,7,['d'],['d'],Y,Y,None,N,,,,,,,M,20,
22,8,338,2,2,7,['d'],['d'],Y,Y,None,N,,,,,,,M,20,
22,9,339,2,2,7,['k'],['k'],Y,Y,['space'],Y,,,,,,,M,20,
22,10,340,13,13,7,['d'],['d'],Y,N,None,Y,,,,,,,M,20,
22,11,341,6,6,7,['d'],['d'],Y,Y,['space'],Y,,,,,,,M,20,
22,12,342,1,1,7,['k'],['d'],N,N,None,Y,,,,,,,M,20,
22,13,343,10,10,7,['d'],['d'],Y,Y,None,N,,,,,,,M,20,
22,14,344,8,8,7,['d'],['d'],Y,Y,['space'],Y,,,,,,,M,20,
23,0,345,1,1,7,['d'],['d'],Y,N,None,Y,,,,,,,M,20,
23,1,346,0,0,7,['d'],['d'],Y,N,None,Y,,,,,,,M,20,
23,2,347,8,8,7,['k'],['d'],N,Y,['space'],Y,,,,,,,M,20,
23,3,348,11,11,7,['d'],['d'],Y,N,None,Y,,,,,,,M,20,
23,4,349,9,9,7,['d'],['d'],Y,Y,None,N,42,36,23,,,,M,20,
23,5,350,1,1,8,['k'],['k'],Y,,,,,,,,,,M,20,
23,6,351,1,1,8,['k'],['k'],Y,,,,,,,,,,M,20,
23,7,352,5,5,8,['d'],['d'],Y,N,None,Y,,,,,,,M,20,
23,8,353,14,14,8,['k'],['k'],Y,Y,['space'],Y,,,,,,,M,20,
23,9,354,9,9,8,['k'],['k'],Y,Y,None,N,,,,,,,M,20,
23,10,355,12,12,8,['d'],['d'],Y,Y,None,N,,,,,,,M,20,
23,11,356,3,3,8,['d'],['d'],Y,Y,None,N,,,,,,,M,20,
23,12,357,8,8,8,['k'],['d'],N,Y,None,N,,,,,,,M,20,
23,13,358,4,4,8,['k'],['k'],Y,Y,['space'],Y,,,,,,,M,20,
23,14,359,12,12,8,['d'],['d'],Y,Y,['space'],Y,,,,,,,M,20,
24,0,360,8,8,8,['k'],['d'],N,N,None,Y,,,,,,,M,20,
24,1,361,5,5,8,['d'],['d'],Y,Y,None,N,,,,,,,M,20,
24,2,362,9,9,8,['k'],['k'],Y,Y,['space'],Y,,,,,,,M,20,
24,3,363,6,6,8,['k'],['k'],Y,Y,['space'],Y,,,,,,,M,20,
24,4,364,12,12,8,['d'],['d'],Y,Y,None,N,,,,,,,M,20,
24,5,365,8,8,8,['d'],['d'],Y,Y,None,N,,,,,,,M,20,
24,6,366,0,0,8,['k'],['d'],N,Y,None,N,,,,,,,M,20,
24,7,367,10,10,8,['d'],['d'],Y,Y,['space'],Y,,,,,,,M,20,
24,8,368,0,0,8,['d'],['k'],N,Y,['space'],Y,,,,,,,M,20,
24,9,369,11,11,8,['d'],['d'],Y,N,None,Y,,,,,,,M,20,
24,10,370,4,4,8,['k'],['k'],Y,N,None,Y,,,,,,,M,20,
24,11,371,13,13,8,['k'],['k'],Y,N,None,Y,,,,,,,M,20,
24,12,372,12,12,8,['k'],['k'],Y,N,None,Y,,,,,,,M,20,
24,13,373,1,1,8,['d'],['d'],Y,Y,None,N,,,,,,,M,20,
24,14,374,7,7,8,['k'],['k'],Y,N,None,Y,,,,,,,M,20,
25,0,375,10,10,8,['k'],['k'],Y,N,None,Y,,,,,,,M,20,
25,1,376,4,4,8,['k'],['k'],Y,N,None,Y,,,,,,,M,20,
25,2,377,6,6,8,['k'],['k'],Y,Y,['space'],Y,,,,,,,M,20,
25,3,378,4,4,8,['d'],['d'],Y,N,None,Y,,,,,,,M,20,
25,4,379,2,2,8,['d'],['d'],Y,N,None,Y,,,,,,,M,20,
25,5,380,13,13,8,['k'],['k'],Y,N,None,Y,,,,,,,M,20,
25,6,381,4,4,8,['d'],['d'],Y,N,['space'],N,,,,,,,M,20,
25,7,382,9,9,8,['d'],['d'],Y,N,None,Y,,,,,,,M,20,
25,8,383,2,2,8,['d'],['d'],Y,N,['space'],N,,,,,,,M,20,
25,9,384,2,2,8,['d'],['d'],Y,Y,['space'],Y,,,,,,,M,20,
25,10,385,7,7,8,['d'],['d'],Y,N,None,Y,,,,,,,M,20,
25,11,386,7,7,8,['d'],['d'],Y,N,None,Y,,,,,,,M,20,
25,12,387,8,8,8,['k'],['d'],N,N,None,Y,,,,,,,M,20,
25,13,388,2,2,8,['d'],['d'],Y,Y,None,N,,,,,,,M,20,
25,14,389,1,1,8,['k'],['k'],Y,Y,['space'],Y,,,,,,,M,20,
26,0,390,14,14,8,['d'],['d'],Y,Y,None,N,,,,,,,M,20,
26,1,391,7,7,8,['d'],['d'],Y,N,None,Y,,,,,,,M,20,
26,2,392,6,6,8,['k'],['k'],Y,Y,['space'],Y,,,,,,,M,20,
26,3,393,3,3,8,['d'],['d'],Y,Y,['space'],Y,,,,,,,M,20,
26,4,394,4,4,8,['k'],['k'],Y,Y,['space'],Y,,,,,,,M,20,
26,5,395,14,14,8,['d'],['d'],Y,N,None,Y,,,,,,,M,20,
26,6,396,1,1,8,['d'],['d'],Y,N,None,Y,,,,,,,M,20,
26,7,397,0,0,8,['d'],['d'],Y,N,None,Y,,,,,,,M,20,
26,8,398,14,14,8,['k'],['k'],Y,N,None,Y,,,,,,,M,20,
26,9,399,1,1,8,['d'],['d'],Y,N,['space'],N,45,34,24,,,,M,20,
26,10,400,0,0,9,['d'],['d'],Y,,,,,,,,,,M,20,
26,11,401,0,0,9,['k'],['d'],N,,,,,,,,,,M,20,
26,12,402,8,8,9,['k'],['k'],Y,Y,['space'],Y,,,,,,,M,20,
26,13,403,9,9,9,['k'],['d'],N,N,None,Y,,,,,,,M,20,
26,14,404,5,5,9,['k'],['d'],N,N,None,Y,,,,,,,M,20,
27,0,405,11,11,9,['k'],['k'],Y,N,None,Y,,,,,,,M,20,
27,1,406,13,13,9,['k'],['d'],N,N,None,Y,,,,,,,M,20,
27,2,407,4,4,9,['k'],['k'],Y,Y,None,N,,,,,,,M,20,
27,3,408,5,5,9,['d'],['d'],Y,N,None,Y,,,,,,,M,20,
27,4,409,9,9,9,['d'],['k'],N,N,None,Y,,,,,,,M,20,
27,5,410,5,5,9,['d'],['k'],N,Y,None,N,,,,,,,M,20,
27,6,411,1,1,9,['k'],['k'],Y,N,None,Y,,,,,,,M,20,
27,7,412,0,0,9,['k'],['k'],Y,N,None,Y,,,,,,,M,20,
27,8,413,7,7,9,['d'],['d'],Y,Y,['space'],Y,,,,,,,M,20,
27,9,414,5,5,9,['k'],['k'],Y,Y,['space'],Y,,,,,,,M,20,
27,10,415,8,8,9,['k'],['k'],Y,N,None,Y,,,,,,,M,20,
27,11,416,3,3,9,['d'],['d'],Y,N,None,Y,,,,,,,M,20,
27,12,417,8,8,9,['k'],['k'],Y,Y,['space'],Y,,,,,,,M,20,
27,13,418,3,3,9,['d'],['d'],Y,N,None,Y,,,,,,,M,20,
27,14,419,3,3,9,['d'],['d'],Y,Y,None,N,,,,,,,M,20,
28,0,420,10,10,9,['d'],['k'],N,Y,['space'],Y,,,,,,,M,20,
28,1,421,4,4,9,['d'],['d'],Y,N,None,Y,,,,,,,M,20,
28,2,422,9,9,9,['d'],['d'],Y,Y,['space'],Y,,,,,,,M,20,
28,3,423,14,14,9,['k'],['d'],N,N,None,Y,,,,,,,M,20,
28,4,424,1,1,9,['k'],['k'],Y,N,None,Y,,,,,,,M,20,
28,5,425,13,13,9,['d'],['d'],Y,N,None,Y,,,,,,,M,20,
28,6,426,1,1,9,['d'],['d'],Y,N,None,Y,,,,,,,M,20,
28,7,427,4,4,9,['k'],['k'],Y,Y,['space'],Y,,,,,,,M,20,
28,8,428,4,4,9,['d'],['d'],Y,Y,None,N,,,,,,,M,20,
28,9,429,3,3,9,['d'],['d'],Y,Y,['space'],Y,,,,,,,M,20,
28,10,430,13,13,9,['d'],['d'],Y,Y,None,N,,,,,,,M,20,
28,11,431,9,9,9,['k'],['k'],Y,Y,None,N,,,,,,,M,20,
28,12,432,11,11,9,['d'],['k'],N,N,None,Y,,,,,,,M,20,
28,13,433,4,4,9,['k'],['k'],Y,N,None,Y,,,,,,,M,20,
28,14,434,5,5,9,['d'],['k'],N,Y,None,N,,,,,,,M,20,
29,0,435,12,12,9,['k'],['d'],N,Y,['space'],Y,,,,,,,M,20,
29,1,436,12,12,9,['k'],['k'],Y,N,None,Y,,,,,,,M,20,
29,2,437,11,11,9,['d'],['d'],Y,Y,['space'],Y,,,,,,,M,20,
29,3,438,6,6,9,['k'],['k'],Y,N,None,Y,,,,,,,M,20,
29,4,439,1,1,9,['k'],['k'],Y,Y,None,N,,,,,,,M,20,
29,5,440,7,7,9,['k'],['k'],Y,N,None,Y,,,,,,,M,20,
29,6,441,6,6,9,['d'],['d'],Y,N,None,Y,,,,,,,M,20,
29,7,442,3,3,9,['d'],['d'],Y,Y,None,N,,,,,,,M,20,
29,8,443,12,12,9,['d'],['d'],Y,N,None,Y,,,,,,,M,20,
29,9,444,5,5,9,['d'],['k'],N,N,None,Y,,,,,,,M,20,
29,10,445,14,14,9,['k'],['k'],Y,Y,['space'],Y,,,,,,,M,20,
29,11,446,0,0,9,['k'],['k'],Y,Y,None,N,,,,,,,M,20,
29,12,447,7,7,9,['k'],['d'],N,N,None,Y,,,,,,,M,20,
29,13,448,6,6,9,['k'],['d'],N,Y,None,N,,,,,,,M,20,
29,14,449,5,5,9,['k'],['k'],Y,Y,None,N,36,36,23,,,,M,20,
30,0,450,5,5,10,['d'],['k'],N,,,,,,,,,,M,20,
30,1,451,7,7,10,['d'],['d'],Y,,,,,,,,,,M,20,
30,2,452,5,5,10,['k'],['k'],Y,N,None,Y,,,,,,,M,20,
30,3,453,14,14,10,['d'],['d'],Y,Y,['space'],Y,,,,,,,M,20,
30,4,454,11,11,10,['d'],['d'],Y,Y,['space'],Y,,,,,,,M,20,
30,5,455,4,4,10,['k'],['k'],Y,Y,['space'],Y,,,,,,,M,20,
30,6,456,6,6,10,['k'],['k'],Y,Y,None,N,,,,,,,M,20,
30,7,457,8,8,10,['k'],['k'],Y,Y,['space'],Y,,,,,,,M,20,
30,8,458,3,3,10,['d'],['d'],Y,N,None,Y,,,,,,,M,20,
30,9,459,1,1,10,['d'],['d'],Y,Y,['space'],Y,,,,,,,M,20,
30,10,460,3,3,10,['d'],['d'],Y,N,None,Y,,,,,,,M,20,
30,11,461,10,10,10,['d'],['d'],Y,N,None,Y,,,,,,,M,20,
30,12,462,12,12,10,['k'],['k'],Y,Y,None,N,,,,,,,M,20,
30,13,463,10,10,10,['d'],['k'],N,N,None,Y,,,,,,,M,20,
30,14,464,8,8,10,['d'],['d'],Y,Y,['space'],Y,,,,,,,M,20,
31,0,465,10,10,10,['k'],['k'],Y,Y,None,N,,,,,,,M,20,
31,1,466,4,4,10,['k'],['k'],Y,Y,['space'],Y,,,,,,,M,20,
31,2,467,0,0,10,['d'],['k'],N,Y,None,N,,,,,,,M,20,
31,3,468,9,9,10,['d'],['d'],Y,Y,None,N,,,,,,,M,20,
31,4,469,14,14,10,['d'],['k'],N,Y,None,N,,,,,,,M,20,
31,5,470,13,13,10,['k'],['d'],N,Y,['space'],Y,,,,,,,M,20,
31,6,471,12,12,10,['k'],['d'],N,N,None,Y,,,,,,,M,20,
31,7,472,9,9,10,['d'],['d'],Y,Y,None,N,,,,,,,M,20,
31,8,473,6,6,10,['k'],['k'],Y,Y,None,N,,,,,,,M,20,
31,9,474,8,8,10,['d'],['d'],Y,N,None,Y,,,,,,,M,20,
31,10,475,10,10,10,['d'],['d'],Y,N,None,Y,,,,,,,M,20,
31,11,476,13,13,10,['d'],['k'],N,Y,None,N,,,,,,,M,20,
31,12,477,13,13,10,['d'],['k'],N,N,None,Y,,,,,,,M,20,
31,13,478,2,2,10,['k'],['k'],Y,Y,['space'],Y,,,,,,,M,20,
31,14,479,10,10,10,['d'],['d'],Y,N,None,Y,,,,,,,M,20,
32,0,480,8,8,10,['d'],['d'],Y,N,['space'],N,,,,,,,M,20,
32,1,481,8,8,10,['k'],['d'],N,Y,None,N,,,,,,,M,20,
32,2,482,5,5,10,['k'],['k'],Y,Y,['space'],Y,,,,,,,M,20,
32,3,483,4,4,10,['k'],['k'],Y,Y,None,N,,,,,,,M,20,
32,4,484,4,4,10,['k'],['d'],N,N,None,Y,,,,,,,M,20,
32,5,485,7,7,10,['d'],['d'],Y,Y,['space'],Y,,,,,,,M,20,
32,6,486,8,8,10,['k'],['k'],Y,N,None,Y,,,,,,,M,20,
32,7,487,2,2,10,['k'],['k'],Y,Y,None,N,,,,,,,M,20,
32,8,488,0,0,10,['d'],['d'],Y,N,None,Y,,,,,,,M,20,
32,9,489,6,6,10,['d'],['k'],N,Y,['space'],Y,,,,,,,M,20,
32,10,490,8,8,10,['k'],['k'],Y,Y,['space'],Y,,,,,,,M,20,
32,11,491,6,6,10,['d'],['d'],Y,N,None,Y,,,,,,,M,20,
32,12,492,2,2,10,['d'],['d'],Y,N,None,Y,,,,,,,M,20,
32,13,493,8,8,10,['k'],['k'],Y,N,None,Y,,,,,,,M,20,
32,14,494,14,14,10,['d'],['d'],Y,N,None,Y,,,,,,,M,20,
33,0,495,6,6,10,['k'],['k'],Y,N,None,Y,,,,,,,M,20,
33,1,496,8,8,10,['k'],['k'],Y,N,None,Y,,,,,,,M,20,
33,2,497,11,11,10,['d'],['d'],Y,N,None,Y,,,,,,,M,20,
33,3,498,10,10,10,['k'],['k'],Y,N,None,Y,,,,,,,M,20,
33,4,499,14,14,10,['d'],['d'],Y,N,['space'],N,39,34,25,,,,M,20,
33,5,500,10,10,11,None,,Timed out,,,,,,,Y,Y,Y,M,20,
33,6,501,14,14,11,['k'],['d'],Y,,,,,,,,Y,Y,M,20,
33,7,502,2,2,11,['d'],['k'],Y,N,None,Y,,,,,Y,Y,M,20,
33,8,503,14,14,11,None,,Timed out,Y,['space'],Y,,,,,Y,Y,M,20,
33,9,504,1,1,11,['d'],['k'],Y,Y,['space'],Y,,,,,Y,Y,M,20,
33,10,505,14,14,11,['k'],['d'],Y,Y,None,N,,,,,Y,Y,M,20,
33,11,506,12,12,11,['d'],['k'],Y,Y,['space'],Y,,,,,Y,Y,M,20,
33,12,507,14,14,11,['k'],['d'],Y,Y,['space'],Y,,,,,Y,Y,M,20,
33,13,508,0,0,11,['d'],['k'],Y,Y,['space'],Y,,,,,Y,Y,M,20,
33,14,509,10,10,11,['k'],['d'],Y,Y,None,N,,,,,Y,Y,M,20,
34,0,510,12,12,11,['k'],['d'],Y,Y,['space'],Y,,,,,Y,Y,M,20,
34,1,511,14,14,11,['d'],['d'],N,N,None,Y,,,,,Y,Y,M,20,
34,2,512,10,10,11,['k'],['d'],Y,N,None,Y,,,,,Y,Y,M,20,
34,3,513,1,1,11,None,,Timed out,N,None,Y,,,,,Y,Y,M,20,
34,4,514,5,5,11,['k'],['d'],Y,N,None,Y,,,,,Y,Y,M,20,
34,5,515,12,12,11,['k'],['d'],Y,Y,['space'],Y,,,,,Y,Y,M,20,
34,6,516,5,5,11,['d'],['k'],Y,Y,['space'],Y,,,,,Y,Y,M,20,
34,7,517,13,13,11,['k'],['d'],Y,N,None,Y,,,,,Y,Y,M,20,
34,8,518,4,4,11,['k'],['d'],Y,N,None,Y,,,,,Y,Y,M,20,
34,9,519,0,0,11,['k'],['d'],Y,N,None,Y,,,,,Y,Y,M,20,
34,10,520,2,2,11,['d'],['k'],Y,Y,['space'],Y,,,,,Y,Y,M,20,
34,11,521,12,12,11,['k'],['d'],Y,Y,['space'],Y,,,,,Y,Y,M,20,
34,12,522,12,12,11,['k'],['d'],Y,N,None,Y,,,,,Y,Y,M,20,
34,13,523,4,4,11,['d'],['k'],Y,N,['space'],N,,,,,Y,Y,M,20,
34,14,524,4,4,11,['d'],['k'],Y,N,None,Y,,,,,Y,Y,M,20,
35,0,525,5,5,11,['d'],['k'],Y,Y,['space'],Y,,,,,Y,Y,M,20,
35,1,526,6,6,11,['k'],['d'],Y,Y,['space'],Y,,,,,Y,Y,M,20,
35,2,527,11,11,11,['k'],['d'],Y,Y,['space'],Y,,,,,Y,Y,M,20,
35,3,528,11,11,11,['k'],['d'],Y,Y,['space'],Y,,,,,Y,Y,M,20,
35,4,529,0,0,11,None,,Timed out,N,None,Y,,,,,Y,Y,M,20,
35,5,530,10,10,11,['d'],['k'],Y,N,None,Y,,,,,Y,Y,M,20,
35,6,531,11,11,11,['d'],['k'],Y,Y,['space'],Y,,,,,Y,Y,M,20,
35,7,532,13,13,11,['d'],['k'],Y,N,None,Y,,,,,Y,Y,M,20,
35,8,533,0,0,11,['k'],['d'],Y,Y,None,N,,,,,Y,Y,M,20,
35,9,534,1,1,11,['k'],['k'],N,N,None,Y,,,,,Y,Y,M,20,
35,10,535,3,3,11,['k'],['d'],Y,N,['space'],N,,,,,Y,Y,M,20,
35,11,536,13,13,11,['k'],['d'],Y,N,['space'],N,,,,,Y,Y,M,20,
35,12,537,11,11,11,['d'],['k'],Y,Y,['space'],Y,,,,,Y,Y,M,20,
35,13,538,4,4,11,['d'],['k'],Y,N,None,Y,,,,,Y,Y,M,20,
35,14,539,9,9,11,['k'],['d'],Y,N,None,Y,,,,,Y,Y,M,20,
36,0,540,14,14,11,['d'],['k'],Y,N,None,Y,,,,,Y,Y,M,20,
36,1,541,5,5,11,['k'],['d'],Y,N,None,Y,,,,,Y,Y,M,20,
36,2,542,6,6,11,['k'],['d'],Y,Y,['space'],Y,,,,,Y,Y,M,20,
36,3,543,2,2,11,['d'],['d'],N,Y,['space'],Y,,,,,Y,Y,M,20,
36,4,544,10,10,11,['d'],['d'],N,Y,None,N,,,,,Y,Y,M,20,
36,5,545,3,3,11,['d'],['k'],Y,Y,None,N,,,,,Y,Y,M,20,
36,6,546,13,13,11,['k'],['d'],Y,Y,['space'],Y,,,,,Y,Y,M,20,
36,7,547,3,3,11,['d'],['k'],Y,Y,['space'],Y,,,,,Y,Y,M,20,
36,8,548,5,5,11,['d'],['k'],Y,N,None,Y,,,,,Y,Y,M,20,
36,9,549,3,3,11,['k'],['d'],Y,N,None,Y,42,40,25,,Y,Y,M,20,
36,10,550,6,6,12,['k'],['d'],Y,,,,,,,,Y,Y,M,20,
36,11,551,9,9,12,['d'],['k'],Y,,,,,,,,Y,Y,M,20,
36,12,552,9,9,12,['k'],['d'],Y,N,None,Y,,,,,Y,Y,M,20,
36,13,553,10,10,12,['d'],['k'],Y,N,None,Y,,,,,Y,Y,M,20,
36,14,554,9,9,12,['k'],['d'],Y,Y,['space'],Y,,,,,Y,Y,M,20,
37,0,555,6,6,12,['d'],['k'],Y,N,None,Y,,,,,Y,Y,M,20,
37,1,556,4,4,12,None,,Timed out,Y,['space'],Y,,,,,Y,Y,M,20,
37,2,557,7,7,12,['k'],['k'],N,N,None,Y,,,,,Y,Y,M,20,
37,3,558,5,5,12,['k'],['d'],Y,Y,['space'],Y,,,,,Y,Y,M,20,
37,4,559,2,2,12,['d'],['d'],N,Y,['space'],Y,,,,,Y,Y,M,20,
37,5,560,13,13,12,['k'],['d'],Y,N,None,Y,,,,,Y,Y,M,20,
37,6,561,1,1,12,['d'],['k'],Y,Y,['space'],Y,,,,,Y,Y,M,20,
37,7,562,2,2,12,None,,Timed out,Y,None,N,,,,,Y,Y,M,20,
37,8,563,2,2,12,['k'],['k'],N,Y,['space'],Y,,,,,Y,Y,M,20,
37,9,564,13,13,12,['k'],['d'],Y,N,None,Y,,,,,Y,Y,M,20,
37,10,565,10,10,12,['d'],['k'],Y,Y,['space'],Y,,,,,Y,Y,M,20,
37,11,566,14,14,12,None,,Timed out,N,None,Y,,,,,Y,Y,M,20,
37,12,567,3,3,12,['k'],['d'],Y,N,['space'],N,,,,,Y,Y,M,20,
37,13,568,13,13,12,['d'],['k'],Y,N,None,Y,,,,,Y,Y,M,20,
37,14,569,11,11,12,['d'],['k'],Y,Y,['space'],Y,,,,,Y,Y,M,20,
38,0,570,2,2,12,['d'],['k'],Y,N,None,Y,,,,,Y,Y,M,20,
38,1,571,1,1,12,['k'],['d'],Y,Y,None,N,,,,,Y,Y,M,20,
38,2,572,1,1,12,['k'],['d'],Y,Y,['space'],Y,,,,,Y,Y,M,20,
38,3,573,7,7,12,['k'],['d'],Y,N,None,Y,,,,,Y,Y,M,20,
38,4,574,14,14,12,['d'],['k'],Y,N,None,Y,,,,,Y,Y,M,20,
38,5,575,10,10,12,['d'],['d'],N,N,['space'],N,,,,,Y,Y,M,20,
38,6,576,5,5,12,['d'],['k'],Y,N,None,Y,,,,,Y,Y,M,20,
38,7,577,11,11,12,['d'],['d'],N,N,None,Y,,,,,Y,Y,M,20,
38,8,578,7,7,12,['d'],['k'],Y,Y,['space'],Y,,,,,Y,Y,M,20,
38,9,579,7,7,12,['k'],['d'],Y,Y,['space'],Y,,,,,Y,Y,M,20,
38,10,580,12,12,12,['d'],['k'],Y,N,None,Y,,,,,Y,Y,M,20,
38,11,581,1,1,12,['d'],['k'],Y,N,None,Y,,,,,Y,Y,M,20,
38,12,582,10,10,12,['k'],['d'],Y,Y,None,N,,,,,Y,Y,M,20,
38,13,583,4,4,12,['k'],['d'],Y,N,None,Y,,,,,Y,Y,M,20,
38,14,584,10,10,12,['d'],['k'],Y,N,None,Y,,,,,Y,Y,M,20,
39,0,585,9,9,12,['d'],['d'],N,N,None,Y,,,,,Y,Y,M,20,
39,1,586,2,2,12,['d'],['k'],Y,N,['space'],N,,,,,Y,Y,M,20,
39,2,587,11,11,12,['k'],['d'],Y,N,None,Y,,,,,Y,Y,M,20,
39,3,588,14,14,12,['d'],['k'],Y,Y,None,N,,,,,Y,Y,M,20,
39,4,589,7,7,12,['d'],['k'],Y,Y,['space'],Y,,,,,Y,Y,M,20,
39,5,590,8,8,12,['k'],['d'],Y,Y,['space'],Y,,,,,Y,Y,M,20,
39,6,591,14,14,12,['d'],['k'],Y,N,None,Y,,,,,Y,Y,M,20,
39,7,592,0,0,12,None,,Timed out,N,None,Y,,,,,Y,Y,M,20,
39,8,593,10,10,12,['d'],['k'],Y,Y,['space'],Y,,,,,Y,Y,M,20,
39,9,594,4,4,12,['k'],['d'],Y,Y,['space'],Y,,,,,Y,Y,M,20,
39,10,595,6,6,12,['d'],['k'],Y,Y,['space'],Y,,,,,Y,Y,M,20,
39,11,596,3,3,12,['d'],['k'],Y,Y,['space'],Y,,,,,Y,Y,M,20,
39,12,597,4,4,12,['d'],['k'],Y,Y,None,N,,,,,Y,Y,M,20,
39,13,598,13,13,12,['d'],['k'],Y,Y,['space'],Y,,,,,Y,Y,M,20,
39,14,599,9,9,12,['d'],['k'],Y,N,None,Y,40,40,23,,Y,Y,M,20,
