.thisRepN,.thisTrialN,.thisN,.thisIndex,.thisTrial,Block Number,Key pressed,Category,Correct?,Int Match?,Int Response,Int Correct?,Line Accuracy,Interference Accuracy,Matching Interferences,New instruction shown?,Buttons switched?,Fast?,gender,age,
0,0,0,7,7,1,['d'],['d'],Y,,,,,,,,,,F,20,
0,1,1,2,2,1,['d'],['d'],Y,,,,,,,,,,F,20,
0,2,2,1,1,1,['d'],['d'],Y,N,None,Y,,,,,,,F,20,
0,3,3,6,6,1,['k'],['d'],N,N,['space'],N,,,,,,,F,20,
0,4,4,2,2,1,['d'],['k'],N,N,['d'],N,,,,,,,F,20,
0,5,5,8,8,1,['k'],['d'],N,N,None,Y,,,,,,,F,20,
0,6,6,10,10,1,['k'],['k'],Y,Y,None,N,,,,,,,F,20,
0,7,7,13,13,1,['d'],['k'],N,Y,None,N,,,,,,,F,20,
0,8,8,14,14,1,['k'],['k'],Y,N,None,Y,,,,,,,F,20,
0,9,9,11,11,1,['d'],['k'],N,Y,['d'],N,,,,,,,F,20,
0,10,10,9,9,1,['d'],['d'],Y,Y,None,N,,,,,,,F,20,
0,11,11,13,13,1,['k'],['k'],Y,N,['space'],N,,,,,,,F,20,
0,12,12,5,5,1,['k'],['k'],Y,N,['space'],N,,,,,,,F,20,
0,13,13,4,4,1,['k'],['d'],N,Y,None,N,,,,,,,F,20,
0,14,14,4,4,1,['d'],['d'],Y,N,None,Y,,,,,,,F,20,
1,0,15,6,6,1,['k'],['k'],Y,N,None,Y,,,,,,,F,20,
1,1,16,6,6,1,['k'],['d'],N,Y,None,N,,,,,,,F,20,
1,2,17,6,6,1,['k'],['d'],N,N,['space'],N,,,,,,,F,20,
1,3,18,6,6,1,['d'],['k'],N,Y,None,N,,,,,,,F,20,
1,4,19,12,12,1,['d'],['d'],Y,N,None,Y,,,,,,,F,20,
1,5,20,10,10,1,['d'],['d'],Y,N,None,Y,,,,,,,F,20,
1,6,21,13,13,1,['k'],['k'],Y,Y,None,N,,,,,,,F,20,
1,7,22,2,2,1,['k'],['d'],N,Y,None,N,,,,,,,F,20,
1,8,23,11,11,1,['k'],['d'],N,Y,['space'],Y,,,,,,,F,20,
1,9,24,11,11,1,['k'],['d'],N,N,None,Y,,,,,,,F,20,
1,10,25,5,5,1,['d'],['d'],Y,Y,['k'],N,,,,,,,F,20,
1,11,26,3,3,1,['k'],['k'],Y,Y,None,N,,,,,,,F,20,
1,12,27,1,1,1,['k'],['k'],Y,N,None,Y,,,,,,,F,20,
1,13,28,12,12,1,['k'],['k'],Y,Y,['space'],Y,,,,,,,F,20,
1,14,29,14,14,1,['d'],['k'],N,Y,None,N,,,,,,,F,20,
2,0,30,4,4,1,['k'],['k'],Y,N,None,Y,,,,,,,F,20,
2,1,31,14,14,1,['k'],['k'],Y,N,['space'],N,,,,,,,F,20,
2,2,32,14,14,1,['d'],['d'],Y,N,['k'],N,,,,,,,F,20,
2,3,33,7,7,1,['k'],['k'],Y,N,None,Y,,,,,,,F,20,
2,4,34,4,4,1,['k'],['k'],Y,Y,['space'],Y,,,,,,,F,20,
2,5,35,4,4,1,['k'],['k'],Y,Y,['k'],N,,,,,,,F,20,
2,6,36,3,3,1,['d'],['d'],Y,Y,['space'],Y,,,,,,,F,20,
2,7,37,5,5,1,['d'],['d'],Y,Y,['space'],Y,,,,,,,F,20,
2,8,38,3,3,1,['k'],['k'],Y,N,None,Y,,,,,,,F,20,
2,9,39,10,10,1,['d'],['d'],Y,Y,['k'],N,,,,,,,F,20,
2,10,40,3,3,1,['k'],['k'],Y,N,None,Y,,,,,,,F,20,
2,11,41,8,8,1,['d'],['d'],Y,N,None,Y,,,,,,,F,20,
2,12,42,3,3,1,['k'],['d'],N,N,None,Y,,,,,,,F,20,
2,13,43,11,11,1,['d'],['d'],Y,N,None,Y,,,,,,,F,20,
2,14,44,3,3,1,['k'],['k'],Y,Y,None,N,,,,,,,F,20,
3,0,45,6,6,1,['d'],['d'],Y,Y,None,N,,,,,,,F,20,
3,1,46,1,1,1,['k'],['k'],Y,N,None,Y,,,,,,,F,20,
3,2,47,7,7,1,['k'],['k'],Y,Y,None,N,,,,,,,F,20,
3,3,48,13,13,1,['k'],['k'],Y,N,None,Y,,,,,,,F,20,
3,4,49,12,12,1,['d'],['k'],N,Y,['space'],Y,35,24,23,,,,F,20,
3,5,50,3,3,2,['k'],['d'],N,,,,,,,,,,F,20,
3,6,51,7,7,2,['k'],['d'],N,,,,,,,,,,F,20,
3,7,52,11,11,2,['k'],['d'],N,Y,['space'],Y,,,,,,,F,20,
3,8,53,6,6,2,['d'],['d'],Y,N,None,Y,,,,,,,F,20,
3,9,54,14,14,2,['d'],['k'],N,N,None,Y,,,,,,,F,20,
3,10,55,6,6,2,['d'],['d'],Y,N,None,Y,,,,,,,F,20,
3,11,56,11,11,2,['d'],['d'],Y,N,['space'],N,,,,,,,F,20,
3,12,57,10,10,2,['d'],['d'],Y,Y,['space'],Y,,,,,,,F,20,
3,13,58,9,9,2,['k'],['k'],Y,Y,None,N,,,,,,,F,20,
3,14,59,7,7,2,['k'],['k'],Y,Y,['space'],Y,,,,,,,F,20,
4,0,60,5,5,2,['k'],['k'],Y,Y,['space'],Y,,,,,,,F,20,
4,1,61,1,1,2,['k'],['k'],Y,Y,None,N,,,,,,,F,20,
4,2,62,10,10,2,['k'],['k'],Y,Y,['space'],Y,,,,,,,F,20,
4,3,63,12,12,2,['d'],['d'],Y,N,None,Y,,,,,,,F,20,
4,4,64,3,3,2,['d'],['d'],Y,Y,None,N,,,,,,,F,20,
4,5,65,11,11,2,['k'],['k'],Y,Y,['space'],Y,,,,,,,F,20,
4,6,66,9,9,2,['k'],['k'],Y,Y,None,N,,,,,,,F,20,
4,7,67,8,8,2,['d'],['k'],N,Y,None,N,,,,,,,F,20,
4,8,68,1,1,2,['k'],['k'],Y,N,None,Y,,,,,,,F,20,
4,9,69,7,7,2,['d'],['d'],Y,Y,['space'],Y,,,,,,,F,20,
4,10,70,14,14,2,['d'],['d'],Y,N,None,Y,,,,,,,F,20,
4,11,71,5,5,2,['d'],['k'],N,N,None,Y,,,,,,,F,20,
4,12,72,9,9,2,['d'],['d'],Y,N,None,Y,,,,,,,F,20,
4,13,73,11,11,2,['k'],['k'],Y,Y,['space'],Y,,,,,,,F,20,
4,14,74,13,13,2,['k'],['k'],Y,Y,['space'],Y,,,,,,,F,20,
5,0,75,1,1,2,['k'],['d'],N,Y,['space'],Y,,,,,,,F,20,
5,1,76,5,5,2,['d'],['k'],N,Y,['space'],Y,,,,,,,F,20,
5,2,77,1,1,2,['k'],['k'],Y,Y,None,N,,,,,,,F,20,
5,3,78,10,10,2,['d'],['k'],N,Y,None,N,,,,,,,F,20,
5,4,79,12,12,2,['d'],['d'],Y,N,None,Y,,,,,,,F,20,
5,5,80,13,13,2,['d'],['d'],Y,N,None,Y,,,,,,,F,20,
5,6,81,4,4,2,['d'],['d'],Y,Y,None,N,,,,,,,F,20,
5,7,82,9,9,2,['d'],['d'],Y,Y,None,N,,,,,,,F,20,
5,8,83,2,2,2,['k'],['d'],N,Y,['space'],Y,,,,,,,F,20,
5,9,84,13,13,2,['d'],['d'],Y,N,None,Y,,,,,,,F,20,
5,10,85,12,12,2,['d'],['d'],Y,Y,['space'],Y,,,,,,,F,20,
5,11,86,8,8,2,['k'],['k'],Y,Y,['space'],Y,,,,,,,F,20,
5,12,87,13,13,2,['d'],['k'],N,N,['space'],N,,,,,,,F,20,
5,13,88,5,5,2,['d'],['d'],Y,Y,['k'],N,,,,,,,F,20,
5,14,89,4,4,2,['d'],['k'],N,Y,None,N,,,,,,,F,20,
6,0,90,5,5,2,['k'],['k'],Y,N,None,Y,,,,,,,F,20,
6,1,91,11,11,2,['k'],['k'],Y,N,None,Y,,,,,,,F,20,
6,2,92,13,13,2,['k'],['k'],Y,N,None,Y,,,,,,,F,20,
6,3,93,0,0,2,['k'],['d'],N,N,['k'],N,,,,,,,F,20,
6,4,94,9,9,2,['k'],['k'],Y,N,['space'],N,,,,,,,F,20,
6,5,95,8,8,2,['k'],['k'],Y,N,None,Y,,,,,,,F,20,
6,6,96,1,1,2,['d'],['d'],Y,N,None,Y,,,,,,,F,20,
6,7,97,0,0,2,['d'],['d'],Y,N,None,Y,,,,,,,F,20,
6,8,98,10,10,2,['k'],['k'],Y,N,None,Y,,,,,,,F,20,
6,9,99,1,1,2,['d'],['k'],N,N,['space'],N,36,32,25,,,,F,20,
6,10,100,6,6,3,['d'],['d'],Y,,,,,,,,,,F,20,
6,11,101,13,13,3,['d'],['d'],Y,,,,,,,,,,F,20,
6,12,102,13,13,3,['k'],['k'],Y,Y,['space'],Y,,,,,,,F,20,
6,13,103,5,5,3,['d'],['d'],Y,Y,['d'],N,,,,,,,F,20,
6,14,104,13,13,3,['k'],['k'],Y,Y,['space'],Y,,,,,,,F,20,
7,0,105,2,2,3,['k'],['k'],Y,Y,['space'],Y,,,,,,,F,20,
7,1,106,2,2,3,['d'],['d'],Y,Y,['space'],Y,,,,,,,F,20,
7,2,107,13,13,3,['k'],['k'],Y,N,None,Y,,,,,,,F,20,
7,3,108,9,9,3,['d'],['d'],Y,Y,['space'],Y,,,,,,,F,20,
7,4,109,8,8,3,['k'],['k'],Y,Y,['space'],Y,,,,,,,F,20,
7,5,110,10,10,3,['k'],['k'],Y,N,None,Y,,,,,,,F,20,
7,6,111,5,5,3,['d'],['d'],Y,Y,None,N,,,,,,,F,20,
7,7,112,3,3,3,['k'],['k'],Y,Y,None,N,,,,,,,F,20,
7,8,113,12,12,3,['d'],['d'],Y,Y,['space'],Y,,,,,,,F,20,
7,9,114,12,12,3,['d'],['d'],Y,Y,['space'],Y,,,,,,,F,20,
7,10,115,2,2,3,['k'],['k'],Y,Y,['space'],Y,,,,,,,F,20,
7,11,116,1,1,3,['d'],['d'],Y,N,None,Y,,,,,,,F,20,
7,12,117,8,8,3,['k'],['k'],Y,N,None,Y,,,,,,,F,20,
7,13,118,11,11,3,['k'],['d'],N,N,None,Y,,,,,,,F,20,
7,14,119,13,13,3,['k'],['k'],Y,Y,None,N,,,,,,,F,20,
8,0,120,6,6,3,['d'],['d'],Y,Y,['space'],Y,,,,,,,F,20,
8,1,121,3,3,3,['d'],['d'],Y,N,None,Y,,,,,,,F,20,
8,2,122,13,13,3,['k'],['d'],N,N,None,Y,,,,,,,F,20,
8,3,123,3,3,3,['k'],['k'],Y,N,['space'],N,,,,,,,F,20,
8,4,124,8,8,3,['k'],['k'],Y,Y,['d'],N,,,,,,,F,20,
8,5,125,9,9,3,['k'],['d'],N,Y,['space'],Y,,,,,,,F,20,
8,6,126,4,4,3,['k'],['k'],Y,Y,['space'],Y,,,,,,,F,20,
8,7,127,7,7,3,['k'],['k'],Y,Y,['space'],Y,,,,,,,F,20,
8,8,128,0,0,3,['d'],['d'],Y,Y,['space'],Y,,,,,,,F,20,
8,9,129,9,9,3,['d'],['d'],Y,Y,['space'],Y,,,,,,,F,20,
8,10,130,7,7,3,['k'],['k'],Y,N,None,Y,,,,,,,F,20,
8,11,131,0,0,3,['d'],['d'],Y,N,['space'],N,,,,,,,F,20,
8,12,132,8,8,3,['k'],['d'],N,N,['space'],N,,,,,,,F,20,
8,13,133,11,11,3,['k'],['k'],Y,N,None,Y,,,,,,,F,20,
8,14,134,14,14,3,['k'],['k'],Y,Y,['space'],Y,,,,,,,F,20,
9,0,135,5,5,3,['k'],['k'],Y,Y,None,N,,,,,,,F,20,
9,1,136,12,12,3,['d'],['d'],Y,N,None,Y,,,,,,,F,20,
9,2,137,2,2,3,['k'],['d'],N,N,None,Y,,,,,,,F,20,
9,3,138,4,4,3,['k'],['k'],Y,N,None,Y,,,,,,,F,20,
9,4,139,0,0,3,['d'],['k'],N,Y,['space'],Y,,,,,,,F,20,
9,5,140,11,11,3,['k'],['k'],Y,N,None,Y,,,,,,,F,20,
9,6,141,0,0,3,['d'],['k'],N,N,['space'],N,,,,,,,F,20,
9,7,142,2,2,3,['k'],['k'],Y,N,None,Y,,,,,,,F,20,
9,8,143,8,8,3,['d'],['d'],Y,N,['space'],N,,,,,,,F,20,
9,9,144,4,4,3,['d'],['d'],Y,N,None,Y,,,,,,,F,20,
9,10,145,2,2,3,['d'],['d'],Y,Y,None,N,,,,,,,F,20,
9,11,146,10,10,3,['k'],['d'],N,N,None,Y,,,,,,,F,20,
9,12,147,6,6,3,['d'],['d'],Y,Y,['d'],N,,,,,,,F,20,
9,13,148,13,13,3,['d'],['k'],N,N,['space'],N,,,,,,,F,20,
9,14,149,4,4,3,['k'],['k'],Y,N,None,Y,41,34,25,,,,F,20,
10,0,150,14,14,4,['k'],['d'],N,,,,,,,,,,F,20,
10,1,151,3,3,4,['k'],['d'],N,,,,,,,,,,F,20,
10,2,152,0,0,4,['d'],['d'],Y,N,['space'],N,,,,,,,F,20,
10,3,153,7,7,4,['k'],['k'],Y,Y,['space'],Y,,,,,,,F,20,
10,4,154,5,5,4,['d'],['d'],Y,N,None,Y,,,,,,,F,20,
10,5,155,8,8,4,['d'],['d'],Y,Y,None,N,,,,,,,F,20,
10,6,156,7,7,4,['d'],['k'],N,Y,['space'],Y,,,,,,,F,20,
10,7,157,7,7,4,['d'],['d'],Y,Y,['space'],Y,,,,,,,F,20,
10,8,158,7,7,4,['k'],['k'],Y,Y,['space'],Y,,,,,,,F,20,
10,9,159,13,13,4,['d'],['d'],Y,Y,None,N,,,,,,,F,20,
10,10,160,14,14,4,['k'],['k'],Y,Y,None,N,,,,,,,F,20,
10,11,161,4,4,4,['k'],['k'],Y,N,None,Y,,,,,,,F,20,
10,12,162,0,0,4,['k'],['d'],N,Y,['space'],Y,,,,,,,F,20,
10,13,163,9,9,4,['d'],['d'],Y,Y,['space'],Y,,,,,,,F,20,
10,14,164,2,2,4,['k'],['k'],Y,N,None,Y,,,,,,,F,20,
11,0,165,3,3,4,['d'],['d'],Y,Y,None,N,,,,,,,F,20,
11,1,166,5,5,4,['d'],['d'],Y,N,['space'],N,,,,,,,F,20,
11,2,167,6,6,4,['d'],['d'],Y,Y,['space'],Y,,,,,,,F,20,
11,3,168,8,8,4,['d'],['d'],Y,N,None,Y,,,,,,,F,20,
11,4,169,2,2,4,['d'],['d'],Y,Y,['space'],Y,,,,,,,F,20,
11,5,170,4,4,4,['d'],['d'],Y,Y,None,N,,,,,,,F,20,
11,6,171,3,3,4,['d'],['d'],Y,N,None,Y,,,,,,,F,20,
11,7,172,7,7,4,['d'],['d'],Y,N,None,Y,,,,,,,F,20,
11,8,173,13,13,4,['d'],['d'],Y,N,None,Y,,,,,,,F,20,
11,9,174,1,1,4,['d'],['d'],Y,Y,['space'],Y,,,,,,,F,20,
11,10,175,7,7,4,['k'],['k'],Y,N,None,Y,,,,,,,F,20,
11,11,176,7,7,4,['d'],['k'],N,N,None,Y,,,,,,,F,20,
11,12,177,0,0,4,['d'],['d'],Y,N,None,Y,,,,,,,F,20,
11,13,178,7,7,4,['d'],['d'],Y,N,None,Y,,,,,,,F,20,
11,14,179,8,8,4,['d'],['d'],Y,Y,None,N,,,,,,,F,20,
12,0,180,0,0,4,['k'],['d'],N,N,None,Y,,,,,,,F,20,
12,1,181,8,8,4,['d'],['k'],N,N,None,Y,,,,,,,F,20,
12,2,182,1,1,4,['d'],['k'],N,N,None,Y,,,,,,,F,20,
12,3,183,1,1,4,['d'],['d'],Y,N,None,Y,,,,,,,F,20,
12,4,184,10,10,4,['k'],['k'],Y,Y,None,N,,,,,,,F,20,
12,5,185,12,12,4,['k'],['k'],Y,N,None,Y,,,,,,,F,20,
12,6,186,0,0,4,['d'],['d'],Y,Y,['space'],Y,,,,,,,F,20,
12,7,187,14,14,4,['k'],['k'],Y,Y,['space'],Y,,,,,,,F,20,
12,8,188,10,10,4,['k'],['k'],Y,N,None,Y,,,,,,,F,20,
12,9,189,3,3,4,['k'],['k'],Y,Y,['space'],Y,,,,,,,F,20,
12,10,190,8,8,4,['d'],['d'],Y,N,None,Y,,,,,,,F,20,
12,11,191,6,6,4,['d'],['d'],Y,N,None,Y,,,,,,,F,20,
12,12,192,10,10,4,['k'],['k'],Y,Y,['space'],Y,,,,,,,F,20,
12,13,193,1,1,4,['k'],['k'],Y,Y,None,N,,,,,,,F,20,
12,14,194,5,5,4,['k'],['k'],Y,Y,['space'],Y,,,,,,,F,20,
13,0,195,5,5,4,['k'],['k'],Y,Y,['space'],Y,,,,,,,F,20,
13,1,196,9,9,4,['k'],['k'],Y,Y,['space'],Y,,,,,,,F,20,
13,2,197,9,9,4,['d'],['d'],Y,N,None,Y,,,,,,,F,20,
13,3,198,5,5,4,['k'],['k'],Y,N,None,Y,,,,,,,F,20,
13,4,199,4,4,4,['d'],['d'],Y,N,None,Y,42,38,24,,,,F,20,
13,5,200,8,8,5,['d'],['d'],Y,,,,,,,,,,F,20,
13,6,201,2,2,5,['d'],['d'],Y,,,,,,,,,,F,20,
13,7,202,4,4,5,['d'],['d'],Y,N,None,Y,,,,,,,F,20,
13,8,203,0,0,5,['d'],['d'],Y,Y,['d'],N,,,,,,,F,20,
13,9,204,4,4,5,['d'],['d'],Y,Y,['space'],Y,,,,,,,F,20,
13,10,205,11,11,5,['k'],['k'],Y,Y,None,N,,,,,,,F,20,
13,11,206,14,14,5,['d'],['d'],Y,Y,['space'],Y,,,,,,,F,20,
13,12,207,13,13,5,['d'],['d'],Y,N,None,Y,,,,,,,F,20,
13,13,208,8,8,5,['d'],['d'],Y,Y,['space'],Y,,,,,,,F,20,
13,14,209,14,14,5,['k'],['k'],Y,N,None,Y,,,,,,,F,20,
14,0,210,14,14,5,['k'],['k'],Y,Y,['space'],Y,,,,,,,F,20,
14,1,211,14,14,5,['d'],['d'],Y,N,['space'],N,,,,,,,F,20,
14,2,212,8,8,5,['d'],['d'],Y,N,None,Y,,,,,,,F,20,
14,3,213,13,13,5,['d'],['d'],Y,Y,None,N,,,,,,,F,20,
14,4,214,2,2,5,['d'],['d'],Y,Y,['space'],Y,,,,,,,F,20,
14,5,215,4,4,5,['k'],['d'],N,N,['space'],N,,,,,,,F,20,
14,6,216,13,13,5,['k'],['k'],Y,N,['space'],N,,,,,,,F,20,
14,7,217,9,9,5,['d'],['d'],Y,N,None,Y,,,,,,,F,20,
14,8,218,5,5,5,['d'],['d'],Y,N,['space'],N,,,,,,,F,20,
14,9,219,14,14,5,['d'],['d'],Y,Y,None,N,,,,,,,F,20,
14,10,220,7,7,5,['k'],['k'],Y,Y,['space'],Y,,,,,,,F,20,
14,11,221,7,7,5,['k'],['k'],Y,N,None,Y,,,,,,,F,20,
14,12,222,14,14,5,['d'],['d'],Y,Y,['space'],Y,,,,,,,F,20,
14,13,223,10,10,5,['k'],['k'],Y,Y,None,N,,,,,,,F,20,
14,14,224,7,7,5,['k'],['k'],Y,Y,None,N,,,,,,,F,20,
15,0,225,12,12,5,['d'],['d'],Y,N,None,Y,,,,,,,F,20,
15,1,226,5,5,5,['k'],['k'],Y,N,None,Y,,,,,,,F,20,
15,2,227,9,9,5,['k'],['k'],Y,Y,None,N,,,,,,,F,20,
15,3,228,8,8,5,['d'],['d'],Y,N,None,Y,,,,,,,F,20,
15,4,229,12,12,5,['k'],['k'],Y,Y,['space'],Y,,,,,,,F,20,
15,5,230,12,12,5,['d'],['d'],Y,Y,None,N,,,,,,,F,20,
15,6,231,13,13,5,['k'],['d'],N,Y,None,N,,,,,,,F,20,
15,7,232,12,12,5,['d'],['d'],Y,N,None,Y,,,,,,,F,20,
15,8,233,13,13,5,['k'],['k'],Y,Y,['space'],Y,,,,,,,F,20,
15,9,234,7,7,5,['k'],['k'],Y,N,['space'],N,,,,,,,F,20,
15,10,235,12,12,5,['k'],['k'],Y,Y,None,N,,,,,,,F,20,
15,11,236,13,13,5,['k'],['k'],Y,Y,None,N,,,,,,,F,20,
15,12,237,8,8,5,['d'],['d'],Y,N,None,Y,,,,,,,F,20,
15,13,238,4,4,5,['k'],['d'],N,N,None,Y,,,,,,,F,20,
15,14,239,14,14,5,['k'],['k'],Y,Y,None,N,,,,,,,F,20,
16,0,240,0,0,5,['d'],['d'],Y,N,None,Y,,,,,,,F,20,
16,1,241,11,11,5,['d'],['k'],N,N,None,Y,,,,,,,F,20,
16,2,242,3,3,5,['k'],['k'],Y,N,None,Y,,,,,,,F,20,
16,3,243,9,9,5,['d'],['k'],N,Y,['space'],Y,,,,,,,F,20,
16,4,244,10,10,5,['k'],['k'],Y,N,None,Y,,,,,,,F,20,
16,5,245,5,5,5,['k'],['k'],Y,N,None,Y,,,,,,,F,20,
16,6,246,8,8,5,['d'],['d'],Y,N,['space'],N,,,,,,,F,20,
16,7,247,7,7,5,['k'],['k'],Y,Y,None,N,,,,,,,F,20,
16,8,248,14,14,5,['k'],['k'],Y,Y,None,N,,,,,,,F,20,
16,9,249,14,14,5,['d'],['d'],Y,Y,['space'],Y,45,28,25,,,,F,20,
16,10,250,0,0,6,['d'],['d'],Y,,,,,,,,,,F,20,
16,11,251,9,9,6,['k'],['k'],Y,,,,,,,,,,F,20,
16,12,252,6,6,6,['d'],['d'],Y,N,None,Y,,,,,,,F,20,
16,13,253,6,6,6,['d'],['d'],Y,Y,['d'],N,,,,,,,F,20,
16,14,254,12,12,6,['k'],['k'],Y,Y,None,N,,,,,,,F,20,
17,0,255,0,0,6,['k'],['k'],Y,N,None,Y,,,,,,,F,20,
17,1,256,5,5,6,['d'],['d'],Y,Y,['space'],Y,,,,,,,F,20,
17,2,257,11,11,6,['k'],['k'],Y,Y,['space'],Y,,,,,,,F,20,
17,3,258,9,9,6,['d'],['d'],Y,N,['space'],N,,,,,,,F,20,
17,4,259,3,3,6,['k'],['k'],Y,Y,None,N,,,,,,,F,20,
17,5,260,0,0,6,['k'],['k'],Y,Y,None,N,,,,,,,F,20,
17,6,261,3,3,6,['d'],['d'],Y,Y,None,N,,,,,,,F,20,
17,7,262,7,7,6,['d'],['d'],Y,N,None,Y,,,,,,,F,20,
17,8,263,6,6,6,['k'],['k'],Y,N,['space'],N,,,,,,,F,20,
17,9,264,1,1,6,['k'],['d'],N,Y,None,N,,,,,,,F,20,
17,10,265,2,2,6,['k'],['k'],Y,Y,None,N,,,,,,,F,20,
17,11,266,5,5,6,['d'],['d'],Y,Y,['space'],Y,,,,,,,F,20,
17,12,267,3,3,6,['d'],['d'],Y,N,None,Y,,,,,,,F,20,
17,13,268,14,14,6,['d'],['d'],Y,N,None,Y,,,,,,,F,20,
17,14,269,13,13,6,['d'],['d'],Y,N,None,Y,,,,,,,F,20,
18,0,270,0,0,6,['k'],['k'],Y,Y,['space'],Y,,,,,,,F,20,
18,1,271,3,3,6,['k'],['k'],Y,Y,['space'],Y,,,,,,,F,20,
18,2,272,11,11,6,['k'],['d'],N,N,None,Y,,,,,,,F,20,
18,3,273,4,4,6,['k'],['k'],Y,Y,['space'],Y,,,,,,,F,20,
18,4,274,6,6,6,['d'],['d'],Y,N,None,Y,,,,,,,F,20,
18,5,275,14,14,6,['d'],['k'],N,Y,['space'],Y,,,,,,,F,20,
18,6,276,12,12,6,['k'],['k'],Y,N,None,Y,,,,,,,F,20,
18,7,277,3,3,6,['k'],['k'],Y,Y,None,N,,,,,,,F,20,
18,8,278,2,2,6,['k'],['d'],N,N,None,Y,,,,,,,F,20,
18,9,279,2,2,6,['k'],['k'],Y,N,None,Y,,,,,,,F,20,
18,10,280,10,10,6,['d'],['d'],Y,Y,['space'],Y,,,,,,,F,20,
18,11,281,14,14,6,['k'],['k'],Y,Y,['space'],Y,,,,,,,F,20,
18,12,282,6,6,6,['k'],['d'],N,Y,['space'],Y,,,,,,,F,20,
18,13,283,12,12,6,['d'],['d'],Y,Y,['space'],Y,,,,,,,F,20,
18,14,284,2,2,6,['k'],['d'],N,Y,['space'],Y,,,,,,,F,20,
19,0,285,11,11,6,['d'],['d'],Y,Y,['space'],Y,,,,,,,F,20,
19,1,286,7,7,6,['k'],['k'],Y,Y,['space'],Y,,,,,,,F,20,
19,2,287,8,8,6,['d'],['d'],Y,N,None,Y,,,,,,,F,20,
19,3,288,1,1,6,['d'],['d'],Y,Y,['space'],Y,,,,,,,F,20,
19,4,289,10,10,6,['d'],['d'],Y,Y,['space'],Y,,,,,,,F,20,
19,5,290,12,12,6,['d'],['d'],Y,Y,['space'],Y,,,,,,,F,20,
19,6,291,5,5,6,['d'],['d'],Y,N,None,Y,,,,,,,F,20,
19,7,292,10,10,6,['d'],['d'],Y,N,None,Y,,,,,,,F,20,
19,8,293,1,1,6,['k'],['d'],N,N,['space'],N,,,,,,,F,20,
19,9,294,11,11,6,['k'],['k'],Y,N,None,Y,,,,,,,F,20,
19,10,295,8,8,6,['k'],['k'],Y,N,['space'],N,,,,,,,F,20,
19,11,296,12,12,6,['k'],['d'],N,N,None,Y,,,,,,,F,20,
19,12,297,8,8,6,['d'],['d'],Y,N,None,Y,,,,,,,F,20,
19,13,298,0,0,6,['d'],['d'],Y,N,None,Y,,,,,,,F,20,
19,14,299,3,3,6,['k'],['k'],Y,N,None,Y,42,36,25,,,,F,20,
20,0,300,8,8,7,['k'],['k'],Y,,,,,,,,,,F,20,
20,1,301,14,14,7,['d'],['d'],Y,,,,,,,,,,F,20,
20,2,302,0,0,7,['k'],['d'],N,N,None,Y,,,,,,,F,20,
20,3,303,4,4,7,['k'],['k'],Y,Y,['space'],Y,,,,,,,F,20,
20,4,304,0,0,7,['k'],['d'],N,N,['space'],N,,,,,,,F,20,
20,5,305,7,7,7,['k'],['k'],Y,N,None,Y,,,,,,,F,20,
20,6,306,14,14,7,['d'],['k'],N,N,['space'],N,,,,,,,F,20,
20,7,307,9,9,7,['d'],['d'],Y,Y,['space'],Y,,,,,,,F,20,
20,8,308,12,12,7,['d'],['d'],Y,N,None,Y,,,,,,,F,20,
20,9,309,1,1,7,['k'],['k'],Y,Y,['space'],Y,,,,,,,F,20,
20,10,310,1,1,7,['k'],['k'],Y,Y,['space'],Y,,,,,,,F,20,
20,11,311,9,9,7,['k'],['k'],Y,N,None,Y,,,,,,,F,20,
20,12,312,5,5,7,['d'],['d'],Y,Y,['space'],Y,,,,,,,F,20,
20,13,313,10,10,7,['k'],['k'],Y,N,None,Y,,,,,,,F,20,
20,14,314,10,10,7,['k'],['d'],N,Y,None,N,,,,,,,F,20,
21,0,315,2,2,7,['k'],['d'],N,N,None,Y,,,,,,,F,20,
21,1,316,2,2,7,['d'],['d'],Y,Y,None,N,,,,,,,F,20,
21,2,317,5,5,7,['k'],['k'],Y,N,None,Y,,,,,,,F,20,
21,3,318,4,4,7,['d'],['d'],Y,Y,['space'],Y,,,,,,,F,20,
21,4,319,3,3,7,['d'],['k'],N,N,None,Y,,,,,,,F,20,
21,5,320,8,8,7,['k'],['k'],Y,N,['space'],N,,,,,,,F,20,
21,6,321,1,1,7,['d'],['k'],N,N,None,Y,,,,,,,F,20,
21,7,322,1,1,7,['k'],['k'],Y,N,['space'],N,,,,,,,F,20,
21,8,323,6,6,7,['k'],['k'],Y,Y,None,N,,,,,,,F,20,
21,9,324,6,6,7,['d'],['d'],Y,Y,['space'],Y,,,,,,,F,20,
21,10,325,13,13,7,['d'],['d'],Y,Y,['space'],Y,,,,,,,F,20,
21,11,326,12,12,7,['k'],['d'],N,N,['space'],N,,,,,,,F,20,
21,12,327,2,2,7,['k'],['k'],Y,Y,['space'],Y,,,,,,,F,20,
21,13,328,10,10,7,['k'],['k'],Y,N,None,Y,,,,,,,F,20,
21,14,329,8,8,7,['k'],['k'],Y,Y,['space'],Y,,,,,,,F,20,
22,0,330,14,14,7,['d'],['d'],Y,N,None,Y,,,,,,,F,20,
22,1,331,10,10,7,['k'],['d'],N,Y,['space'],Y,,,,,,,F,20,
22,2,332,0,0,7,['d'],['d'],Y,Y,['space'],Y,,,,,,,F,20,
22,3,333,3,3,7,['d'],['d'],Y,Y,['space'],Y,,,,,,,F,20,
22,4,334,1,1,7,['d'],['d'],Y,Y,['d'],N,,,,,,,F,20,
22,5,335,14,14,7,['k'],['k'],Y,Y,['space'],Y,,,,,,,F,20,
22,6,336,2,2,7,['d'],['d'],Y,Y,['space'],Y,,,,,,,F,20,
22,7,337,3,3,7,['d'],['d'],Y,N,['space'],N,,,,,,,F,20,
22,8,338,5,5,7,['d'],['d'],Y,N,['space'],N,,,,,,,F,20,
22,9,339,6,6,7,['k'],['k'],Y,Y,['space'],Y,,,,,,,F,20,
22,10,340,5,5,7,['k'],['k'],Y,N,None,Y,,,,,,,F,20,
22,11,341,9,9,7,['d'],['d'],Y,Y,['space'],Y,,,,,,,F,20,
22,12,342,4,4,7,['d'],['k'],N,N,None,Y,,,,,,,F,20,
22,13,343,2,2,7,['d'],['d'],Y,Y,None,N,,,,,,,F,20,
22,14,344,8,8,7,['k'],['k'],Y,Y,['space'],Y,,,,,,,F,20,
23,0,345,0,0,7,['k'],['d'],N,Y,None,N,,,,,,,F,20,
23,1,346,11,11,7,['k'],['k'],Y,N,None,Y,,,,,,,F,20,
23,2,347,8,8,7,['d'],['d'],Y,N,None,Y,,,,,,,F,20,
23,3,348,7,7,7,['k'],['k'],Y,N,None,Y,,,,,,,F,20,
23,4,349,0,0,7,['k'],['k'],Y,Y,None,N,39,34,25,,,,F,20,
23,5,350,1,1,8,['k'],['k'],Y,,,,,,,,,,F,20,
23,6,351,1,1,8,['k'],['k'],Y,,,,,,,,,,F,20,
23,7,352,1,1,8,['d'],['d'],Y,N,None,Y,,,,,,,F,20,
23,8,353,11,11,8,['k'],['k'],Y,N,None,Y,,,,,,,F,20,
23,9,354,12,12,8,['k'],['k'],Y,N,None,Y,,,,,,,F,20,
23,10,355,5,5,8,['k'],['k'],Y,Y,['space'],Y,,,,,,,F,20,
23,11,356,4,4,8,['d'],['d'],Y,N,None,Y,,,,,,,F,20,
23,12,357,0,0,8,['d'],['k'],N,N,None,Y,,,,,,,F,20,
23,13,358,5,5,8,['k'],['d'],N,Y,['space'],Y,,,,,,,F,20,
23,14,359,9,9,8,['d'],['d'],Y,N,['space'],N,,,,,,,F,20,
24,0,360,0,0,8,['d'],['d'],Y,N,['space'],N,,,,,,,F,20,
24,1,361,1,1,8,['d'],['d'],Y,N,None,Y,,,,,,,F,20,
24,2,362,9,9,8,['k'],['k'],Y,N,['d'],N,,,,,,,F,20,
24,3,363,5,5,8,['k'],['d'],N,Y,['space'],Y,,,,,,,F,20,
24,4,364,11,11,8,['k'],['d'],N,Y,['space'],Y,,,,,,,F,20,
24,5,365,2,2,8,['k'],['k'],Y,N,None,Y,,,,,,,F,20,
24,6,366,9,9,8,['k'],['k'],Y,N,None,Y,,,,,,,F,20,
24,7,367,6,6,8,['d'],['d'],Y,Y,['space'],Y,,,,,,,F,20,
24,8,368,3,3,8,['k'],['k'],Y,Y,['space'],Y,,,,,,,F,20,
24,9,369,3,3,8,['k'],['k'],Y,Y,['space'],Y,,,,,,,F,20,
24,10,370,8,8,8,['k'],['d'],N,Y,['space'],Y,,,,,,,F,20,
24,11,371,14,14,8,['d'],['d'],Y,Y,['space'],Y,,,,,,,F,20,
24,12,372,12,12,8,['k'],['k'],Y,Y,['space'],Y,,,,,,,F,20,
24,13,373,13,13,8,['k'],['k'],Y,N,None,Y,,,,,,,F,20,
24,14,374,10,10,8,['d'],['d'],Y,Y,['space'],Y,,,,,,,F,20,
25,0,375,4,4,8,['d'],['d'],Y,N,None,Y,,,,,,,F,20,
25,1,376,12,12,8,['d'],['k'],N,N,['space'],N,,,,,,,F,20,
25,2,377,7,7,8,['k'],['k'],Y,N,None,Y,,,,,,,F,20,
25,3,378,11,11,8,['d'],['d'],Y,Y,None,N,,,,,,,F,20,
25,4,379,5,5,8,['d'],['d'],Y,N,None,Y,,,,,,,F,20,
25,5,380,5,5,8,['k'],['d'],N,Y,['space'],Y,,,,,,,F,20,
25,6,381,7,7,8,['k'],['k'],Y,Y,None,N,,,,,,,F,20,
25,7,382,9,9,8,['d'],['d'],Y,N,['space'],N,,,,,,,F,20,
25,8,383,4,4,8,['k'],['k'],Y,Y,['space'],Y,,,,,,,F,20,
25,9,384,2,2,8,['k'],['d'],N,Y,['space'],Y,,,,,,,F,20,
25,10,385,3,3,8,['d'],['k'],N,Y,['space'],Y,,,,,,,F,20,
25,11,386,4,4,8,['k'],['d'],N,N,['space'],N,,,,,,,F,20,
25,12,387,8,8,8,['k'],['k'],Y,N,None,Y,,,,,,,F,20,
25,13,388,9,9,8,['d'],['d'],Y,Y,['space'],Y,,,,,,,F,20,
25,14,389,4,4,8,['k'],['k'],Y,N,['space'],N,,,,,,,F,20,
26,0,390,0,0,8,['d'],['d'],Y,N,['space'],N,,,,,,,F,20,
26,1,391,3,3,8,['d'],['k'],N,N,None,Y,,,,,,,F,20,
26,2,392,6,6,8,['d'],['d'],Y,N,None,Y,,,,,,,F,20,
26,3,393,12,12,8,['k'],['d'],N,N,['space'],N,,,,,,,F,20,
26,4,394,1,1,8,['k'],['k'],Y,Y,['space'],Y,,,,,,,F,20,
26,5,395,7,7,8,['d'],['d'],Y,Y,['space'],Y,,,,,,,F,20,
26,6,396,10,10,8,['k'],['k'],Y,Y,['space'],Y,,,,,,,F,20,
26,7,397,13,13,8,['d'],['k'],N,Y,['space'],Y,,,,,,,F,20,
26,8,398,13,13,8,['d'],['d'],Y,Y,['space'],Y,,,,,,,F,20,
26,9,399,4,4,8,['k'],['k'],Y,N,None,Y,37,37,23,,,,F,20,
26,10,400,11,11,9,['k'],['k'],Y,,,,,,,,,,F,20,
26,11,401,11,11,9,['d'],['d'],Y,,,,,,,,,,F,20,
26,12,402,2,2,9,['k'],['k'],Y,N,None,Y,,,,,,,F,20,
26,13,403,5,5,9,['k'],['k'],Y,N,None,Y,,,,,,,F,20,
26,14,404,4,4,9,['d'],['d'],Y,Y,['space'],Y,,,,,,,F,20,
27,0,405,6,6,9,['k'],['k'],Y,Y,['space'],Y,,,,,,,F,20,
27,1,406,3,3,9,['k'],['d'],N,N,None,Y,,,,,,,F,20,
27,2,407,12,12,9,['k'],['k'],Y,N,None,Y,,,,,,,F,20,
27,3,408,9,9,9,['k'],['k'],Y,Y,['space'],Y,,,,,,,F,20,
27,4,409,13,13,9,['k'],['d'],N,N,None,Y,,,,,,,F,20,
27,5,410,13,13,9,['d'],['d'],Y,Y,['space'],Y,,,,,,,F,20,
27,6,411,4,4,9,['d'],['k'],N,Y,['space'],Y,,,,,,,F,20,
27,7,412,10,10,9,['k'],['k'],Y,N,None,Y,,,,,,,F,20,
27,8,413,10,10,9,['k'],['k'],Y,Y,['space'],Y,,,,,,,F,20,
27,9,414,7,7,9,['d'],['d'],Y,N,['space'],N,,,,,,,F,20,
27,10,415,1,1,9,['k'],['d'],N,N,None,Y,,,,,,,F,20,
27,11,416,3,3,9,['k'],['k'],Y,N,None,Y,,,,,,,F,20,
27,12,417,4,4,9,['k'],['d'],N,N,None,Y,,,,,,,F,20,
27,13,418,12,12,9,['d'],['d'],Y,Y,['space'],Y,,,,,,,F,20,
27,14,419,2,2,9,['d'],['k'],N,Y,['space'],Y,,,,,,,F,20,
28,0,420,10,10,9,['k'],['k'],Y,Y,None,N,,,,,,,F,20,
28,1,421,11,11,9,['k'],['k'],Y,N,None,Y,,,,,,,F,20,
28,2,422,2,2,9,['k'],['k'],Y,Y,None,N,,,,,,,F,20,
28,3,423,2,2,9,['d'],['d'],Y,N,None,Y,,,,,,,F,20,
28,4,424,1,1,9,['k'],['k'],Y,N,None,Y,,,,,,,F,20,
28,5,425,10,10,9,['d'],['k'],N,Y,['space'],Y,,,,,,,F,20,
28,6,426,2,2,9,['k'],['k'],Y,Y,None,N,,,,,,,F,20,
28,7,427,11,11,9,['k'],['k'],Y,N,['space'],N,,,,,,,F,20,
28,8,428,7,7,9,['d'],['d'],Y,Y,['space'],Y,,,,,,,F,20,
28,9,429,11,11,9,['k'],['k'],Y,N,None,Y,,,,,,,F,20,
28,10,430,12,12,9,['k'],['k'],Y,Y,None,N,,,,,,,F,20,
28,11,431,9,9,9,['k'],['k'],Y,N,['space'],N,,,,,,,F,20,
28,12,432,9,9,9,['d'],['d'],Y,N,None,Y,,,,,,,F,20,
28,13,433,6,6,9,['d'],['d'],Y,N,None,Y,,,,,,,F,20,
28,14,434,4,4,9,['d'],['d'],Y,N,None,Y,,,,,,,F,20,
29,0,435,0,0,9,['k'],['d'],N,N,None,Y,,,,,,,F,20,
29,1,436,0,0,9,['k'],['k'],Y,N,None,Y,,,,,,,F,20,
29,2,437,14,14,9,['d'],['d'],Y,N,['space'],N,,,,,,,F,20,
29,3,438,1,1,9,['k'],['k'],Y,Y,['space'],Y,,,,,,,F,20,
29,4,439,14,14,9,['k'],['d'],N,N,['space'],N,,,,,,,F,20,
29,5,440,12,12,9,['d'],['d'],Y,Y,None,N,,,,,,,F,20,
29,6,441,8,8,9,['k'],['k'],Y,Y,['space'],Y,,,,,,,F,20,
29,7,442,0,0,9,['d'],['d'],Y,N,['space'],N,,,,,,,F,20,
29,8,443,14,14,9,['d'],['k'],N,N,None,Y,,,,,,,F,20,
29,9,444,14,14,9,['k'],['k'],Y,Y,['space'],Y,,,,,,,F,20,
29,10,445,5,5,9,['k'],['k'],Y,N,None,Y,,,,,,,F,20,
29,11,446,9,9,9,['d'],['k'],N,N,None,Y,,,,,,,F,20,
29,12,447,7,7,9,['k'],['d'],N,Y,['space'],Y,,,,,,,F,20,
29,13,448,13,13,9,['d'],['d'],Y,N,['space'],N,,,,,,,F,20,
29,14,449,11,11,9,['k'],['k'],Y,N,['space'],N,38,35,19,,,,F,20,
30,0,450,1,1,10,['k'],['k'],Y,,,,,,,,,,F,20,
30,1,451,14,14,10,['d'],['d'],Y,,,,,,,,,,F,20,
30,2,452,13,13,10,['d'],['d'],Y,Y,None,N,,,,,,,F,20,
30,3,453,10,10,10,['d'],['d'],Y,Y,None,N,,,,,,,F,20,
30,4,454,14,14,10,['d'],['d'],Y,Y,['k'],N,,,,,,,F,20,
30,5,455,8,8,10,['k'],['k'],Y,N,None,Y,,,,,,,F,20,
30,6,456,12,12,10,['k'],['k'],Y,Y,['space'],Y,,,,,,,F,20,
30,7,457,6,6,10,['k'],['k'],Y,Y,None,N,,,,,,,F,20,
30,8,458,12,12,10,['k'],['k'],Y,Y,['space'],Y,,,,,,,F,20,
30,9,459,13,13,10,['k'],['k'],Y,N,['space'],N,,,,,,,F,20,
30,10,460,6,6,10,['k'],['k'],Y,Y,['space'],Y,,,,,,,F,20,
30,11,461,0,0,10,['k'],['k'],Y,N,None,Y,,,,,,,F,20,
30,12,462,10,10,10,['k'],['k'],Y,N,None,Y,,,,,,,F,20,
30,13,463,1,1,10,['d'],['d'],Y,N,['k'],N,,,,,,,F,20,
30,14,464,10,10,10,['d'],['d'],Y,N,None,Y,,,,,,,F,20,
31,0,465,6,6,10,['k'],['k'],Y,N,None,Y,,,,,,,F,20,
31,1,466,0,0,10,['k'],['d'],N,N,['space'],N,,,,,,,F,20,
31,2,467,11,11,10,['k'],['d'],N,N,None,Y,,,,,,,F,20,
31,3,468,4,4,10,['d'],['d'],Y,Y,['space'],Y,,,,,,,F,20,
31,4,469,12,12,10,['d'],['d'],Y,N,['space'],N,,,,,,,F,20,
31,5,470,1,1,10,['d'],['d'],Y,N,['space'],N,,,,,,,F,20,
31,6,471,1,1,10,['k'],['k'],Y,N,['space'],N,,,,,,,F,20,
31,7,472,11,11,10,['k'],['k'],Y,Y,['space'],Y,,,,,,,F,20,
31,8,473,5,5,10,['d'],['d'],Y,N,None,Y,,,,,,,F,20,
31,9,474,9,9,10,['k'],['k'],Y,Y,['space'],Y,,,,,,,F,20,
31,10,475,3,3,10,['k'],['k'],Y,N,None,Y,,,,,,,F,20,
31,11,476,12,12,10,['d'],['k'],N,Y,['space'],Y,,,,,,,F,20,
31,12,477,3,3,10,['d'],['d'],Y,Y,['space'],Y,,,,,,,F,20,
31,13,478,10,10,10,['d'],['d'],Y,Y,['space'],Y,,,,,,,F,20,
31,14,479,10,10,10,['k'],['k'],Y,Y,None,N,,,,,,,F,20,
32,0,480,9,9,10,['d'],['k'],N,N,['space'],N,,,,,,,F,20,
32,1,481,6,6,10,['d'],['d'],Y,Y,None,N,,,,,,,F,20,
32,2,482,0,0,10,['k'],['d'],N,Y,['space'],Y,,,,,,,F,20,
32,3,483,10,10,10,['k'],['k'],Y,N,None,Y,,,,,,,F,20,
32,4,484,3,3,10,['k'],['k'],Y,Y,None,N,,,,,,,F,20,
32,5,485,8,8,10,['k'],['k'],Y,N,['space'],N,,,,,,,F,20,
32,6,486,5,5,10,['d'],['d'],Y,N,['space'],N,,,,,,,F,20,
32,7,487,1,1,10,['k'],['k'],Y,Y,None,N,,,,,,,F,20,
32,8,488,3,3,10,['k'],['k'],Y,Y,['space'],Y,,,,,,,F,20,
32,9,489,0,0,10,['d'],['d'],Y,Y,['space'],Y,,,,,,,F,20,
32,10,490,5,5,10,['k'],['k'],Y,N,None,Y,,,,,,,F,20,
32,11,491,0,0,10,['d'],['d'],Y,N,None,Y,,,,,,,F,20,
32,12,492,10,10,10,['k'],['k'],Y,N,None,Y,,,,,,,F,20,
32,13,493,5,5,10,['k'],['d'],N,Y,['space'],Y,,,,,,,F,20,
32,14,494,9,9,10,['d'],['d'],Y,N,None,Y,,,,,,,F,20,
33,0,495,5,5,10,['d'],['d'],Y,N,['space'],N,,,,,,,F,20,
33,1,496,2,2,10,['d'],['d'],Y,Y,['space'],Y,,,,,,,F,20,
33,2,497,5,5,10,['k'],['k'],Y,Y,['space'],Y,,,,,,,F,20,
33,3,498,6,6,10,['d'],['d'],Y,N,None,Y,,,,,,,F,20,
33,4,499,6,6,10,['k'],['d'],N,Y,['space'],Y,43,30,24,,,,F,20,
33,5,500,14,14,11,['d'],['k'],Y,,,,,,,Y,Y,Y,F,20,
33,6,501,6,6,11,['d'],['k'],Y,,,,,,,,Y,Y,F,20,
33,7,502,10,10,11,['d'],['d'],N,N,None,Y,,,,,Y,Y,F,20,
33,8,503,6,6,11,['k'],['d'],Y,N,['space'],N,,,,,Y,Y,F,20,
33,9,504,6,6,11,['k'],['k'],N,Y,['space'],Y,,,,,Y,Y,F,20,
33,10,505,4,4,11,['k'],['d'],Y,Y,['space'],Y,,,,,Y,Y,F,20,
33,11,506,4,4,11,['d'],['k'],Y,N,['space'],N,,,,,Y,Y,F,20,
33,12,507,14,14,11,['d'],['k'],Y,Y,['space'],Y,,,,,Y,Y,F,20,
33,13,508,10,10,11,['d'],['k'],Y,N,['space'],N,,,,,Y,Y,F,20,
33,14,509,3,3,11,['d'],['k'],Y,Y,['space'],Y,,,,,Y,Y,F,20,
34,0,510,13,13,11,['k'],['d'],Y,N,None,Y,,,,,Y,Y,F,20,
34,1,511,7,7,11,['d'],['k'],Y,Y,['space'],Y,,,,,Y,Y,F,20,
34,2,512,8,8,11,['k'],['d'],Y,N,None,Y,,,,,Y,Y,F,20,
34,3,513,9,9,11,['d'],['k'],Y,N,['space'],N,,,,,Y,Y,F,20,
34,4,514,5,5,11,['d'],['d'],N,N,None,Y,,,,,Y,Y,F,20,
34,5,515,11,11,11,['k'],['d'],Y,N,None,Y,,,,,Y,Y,F,20,
34,6,516,6,6,11,['k'],['d'],Y,N,['space'],N,,,,,Y,Y,F,20,
34,7,517,10,10,11,['d'],['d'],N,Y,['space'],Y,,,,,Y,Y,F,20,
34,8,518,7,7,11,['d'],['k'],Y,Y,['space'],Y,,,,,Y,Y,F,20,
34,9,519,2,2,11,['k'],['d'],Y,N,None,Y,,,,,Y,Y,F,20,
34,10,520,6,6,11,['k'],['d'],Y,Y,['space'],Y,,,,,Y,Y,F,20,
34,11,521,11,11,11,['d'],['k'],Y,N,['space'],N,,,,,Y,Y,F,20,
34,12,522,9,9,11,['d'],['k'],Y,Y,['space'],Y,,,,,Y,Y,F,20,
34,13,523,9,9,11,['d'],['k'],Y,Y,['space'],Y,,,,,Y,Y,F,20,
34,14,524,3,3,11,['d'],['d'],N,Y,['space'],Y,,,,,Y,Y,F,20,
35,0,525,6,6,11,['d'],['k'],Y,N,['space'],N,,,,,Y,Y,F,20,
35,1,526,1,1,11,['k'],['d'],Y,N,None,Y,,,,,Y,Y,F,20,
35,2,527,8,8,11,['k'],['d'],Y,N,['d'],N,,,,,Y,Y,F,20,
35,3,528,12,12,11,['k'],['k'],N,Y,None,N,,,,,Y,Y,F,20,
35,4,529,9,9,11,['d'],['k'],Y,Y,['space'],Y,,,,,Y,Y,F,20,
35,5,530,11,11,11,['d'],['d'],N,N,['space'],N,,,,,Y,Y,F,20,
35,6,531,1,1,11,['d'],['k'],Y,N,['space'],N,,,,,Y,Y,F,20,
35,7,532,4,4,11,['d'],['k'],Y,Y,['space'],Y,,,,,Y,Y,F,20,
35,8,533,2,2,11,None,,Timed out,Y,['space'],Y,,,,,Y,Y,F,20,
35,9,534,13,13,11,['d'],['k'],Y,Y,None,N,,,,,Y,Y,F,20,
35,10,535,1,1,11,['d'],['k'],Y,N,None,Y,,,,,Y,Y,F,20,
35,11,536,13,13,11,['k'],['d'],Y,Y,['space'],Y,,,,,Y,Y,F,20,
35,12,537,11,11,11,['k'],['d'],Y,N,['space'],N,,,,,Y,Y,F,20,
35,13,538,10,10,11,['d'],['k'],Y,N,None,Y,,,,,Y,Y,F,20,
35,14,539,12,12,11,['d'],['k'],Y,Y,['space'],Y,,,,,Y,Y,F,20,
36,0,540,4,4,11,['d'],['k'],Y,N,None,Y,,,,,Y,Y,F,20,
36,1,541,7,7,11,['d'],['k'],Y,Y,['space'],Y,,,,,Y,Y,F,20,
36,2,542,9,9,11,['d'],['k'],Y,Y,['space'],Y,,,,,Y,Y,F,20,
36,3,543,4,4,11,['d'],['k'],Y,N,['space'],N,,,,,Y,Y,F,20,
36,4,544,13,13,11,['k'],['d'],Y,N,None,Y,,,,,Y,Y,F,20,
36,5,545,0,0,11,['k'],['k'],N,N,None,Y,,,,,Y,Y,F,20,
36,6,546,4,4,11,['d'],['k'],Y,N,['space'],N,,,,,Y,Y,F,20,
36,7,547,0,0,11,['d'],['k'],Y,N,['space'],N,,,,,Y,Y,F,20,
36,8,548,3,3,11,['k'],['d'],Y,N,None,Y,,,,,Y,Y,F,20,
36,9,549,12,12,11,['k'],['k'],N,Y,None,N,40,31,21,,Y,Y,F,20,
36,10,550,2,2,12,['d'],['k'],Y,,,,,,,,Y,Y,F,20,
36,11,551,14,14,12,['d'],['k'],Y,,,,,,,,Y,Y,F,20,
36,12,552,2,2,12,['k'],['d'],Y,N,None,Y,,,,,Y,Y,F,20,
36,13,553,0,0,12,['d'],['k'],Y,Y,['space'],Y,,,,,Y,Y,F,20,
36,14,554,13,13,12,['k'],['d'],Y,Y,['space'],Y,,,,,Y,Y,F,20,
37,0,555,2,2,12,['k'],['d'],Y,N,['space'],N,,,,,Y,Y,F,20,
37,1,556,7,7,12,['k'],['d'],Y,Y,['space'],Y,,,,,Y,Y,F,20,
37,2,557,11,11,12,['d'],['k'],Y,N,None,Y,,,,,Y,Y,F,20,
37,3,558,13,13,12,['d'],['k'],Y,N,['space'],N,,,,,Y,Y,F,20,
37,4,559,8,8,12,['d'],['k'],Y,Y,['space'],Y,,,,,Y,Y,F,20,
37,5,560,2,2,12,['k'],['d'],Y,N,['space'],N,,,,,Y,Y,F,20,
37,6,561,7,7,12,['d'],['d'],N,Y,['space'],Y,,,,,Y,Y,F,20,
37,7,562,9,9,12,['k'],['d'],Y,Y,['space'],Y,,,,,Y,Y,F,20,
37,8,563,4,4,12,['k'],['d'],Y,N,['space'],N,,,,,Y,Y,F,20,
37,9,564,11,11,12,['d'],['k'],Y,Y,['space'],Y,,,,,Y,Y,F,20,
37,10,565,6,6,12,['d'],['k'],Y,N,['space'],N,,,,,Y,Y,F,20,
37,11,566,6,6,12,['d'],['k'],Y,Y,['space'],Y,,,,,Y,Y,F,20,
37,12,567,8,8,12,['k'],['d'],Y,Y,['space'],Y,,,,,Y,Y,F,20,
37,13,568,2,2,12,['d'],['d'],N,Y,None,N,,,,,Y,Y,F,20,
37,14,569,2,2,12,['k'],['d'],Y,Y,['space'],Y,,,,,Y,Y,F,20,
38,0,570,0,0,12,['d'],['k'],Y,Y,['space'],Y,,,,,Y,Y,F,20,
38,1,571,8,8,12,['d'],['k'],Y,Y,['space'],Y,,,,,Y,Y,F,20,
38,2,572,12,12,12,['k'],['d'],Y,Y,['space'],Y,,,,,Y,Y,F,20,
38,3,573,2,2,12,['k'],['d'],Y,N,['space'],N,,,,,Y,Y,F,20,
38,4,574,12,12,12,['d'],['k'],Y,N,None,Y,,,,,Y,Y,F,20,
38,5,575,0,0,12,['d'],['k'],Y,Y,['space'],Y,,,,,Y,Y,F,20,
38,6,576,3,3,12,['d'],['k'],Y,N,None,Y,,,,,Y,Y,F,20,
38,7,577,11,11,12,['d'],['k'],Y,N,None,Y,,,,,Y,Y,F,20,
38,8,578,1,1,12,['d'],['k'],Y,N,None,Y,,,,,Y,Y,F,20,
38,9,579,10,10,12,['k'],['d'],Y,N,None,Y,,,,,Y,Y,F,20,
38,10,580,9,9,12,['d'],['k'],Y,Y,['space'],Y,,,,,Y,Y,F,20,
38,11,581,7,7,12,['k'],['d'],Y,Y,['space'],Y,,,,,Y,Y,F,20,
38,12,582,14,14,12,['k'],['d'],Y,Y,['space'],Y,,,,,Y,Y,F,20,
38,13,583,7,7,12,['d'],['k'],Y,N,None,Y,,,,,Y,Y,F,20,
38,14,584,14,14,12,['d'],['k'],Y,Y,['space'],Y,,,,,Y,Y,F,20,
39,0,585,14,14,12,['k'],['k'],N,N,None,Y,,,,,Y,Y,F,20,
39,1,586,11,11,12,['k'],['d'],Y,N,['space'],N,,,,,Y,Y,F,20,
39,2,587,6,6,12,['d'],['k'],Y,Y,['space'],Y,,,,,Y,Y,F,20,
39,3,588,12,12,12,['d'],['k'],Y,N,None,Y,,,,,Y,Y,F,20,
39,4,589,9,9,12,['k'],['d'],Y,N,None,Y,,,,,Y,Y,F,20,
39,5,590,1,1,12,['d'],['k'],Y,Y,['space'],Y,,,,,Y,Y,F,20,
39,6,591,11,11,12,['d'],['k'],Y,Y,None,N,,,,,Y,Y,F,20,
39,7,592,7,7,12,['k'],['d'],Y,Y,['space'],Y,,,,,Y,Y,F,20,
39,8,593,10,10,12,['k'],['d'],Y,N,None,Y,,,,,Y,Y,F,20,
39,9,594,7,7,12,['d'],['k'],Y,Y,['space'],Y,,,,,Y,Y,F,20,
39,10,595,0,0,12,['k'],['d'],Y,Y,None,N,,,,,Y,Y,F,20,
39,11,596,8,8,12,['k'],['d'],Y,N,['space'],N,,,,,Y,Y,F,20,
39,12,597,11,11,12,['k'],['d'],Y,N,None,Y,,,,,Y,Y,F,20,
39,13,598,3,3,12,['d'],['d'],N,N,None,Y,,,,,Y,Y,F,20,
39,14,599,14,14,12,['k'],['d'],Y,N,['space'],N,46,36,25,,Y,Y,F,20,
