.thisRepN,.thisTrialN,.thisN,.thisIndex,.thisTrial,Block Number,Key pressed,Category,Correct?,Int Match?,Int Response,Int Correct?,Line Accuracy,Interference Accuracy,Matching Interferences,New instruction shown?,Buttons switched?,Fast?,gender,age,
0,0,0,7,7,1,['k'],['d'],N,,,,,,,,,,Female,18,
0,1,1,10,10,1,['k'],['k'],Y,,,,,,,,,,Female,18,
0,2,2,11,11,1,['k'],['k'],Y,Y,['d'],N,,,,,,,Female,18,
0,3,3,5,5,1,['d'],['d'],Y,N,None,Y,,,,,,,Female,18,
0,4,4,2,2,1,['k'],['d'],N,Y,None,N,,,,,,,Female,18,
0,5,5,9,9,1,['d'],['d'],Y,Y,None,N,,,,,,,Female,18,
0,6,6,6,6,1,['k'],['d'],N,N,None,Y,,,,,,,Female,18,
0,7,7,13,13,1,['k'],['k'],Y,Y,None,N,,,,,,,Female,18,
0,8,8,10,10,1,['d'],['d'],Y,N,['d'],N,,,,,,,Female,18,
0,9,9,2,2,1,['d'],['d'],Y,Y,['space'],Y,,,,,,,Female,18,
0,10,10,11,11,1,['k'],['k'],Y,Y,None,N,,,,,,,Female,18,
0,11,11,3,3,1,['k'],['k'],Y,Y,['space'],Y,,,,,,,Female,18,
0,12,12,1,1,1,['k'],['k'],Y,Y,['space'],Y,,,,,,,Female,18,
0,13,13,2,2,1,['k'],['k'],Y,N,['space'],N,,,,,,,Female,18,
0,14,14,5,5,1,['d'],['d'],Y,N,['space'],N,,,,,,,Female,18,
1,0,15,5,5,1,['k'],['d'],N,Y,['space'],Y,,,,,,,Female,18,
1,1,16,3,3,1,['k'],['k'],Y,N,None,Y,,,,,,,Female,18,
1,2,17,11,11,1,['k'],['d'],N,N,['space'],N,,,,,,,Female,18,
1,3,18,12,12,1,['k'],['k'],Y,Y,None,N,,,,,,,Female,18,
1,4,19,14,14,1,['d'],['d'],Y,Y,['k'],N,,,,,,,Female,18,
1,5,20,1,1,1,['k'],['k'],Y,N,['space'],N,,,,,,,Female,18,
1,6,21,13,13,1,['d'],['d'],Y,Y,['k'],N,,,,,,,Female,18,
1,7,22,14,14,1,['k'],['d'],N,N,['space'],N,,,,,,,Female,18,
1,8,23,1,1,1,['k'],['k'],Y,Y,['space'],Y,,,,,,,Female,18,
1,9,24,11,11,1,['k'],['k'],Y,Y,None,N,,,,,,,Female,18,
1,10,25,13,13,1,['d'],['d'],Y,N,None,Y,,,,,,,Female,18,
1,11,26,7,7,1,['k'],['k'],Y,Y,None,N,,,,,,,Female,18,
1,12,27,7,7,1,['d'],['k'],N,Y,None,N,,,,,,,Female,18,
1,13,28,14,14,1,['k'],['k'],Y,N,None,Y,,,,,,,Female,18,
1,14,29,12,12,1,['k'],['d'],N,N,['space'],N,,,,,,,Female,18,
2,0,30,4,4,1,['k'],['d'],N,Y,None,N,,,,,,,Female,18,
2,1,31,9,9,1,['k'],['d'],N,N,None,Y,,,,,,,Female,18,
2,2,32,12,12,1,['d'],['k'],N,Y,None,N,,,,,,,Female,18,
2,3,33,11,11,1,['k'],['k'],Y,Y,None,N,,,,,,,Female,18,
2,4,34,10,10,1,['k'],['d'],N,N,None,Y,,,,,,,Female,18,
2,5,35,6,6,1,['k'],['k'],Y,Y,None,N,,,,,,,Female,18,
2,6,36,11,11,1,['k'],['d'],N,Y,None,N,,,,,,,Female,18,
2,7,37,14,14,1,['d'],['k'],N,Y,['space'],Y,,,,,,,Female,18,
2,8,38,0,0,1,['k'],['d'],N,N,['k'],N,,,,,,,Female,18,
2,9,39,2,2,1,['k'],['d'],N,Y,['space'],Y,,,,,,,Female,18,
2,10,40,0,0,1,['d'],['d'],Y,Y,None,N,,,,,,,Female,18,
2,11,41,3,3,1,['d'],['d'],Y,N,None,Y,,,,,,,Female,18,
2,12,42,12,12,1,['k'],['k'],Y,N,None,Y,,,,,,,Female,18,
2,13,43,3,3,1,['k'],['k'],Y,Y,None,N,,,,,,,Female,18,
2,14,44,11,11,1,['k'],['k'],Y,N,None,Y,,,,,,,Female,18,
3,0,45,7,7,1,['k'],['d'],N,N,None,Y,,,,,,,Female,18,
3,1,46,11,11,1,['k'],['k'],Y,N,None,Y,,,,,,,Female,18,
3,2,47,5,5,1,['d'],['d'],Y,N,None,Y,,,,,,,Female,18,
3,3,48,3,3,1,['k'],['k'],Y,N,None,Y,,,,,,,Female,18,
3,4,49,2,2,1,['k'],['d'],N,N,None,Y,32,22,25,,,,Female,18,
3,5,50,10,10,2,['k'],['k'],Y,,,,,,,,,,Female,18,
3,6,51,11,11,2,['d'],['k'],N,,,,,,,,,,Female,18,
3,7,52,11,11,2,['k'],['d'],N,N,None,Y,,,,,,,Female,18,
3,8,53,5,5,2,['k'],['d'],N,N,None,Y,,,,,,,Female,18,
3,9,54,8,8,2,['k'],['k'],Y,N,None,Y,,,,,,,Female,18,
3,10,55,10,10,2,['d'],['d'],Y,N,['space'],N,,,,,,,Female,18,
3,11,56,2,2,2,['k'],['k'],Y,Y,None,N,,,,,,,Female,18,
3,12,57,6,6,2,['k'],['d'],N,N,None,Y,,,,,,,Female,18,
3,13,58,6,6,2,['k'],['k'],Y,Y,['space'],Y,,,,,,,Female,18,
3,14,59,8,8,2,['k'],['k'],Y,N,['space'],N,,,,,,,Female,18,
4,0,60,5,5,2,['d'],['d'],Y,Y,['space'],Y,,,,,,,Female,18,
4,1,61,6,6,2,['k'],['k'],Y,Y,['k'],N,,,,,,,Female,18,
4,2,62,2,2,2,['d'],['d'],Y,Y,['d'],N,,,,,,,Female,18,
4,3,63,11,11,2,['k'],['k'],Y,Y,['space'],Y,,,,,,,Female,18,
4,4,64,6,6,2,['k'],['k'],Y,N,None,Y,,,,,,,Female,18,
4,5,65,2,2,2,['k'],['k'],Y,N,None,Y,,,,,,,Female,18,
4,6,66,14,14,2,['k'],['k'],Y,N,None,Y,,,,,,,Female,18,
4,7,67,7,7,2,['k'],['d'],N,N,None,Y,,,,,,,Female,18,
4,8,68,3,3,2,['d'],['d'],Y,N,None,Y,,,,,,,Female,18,
4,9,69,3,3,2,['k'],['k'],Y,N,None,Y,,,,,,,Female,18,
4,10,70,11,11,2,['k'],['k'],Y,Y,['space'],Y,,,,,,,Female,18,
4,11,71,10,10,2,['d'],['d'],Y,Y,['space'],Y,,,,,,,Female,18,
4,12,72,4,4,2,['k'],['k'],Y,Y,None,N,,,,,,,Female,18,
4,13,73,12,12,2,['d'],['d'],Y,Y,['space'],Y,,,,,,,Female,18,
4,14,74,7,7,2,['k'],['k'],Y,N,None,Y,,,,,,,Female,18,
5,0,75,5,5,2,['k'],['k'],Y,N,None,Y,,,,,,,Female,18,
5,1,76,14,14,2,['k'],['d'],N,N,['k'],N,,,,,,,Female,18,
5,2,77,11,11,2,['d'],['d'],Y,N,None,Y,,,,,,,Female,18,
5,3,78,11,11,2,['d'],['d'],Y,Y,None,N,,,,,,,Female,18,
5,4,79,14,14,2,['k'],['k'],Y,Y,['space'],Y,,,,,,,Female,18,
5,5,80,10,10,2,['k'],['k'],Y,N,['space'],N,,,,,,,Female,18,
5,6,81,12,12,2,['d'],['d'],Y,Y,['space'],Y,,,,,,,Female,18,
5,7,82,4,4,2,['k'],['d'],N,Y,['space'],Y,,,,,,,Female,18,
5,8,83,13,13,2,['k'],['k'],Y,Y,['space'],Y,,,,,,,Female,18,
5,9,84,7,7,2,['k'],['d'],N,Y,['space'],Y,,,,,,,Female,18,
5,10,85,10,10,2,['d'],['d'],Y,Y,['space'],Y,,,,,,,Female,18,
5,11,86,1,1,2,['d'],['d'],Y,N,None,Y,,,,,,,Female,18,
5,12,87,7,7,2,['d'],['d'],Y,Y,['space'],Y,,,,,,,Female,18,
5,13,88,11,11,2,['k'],['k'],Y,Y,['space'],Y,,,,,,,Female,18,
5,14,89,5,5,2,['k'],['d'],N,N,None,Y,,,,,,,Female,18,
6,0,90,4,4,2,['d'],['d'],Y,N,None,Y,,,,,,,Female,18,
6,1,91,9,9,2,['k'],['k'],Y,N,None,Y,,,,,,,Female,18,
6,2,92,0,0,2,['d'],['d'],Y,N,None,Y,,,,,,,Female,18,
6,3,93,2,2,2,['d'],['k'],N,Y,None,N,,,,,,,Female,18,
6,4,94,4,4,2,['k'],['d'],N,N,['space'],N,,,,,,,Female,18,
6,5,95,0,0,2,['k'],['d'],N,Y,None,N,,,,,,,Female,18,
6,6,96,2,2,2,['k'],['k'],Y,N,None,Y,,,,,,,Female,18,
6,7,97,2,2,2,['d'],['d'],Y,Y,None,N,,,,,,,Female,18,
6,8,98,12,12,2,['k'],['k'],Y,Y,['space'],Y,,,,,,,Female,18,
6,9,99,1,1,2,['k'],['k'],Y,Y,['space'],Y,38,35,24,,,,Female,18,
6,10,100,1,1,3,['d'],['d'],Y,,,,,,,,,,Female,18,
6,11,101,0,0,3,['k'],['k'],Y,,,,,,,,,,Female,18,
6,12,102,13,13,3,['d'],['k'],N,N,None,Y,,,,,,,Female,18,
6,13,103,2,2,3,['k'],['d'],N,Y,None,N,,,,,,,Female,18,
6,14,104,1,1,3,['k'],['d'],N,Y,None,N,,,,,,,Female,18,
7,0,105,1,1,3,['k'],['k'],Y,Y,['space'],Y,,,,,,,Female,18,
7,1,106,5,5,3,['k'],['k'],Y,N,None,Y,,,,,,,Female,18,
7,2,107,13,13,3,['k'],['k'],Y,N,None,Y,,,,,,,Female,18,
7,3,108,6,6,3,['d'],['d'],Y,N,None,Y,,,,,,,Female,18,
7,4,109,10,10,3,['d'],['d'],Y,N,None,Y,,,,,,,Female,18,
7,5,110,12,12,3,['k'],['d'],N,Y,['space'],Y,,,,,,,Female,18,
7,6,111,1,1,3,['d'],['d'],Y,Y,['space'],Y,,,,,,,Female,18,
7,7,112,7,7,3,['k'],['k'],Y,N,['space'],N,,,,,,,Female,18,
7,8,113,10,10,3,['d'],['d'],Y,Y,['space'],Y,,,,,,,Female,18,
7,9,114,1,1,3,['k'],['k'],Y,N,['space'],N,,,,,,,Female,18,
7,10,115,8,8,3,['d'],['d'],Y,Y,['space'],Y,,,,,,,Female,18,
7,11,116,4,4,3,['k'],['k'],Y,Y,['space'],Y,,,,,,,Female,18,
7,12,117,10,10,3,['k'],['k'],Y,N,None,Y,,,,,,,Female,18,
7,13,118,0,0,3,['k'],['k'],Y,Y,None,N,,,,,,,Female,18,
7,14,119,14,14,3,['d'],['d'],Y,N,None,Y,,,,,,,Female,18,
8,0,120,13,13,3,['d'],['d'],Y,N,None,Y,,,,,,,Female,18,
8,1,121,12,12,3,['k'],['d'],N,Y,None,N,,,,,,,Female,18,
8,2,122,12,12,3,['k'],['k'],Y,Y,['space'],Y,,,,,,,Female,18,
8,3,123,10,10,3,['d'],['d'],Y,N,None,Y,,,,,,,Female,18,
8,4,124,13,13,3,['k'],['k'],Y,N,None,Y,,,,,,,Female,18,
8,5,125,12,12,3,['k'],['k'],Y,Y,['space'],Y,,,,,,,Female,18,
8,6,126,5,5,3,['k'],['d'],N,N,None,Y,,,,,,,Female,18,
8,7,127,13,13,3,['k'],['d'],N,N,None,Y,,,,,,,Female,18,
8,8,128,14,14,3,['d'],['d'],Y,Y,None,N,,,,,,,Female,18,
8,9,129,5,5,3,['d'],['d'],Y,Y,['space'],Y,,,,,,,Female,18,
8,10,130,7,7,3,['d'],['d'],Y,Y,['space'],Y,,,,,,,Female,18,
8,11,131,1,1,3,['d'],['d'],Y,N,None,Y,,,,,,,Female,18,
8,12,132,10,10,3,['k'],['k'],Y,Y,['space'],Y,,,,,,,Female,18,
8,13,133,3,3,3,['d'],['d'],Y,N,None,Y,,,,,,,Female,18,
8,14,134,13,13,3,['d'],['k'],N,Y,None,N,,,,,,,Female,18,
9,0,135,11,11,3,['k'],['k'],Y,N,None,Y,,,,,,,Female,18,
9,1,136,12,12,3,['k'],['d'],N,N,['space'],N,,,,,,,Female,18,
9,2,137,11,11,3,['k'],['k'],Y,N,['space'],N,,,,,,,Female,18,
9,3,138,5,5,3,['k'],['k'],Y,N,['d'],N,,,,,,,Female,18,
9,4,139,2,2,3,['k'],['k'],Y,Y,['space'],Y,,,,,,,Female,18,
9,5,140,0,0,3,['d'],['d'],Y,Y,['space'],Y,,,,,,,Female,18,
9,6,141,9,9,3,['k'],['d'],N,Y,['space'],Y,,,,,,,Female,18,
9,7,142,6,6,3,['d'],['d'],Y,N,None,Y,,,,,,,Female,18,
9,8,143,6,6,3,['k'],['d'],N,N,['space'],N,,,,,,,Female,18,
9,9,144,3,3,3,['d'],['d'],Y,N,['space'],N,,,,,,,Female,18,
9,10,145,7,7,3,['d'],['d'],Y,Y,None,N,,,,,,,Female,18,
9,11,146,12,12,3,['d'],['k'],N,N,['space'],N,,,,,,,Female,18,
9,12,147,7,7,3,['k'],['k'],Y,N,['space'],N,,,,,,,Female,18,
9,13,148,3,3,3,['k'],['k'],Y,Y,['space'],Y,,,,,,,Female,18,
9,14,149,6,6,3,['k'],['k'],Y,Y,['space'],Y,38,32,23,,,,Female,18,
10,0,150,14,14,4,['k'],['d'],N,,,,,,,,,,Female,18,
10,1,151,1,1,4,['d'],['d'],Y,,,,,,,,,,Female,18,
10,2,152,4,4,4,['k'],['k'],Y,Y,None,N,,,,,,,Female,18,
10,3,153,13,13,4,['k'],['k'],Y,Y,['space'],Y,,,,,,,Female,18,
10,4,154,11,11,4,['d'],['d'],Y,Y,['space'],Y,,,,,,,Female,18,
10,5,155,7,7,4,['d'],['d'],Y,N,None,Y,,,,,,,Female,18,
10,6,156,12,12,4,['k'],['k'],Y,Y,None,N,,,,,,,Female,18,
10,7,157,9,9,4,['k'],['d'],N,N,None,Y,,,,,,,Female,18,
10,8,158,10,10,4,['d'],['d'],Y,N,['space'],N,,,,,,,Female,18,
10,9,159,0,0,4,['k'],['d'],N,Y,None,N,,,,,,,Female,18,
10,10,160,2,2,4,['k'],['d'],N,Y,['space'],Y,,,,,,,Female,18,
10,11,161,13,13,4,['d'],['d'],Y,Y,['space'],Y,,,,,,,Female,18,
10,12,162,7,7,4,['d'],['d'],Y,Y,['space'],Y,,,,,,,Female,18,
10,13,163,5,5,4,['k'],['k'],Y,Y,['space'],Y,,,,,,,Female,18,
10,14,164,14,14,4,['d'],['d'],Y,N,['space'],N,,,,,,,Female,18,
11,0,165,8,8,4,['k'],['k'],Y,N,None,Y,,,,,,,Female,18,
11,1,166,13,13,4,['d'],['d'],Y,N,None,Y,,,,,,,Female,18,
11,2,167,8,8,4,['k'],['d'],N,N,['k'],N,,,,,,,Female,18,
11,3,168,3,3,4,['d'],['d'],Y,Y,['space'],Y,,,,,,,Female,18,
11,4,169,7,7,4,['k'],['d'],N,N,None,Y,,,,,,,Female,18,
11,5,170,0,0,4,['k'],['k'],Y,Y,['space'],Y,,,,,,,Female,18,
11,6,171,2,2,4,['k'],['k'],Y,N,['space'],N,,,,,,,Female,18,
11,7,172,3,3,4,['d'],['k'],N,N,None,Y,,,,,,,Female,18,
11,8,173,12,12,4,['k'],['k'],Y,N,None,Y,,,,,,,Female,18,
11,9,174,5,5,4,['d'],['d'],Y,N,None,Y,,,,,,,Female,18,
11,10,175,1,1,4,['k'],['k'],Y,N,None,Y,,,,,,,Female,18,
11,11,176,9,9,4,['d'],['d'],Y,N,None,Y,,,,,,,Female,18,
11,12,177,9,9,4,['k'],['k'],Y,Y,['space'],Y,,,,,,,Female,18,
11,13,178,3,3,4,['d'],['d'],Y,Y,None,N,,,,,,,Female,18,
11,14,179,14,14,4,['d'],['d'],Y,Y,['space'],Y,,,,,,,Female,18,
12,0,180,8,8,4,['k'],['k'],Y,Y,None,N,,,,,,,Female,18,
12,1,181,10,10,4,['d'],['d'],Y,Y,['d'],N,,,,,,,Female,18,
12,2,182,8,8,4,['d'],['d'],Y,Y,None,N,,,,,,,Female,18,
12,3,183,0,0,4,['k'],['k'],Y,N,None,Y,,,,,,,Female,18,
12,4,184,4,4,4,['k'],['k'],Y,N,None,Y,,,,,,,Female,18,
12,5,185,0,0,4,['k'],['k'],Y,Y,None,N,,,,,,,Female,18,
12,6,186,9,9,4,['k'],['d'],N,Y,None,N,,,,,,,Female,18,
12,7,187,5,5,4,['d'],['d'],Y,N,None,Y,,,,,,,Female,18,
12,8,188,6,6,4,['k'],['k'],Y,Y,None,N,,,,,,,Female,18,
12,9,189,2,2,4,['d'],['d'],Y,Y,None,N,,,,,,,Female,18,
12,10,190,9,9,4,['k'],['k'],Y,Y,['k'],N,,,,,,,Female,18,
12,11,191,4,4,4,['d'],['d'],Y,N,None,Y,,,,,,,Female,18,
12,12,192,13,13,4,['d'],['d'],Y,N,None,Y,,,,,,,Female,18,
12,13,193,0,0,4,['k'],['k'],Y,Y,['space'],Y,,,,,,,Female,18,
12,14,194,12,12,4,['d'],['k'],N,N,None,Y,,,,,,,Female,18,
13,0,195,9,9,4,['d'],['k'],N,Y,None,N,,,,,,,Female,18,
13,1,196,13,13,4,['k'],['k'],Y,N,None,Y,,,,,,,Female,18,
13,2,197,8,8,4,['k'],['k'],Y,N,None,Y,,,,,,,Female,18,
13,3,198,10,10,4,['k'],['k'],Y,N,None,Y,,,,,,,Female,18,
13,4,199,0,0,4,['k'],['d'],N,Y,['space'],Y,39,31,25,,,,Female,18,
13,5,200,4,4,5,['k'],['k'],Y,,,,,,,,,,Female,18,
13,6,201,9,9,5,['k'],['k'],Y,,,,,,,,,,Female,18,
13,7,202,3,3,5,['k'],['k'],Y,Y,['space'],Y,,,,,,,Female,18,
13,8,203,7,7,5,['k'],['k'],Y,Y,['space'],Y,,,,,,,Female,18,
13,9,204,3,3,5,['d'],['k'],N,Y,['space'],Y,,,,,,,Female,18,
13,10,205,1,1,5,['d'],['d'],Y,Y,['space'],Y,,,,,,,Female,18,
13,11,206,2,2,5,['k'],['k'],Y,N,None,Y,,,,,,,Female,18,
13,12,207,4,4,5,['d'],['d'],Y,N,None,Y,,,,,,,Female,18,
13,13,208,10,10,5,['k'],['d'],N,N,None,Y,,,,,,,Female,18,
13,14,209,10,10,5,['k'],['d'],N,N,['space'],N,,,,,,,Female,18,
14,0,210,0,0,5,['k'],['k'],Y,N,None,Y,,,,,,,Female,18,
14,1,211,3,3,5,None,,Timed out,Y,['space'],Y,,,,,,,Female,18,
14,2,212,0,0,5,['d'],['d'],Y,N,None,Y,,,,,,,Female,18,
14,3,213,3,3,5,['k'],['k'],Y,N,None,Y,,,,,,,Female,18,
14,4,214,12,12,5,['d'],['d'],Y,N,None,Y,,,,,,,Female,18,
14,5,215,11,11,5,['k'],['k'],Y,N,None,Y,,,,,,,Female,18,
14,6,216,13,13,5,['d'],['d'],Y,Y,['space'],Y,,,,,,,Female,18,
14,7,217,9,9,5,['k'],['d'],N,Y,['space'],Y,,,,,,,Female,18,
14,8,218,6,6,5,['d'],['d'],Y,N,None,Y,,,,,,,Female,18,
14,9,219,14,14,5,None,,Timed out,Y,['space'],Y,,,,,,,Female,18,
14,10,220,12,12,5,['d'],['d'],Y,N,None,Y,,,,,,,Female,18,
14,11,221,7,7,5,['d'],['d'],Y,N,None,Y,,,,,,,Female,18,
14,12,222,12,12,5,['d'],['d'],Y,N,['space'],N,,,,,,,Female,18,
14,13,223,0,0,5,['d'],['d'],Y,N,None,Y,,,,,,,Female,18,
14,14,224,0,0,5,['d'],['d'],Y,N,['space'],N,,,,,,,Female,18,
15,0,225,3,3,5,['d'],['d'],Y,Y,['space'],Y,,,,,,,Female,18,
15,1,226,4,4,5,['d'],['d'],Y,Y,['space'],Y,,,,,,,Female,18,
15,2,227,9,9,5,['k'],['k'],Y,N,None,Y,,,,,,,Female,18,
15,3,228,5,5,5,['d'],['d'],Y,Y,['space'],Y,,,,,,,Female,18,
15,4,229,1,1,5,['d'],['d'],Y,Y,None,N,,,,,,,Female,18,
15,5,230,6,6,5,['d'],['d'],Y,Y,None,N,,,,,,,Female,18,
15,6,231,5,5,5,['d'],['k'],N,Y,None,N,,,,,,,Female,18,
15,7,232,4,4,5,['k'],['k'],Y,N,None,Y,,,,,,,Female,18,
15,8,233,2,2,5,['k'],['k'],Y,N,None,Y,,,,,,,Female,18,
15,9,234,5,5,5,['k'],['k'],Y,N,None,Y,,,,,,,Female,18,
15,10,235,5,5,5,['d'],['d'],Y,N,None,Y,,,,,,,Female,18,
15,11,236,4,4,5,['k'],['k'],Y,N,['space'],N,,,,,,,Female,18,
15,12,237,4,4,5,None,,Timed out,Y,None,N,,,,,,,Female,18,
15,13,238,2,2,5,['k'],['k'],Y,Y,['space'],Y,,,,,,,Female,18,
15,14,239,9,9,5,['k'],['k'],Y,Y,['space'],Y,,,,,,,Female,18,
16,0,240,4,4,5,['d'],['d'],Y,N,None,Y,,,,,,,Female,18,
16,1,241,4,4,5,['k'],['k'],Y,N,['space'],N,,,,,,,Female,18,
16,2,242,7,7,5,['k'],['k'],Y,N,None,Y,,,,,,,Female,18,
16,3,243,9,9,5,['d'],['d'],Y,Y,['space'],Y,,,,,,,Female,18,
16,4,244,8,8,5,['k'],['k'],Y,N,None,Y,,,,,,,Female,18,
16,5,245,9,9,5,['d'],['d'],Y,N,['space'],N,,,,,,,Female,18,
16,6,246,9,9,5,['k'],['k'],Y,N,None,Y,,,,,,,Female,18,
16,7,247,14,14,5,['k'],['k'],Y,Y,['space'],Y,,,,,,,Female,18,
16,8,248,5,5,5,['k'],['k'],Y,N,None,Y,,,,,,,Female,18,
16,9,249,0,0,5,['k'],['k'],Y,Y,['space'],Y,42,38,20,,,,Female,18,
16,10,250,8,8,6,['k'],['k'],Y,,,,,,,,,,Female,18,
16,11,251,13,13,6,['d'],['k'],N,,,,,,,,,,Female,18,
16,12,252,8,8,6,['d'],['d'],Y,N,None,Y,,,,,,,Female,18,
16,13,253,8,8,6,['k'],['d'],N,N,['space'],N,,,,,,,Female,18,
16,14,254,0,0,6,['k'],['k'],Y,N,None,Y,,,,,,,Female,18,
17,0,255,13,13,6,None,,Timed out,Y,None,N,,,,,,,Female,18,
17,1,256,3,3,6,['k'],['k'],Y,Y,None,N,,,,,,,Female,18,
17,2,257,5,5,6,['k'],['k'],Y,Y,None,N,,,,,,,Female,18,
17,3,258,3,3,6,['d'],['d'],Y,N,None,Y,,,,,,,Female,18,
17,4,259,1,1,6,['d'],['k'],N,N,None,Y,,,,,,,Female,18,
17,5,260,0,0,6,None,,Timed out,Y,None,N,,,,,,,Female,18,
17,6,261,6,6,6,['d'],['d'],Y,N,None,Y,,,,,,,Female,18,
17,7,262,8,8,6,['d'],['d'],Y,N,None,Y,,,,,,,Female,18,
17,8,263,11,11,6,['k'],['k'],Y,N,None,Y,,,,,,,Female,18,
17,9,264,7,7,6,['d'],['k'],N,Y,None,N,,,,,,,Female,18,
17,10,265,1,1,6,['d'],['d'],Y,N,None,Y,,,,,,,Female,18,
17,11,266,11,11,6,['k'],['k'],Y,N,None,Y,,,,,,,Female,18,
17,12,267,11,11,6,['k'],['k'],Y,Y,['space'],Y,,,,,,,Female,18,
17,13,268,8,8,6,None,,Timed out,N,['space'],N,,,,,,,Female,18,
17,14,269,1,1,6,['k'],['k'],Y,N,None,Y,,,,,,,Female,18,
18,0,270,9,9,6,['k'],['d'],N,Y,None,N,,,,,,,Female,18,
18,1,271,2,2,6,['d'],['k'],N,Y,['space'],Y,,,,,,,Female,18,
18,2,272,9,9,6,['d'],['d'],Y,Y,None,N,,,,,,,Female,18,
18,3,273,1,1,6,['d'],['k'],N,N,None,Y,,,,,,,Female,18,
18,4,274,3,3,6,['k'],['d'],N,N,None,Y,,,,,,,Female,18,
18,5,275,9,9,6,['k'],['k'],Y,Y,['k'],N,,,,,,,Female,18,
18,6,276,6,6,6,['k'],['k'],Y,N,None,Y,,,,,,,Female,18,
18,7,277,7,7,6,['d'],['d'],Y,Y,['k'],N,,,,,,,Female,18,
18,8,278,2,2,6,['d'],['k'],N,N,None,Y,,,,,,,Female,18,
18,9,279,8,8,6,['k'],['d'],N,N,None,Y,,,,,,,Female,18,
18,10,280,14,14,6,None,,Timed out,Y,['space'],Y,,,,,,,Female,18,
18,11,281,6,6,6,['d'],['d'],Y,Y,None,N,,,,,,,Female,18,
18,12,282,5,5,6,['k'],['k'],Y,N,None,Y,,,,,,,Female,18,
18,13,283,1,1,6,['k'],['d'],N,N,None,Y,,,,,,,Female,18,
18,14,284,4,4,6,['d'],['k'],N,Y,None,N,,,,,,,Female,18,
19,0,285,13,13,6,['k'],['d'],N,Y,None,N,,,,,,,Female,18,
19,1,286,9,9,6,['d'],['d'],Y,N,None,Y,,,,,,,Female,18,
19,2,287,14,14,6,['d'],['d'],Y,Y,['space'],Y,,,,,,,Female,18,
19,3,288,2,2,6,['d'],['d'],Y,N,None,Y,,,,,,,Female,18,
19,4,289,10,10,6,['k'],['k'],Y,Y,None,N,,,,,,,Female,18,
19,5,290,3,3,6,['k'],['k'],Y,Y,['space'],Y,,,,,,,Female,18,
19,6,291,2,2,6,['k'],['d'],N,N,['space'],N,,,,,,,Female,18,
19,7,292,5,5,6,['k'],['k'],Y,N,None,Y,,,,,,,Female,18,
19,8,293,14,14,6,['k'],['d'],N,Y,['space'],Y,,,,,,,Female,18,
19,9,294,10,10,6,['d'],['d'],Y,N,None,Y,,,,,,,Female,18,
19,10,295,1,1,6,['d'],['d'],Y,Y,['space'],Y,,,,,,,Female,18,
19,11,296,10,10,6,['d'],['d'],Y,Y,['space'],Y,,,,,,,Female,18,
19,12,297,8,8,6,['k'],['k'],Y,Y,['space'],Y,,,,,,,Female,18,
19,13,298,7,7,6,['d'],['d'],Y,N,None,Y,,,,,,,Female,18,
19,14,299,2,2,6,['k'],['k'],Y,N,None,Y,31,32,22,,,,Female,18,
20,0,300,12,12,7,['d'],['d'],Y,,,,,,,,,,Female,18,
20,1,301,8,8,7,['d'],['d'],Y,,,,,,,,,,Female,18,
20,2,302,3,3,7,['d'],['d'],Y,N,None,Y,,,,,,,Female,18,
20,3,303,2,2,7,['k'],['k'],Y,N,None,Y,,,,,,,Female,18,
20,4,304,4,4,7,['k'],['k'],Y,N,None,Y,,,,,,,Female,18,
20,5,305,14,14,7,['k'],['k'],Y,Y,['space'],Y,,,,,,,Female,18,
20,6,306,1,1,7,['k'],['k'],Y,Y,None,N,,,,,,,Female,18,
20,7,307,1,1,7,['k'],['d'],N,N,None,Y,,,,,,,Female,18,
20,8,308,0,0,7,['d'],['d'],Y,N,None,Y,,,,,,,Female,18,
20,9,309,6,6,7,['k'],['d'],N,N,None,Y,,,,,,,Female,18,
20,10,310,5,5,7,['k'],['d'],N,N,None,Y,,,,,,,Female,18,
20,11,311,3,3,7,['k'],['d'],N,N,None,Y,,,,,,,Female,18,
20,12,312,6,6,7,['k'],['d'],N,N,None,Y,,,,,,,Female,18,
20,13,313,2,2,7,['k'],['k'],Y,Y,None,N,,,,,,,Female,18,
20,14,314,12,12,7,['k'],['k'],Y,N,None,Y,,,,,,,Female,18,
21,0,315,1,1,7,['k'],['k'],Y,N,None,Y,,,,,,,Female,18,
21,1,316,11,11,7,['d'],['d'],Y,Y,None,N,,,,,,,Female,18,
21,2,317,7,7,7,['k'],['d'],N,Y,None,N,,,,,,,Female,18,
21,3,318,10,10,7,['k'],['k'],Y,Y,['space'],Y,,,,,,,Female,18,
21,4,319,8,8,7,['d'],['k'],N,N,None,Y,,,,,,,Female,18,
21,5,320,13,13,7,['k'],['k'],Y,N,None,Y,,,,,,,Female,18,
21,6,321,13,13,7,['k'],['k'],Y,N,None,Y,,,,,,,Female,18,
21,7,322,3,3,7,['k'],['k'],Y,Y,['space'],Y,,,,,,,Female,18,
21,8,323,2,2,7,['d'],['d'],Y,Y,['space'],Y,,,,,,,Female,18,
21,9,324,0,0,7,['d'],['d'],Y,Y,['space'],Y,,,,,,,Female,18,
21,10,325,3,3,7,['d'],['d'],Y,N,None,Y,,,,,,,Female,18,
21,11,326,0,0,7,['d'],['d'],Y,Y,['space'],Y,,,,,,,Female,18,
21,12,327,3,3,7,['k'],['k'],Y,N,None,Y,,,,,,,Female,18,
21,13,328,11,11,7,['d'],['d'],Y,Y,None,N,,,,,,,Female,18,
21,14,329,9,9,7,['d'],['d'],Y,N,None,Y,,,,,,,Female,18,
22,0,330,8,8,7,['d'],['d'],Y,N,None,Y,,,,,,,Female,18,
22,1,331,8,8,7,['d'],['d'],Y,N,['space'],N,,,,,,,Female,18,
22,2,332,11,11,7,['k'],['k'],Y,N,None,Y,,,,,,,Female,18,
22,3,333,5,5,7,['d'],['k'],N,N,None,Y,,,,,,,Female,18,
22,4,334,14,14,7,['k'],['d'],N,N,None,Y,,,,,,,Female,18,
22,5,335,13,13,7,['d'],['d'],Y,N,None,Y,,,,,,,Female,18,
22,6,336,10,10,7,['k'],['k'],Y,N,None,Y,,,,,,,Female,18,
22,7,337,1,1,7,['k'],['k'],Y,N,None,Y,,,,,,,Female,18,
22,8,338,1,1,7,['d'],['d'],Y,N,None,Y,,,,,,,Female,18,
22,9,339,8,8,7,['d'],['k'],N,Y,None,N,,,,,,,Female,18,
22,10,340,14,14,7,['k'],['k'],Y,N,None,Y,,,,,,,Female,18,
22,11,341,3,3,7,['k'],['d'],N,Y,None,N,,,,,,,Female,18,
22,12,342,8,8,7,None,,Timed out,Y,None,N,,,,,,,Female,18,
22,13,343,6,6,7,['k'],['k'],Y,N,None,Y,,,,,,,Female,18,
22,14,344,0,0,7,['d'],['k'],N,N,None,Y,,,,,,,Female,18,
23,0,345,9,9,7,['d'],['d'],Y,Y,None,N,,,,,,,Female,18,
23,1,346,4,4,7,['k'],['k'],Y,N,None,Y,,,,,,,Female,18,
23,2,347,6,6,7,['d'],['d'],Y,Y,None,N,,,,,,,Female,18,
23,3,348,0,0,7,['k'],['k'],Y,N,None,Y,,,,,,,Female,18,
23,4,349,8,8,7,['k'],['k'],Y,N,None,Y,37,37,16,,,,Female,18,
23,5,350,2,2,8,['d'],['d'],Y,,,,,,,,,,Female,18,
23,6,351,7,7,8,['k'],['k'],Y,,,,,,,,,,Female,18,
23,7,352,4,4,8,['d'],['d'],Y,Y,['space'],Y,,,,,,,Female,18,
23,8,353,5,5,8,['d'],['k'],N,N,None,Y,,,,,,,Female,18,
23,9,354,14,14,8,['d'],['d'],Y,N,None,Y,,,,,,,Female,18,
23,10,355,2,2,8,['k'],['k'],Y,Y,None,N,,,,,,,Female,18,
23,11,356,11,11,8,['k'],['k'],Y,N,None,Y,,,,,,,Female,18,
23,12,357,10,10,8,['d'],['d'],Y,Y,None,N,,,,,,,Female,18,
23,13,358,9,9,8,['k'],['d'],N,Y,None,N,,,,,,,Female,18,
23,14,359,12,12,8,['k'],['k'],Y,Y,None,N,,,,,,,Female,18,
24,0,360,12,12,8,['k'],['k'],Y,N,None,Y,,,,,,,Female,18,
24,1,361,0,0,8,['k'],['d'],N,N,None,Y,,,,,,,Female,18,
24,2,362,12,12,8,['k'],['d'],N,N,None,Y,,,,,,,Female,18,
24,3,363,11,11,8,['k'],['k'],Y,N,['space'],N,,,,,,,Female,18,
24,4,364,2,2,8,['k'],['k'],Y,N,None,Y,,,,,,,Female,18,
24,5,365,1,1,8,['d'],['d'],Y,N,None,Y,,,,,,,Female,18,
24,6,366,0,0,8,['k'],['k'],Y,N,None,Y,,,,,,,Female,18,
24,7,367,4,4,8,['k'],['k'],Y,Y,['space'],Y,,,,,,,Female,18,
24,8,368,7,7,8,['k'],['k'],Y,N,None,Y,,,,,,,Female,18,
24,9,369,3,3,8,['d'],['d'],Y,N,None,Y,,,,,,,Female,18,
24,10,370,4,4,8,['k'],['d'],N,Y,None,N,,,,,,,Female,18,
24,11,371,3,3,8,['d'],['d'],Y,N,None,Y,,,,,,,Female,18,
24,12,372,13,13,8,['k'],['k'],Y,N,None,Y,,,,,,,Female,18,
24,13,373,0,0,8,['d'],['d'],Y,N,None,Y,,,,,,,Female,18,
24,14,374,4,4,8,['k'],['k'],Y,Y,['space'],Y,,,,,,,Female,18,
25,0,375,14,14,8,['d'],['d'],Y,N,None,Y,,,,,,,Female,18,
25,1,376,11,11,8,['k'],['k'],Y,N,None,Y,,,,,,,Female,18,
25,2,377,0,0,8,['k'],['k'],Y,Y,None,N,,,,,,,Female,18,
25,3,378,10,10,8,['k'],['k'],Y,Y,['space'],Y,,,,,,,Female,18,
25,4,379,4,4,8,['k'],['d'],N,Y,None,N,,,,,,,Female,18,
25,5,380,1,1,8,['d'],['d'],Y,N,None,Y,,,,,,,Female,18,
25,6,381,8,8,8,['k'],['k'],Y,N,None,Y,,,,,,,Female,18,
25,7,382,8,8,8,['d'],['d'],Y,Y,None,N,,,,,,,Female,18,
25,8,383,6,6,8,['d'],['k'],N,N,None,Y,,,,,,,Female,18,
25,9,384,6,6,8,['k'],['d'],N,N,None,Y,,,,,,,Female,18,
25,10,385,13,13,8,['k'],['k'],Y,Y,None,N,,,,,,,Female,18,
25,11,386,12,12,8,['d'],['d'],Y,Y,None,N,,,,,,,Female,18,
25,12,387,12,12,8,['k'],['k'],Y,N,None,Y,,,,,,,Female,18,
25,13,388,2,2,8,['d'],['d'],Y,Y,None,N,,,,,,,Female,18,
25,14,389,8,8,8,['k'],['k'],Y,Y,['space'],Y,,,,,,,Female,18,
26,0,390,5,5,8,['d'],['d'],Y,Y,None,N,,,,,,,Female,18,
26,1,391,11,11,8,['k'],['k'],Y,Y,None,N,,,,,,,Female,18,
26,2,392,13,13,8,['k'],['k'],Y,Y,['space'],Y,,,,,,,Female,18,
26,3,393,4,4,8,['k'],['k'],Y,N,None,Y,,,,,,,Female,18,
26,4,394,3,3,8,['d'],['d'],Y,N,None,Y,,,,,,,Female,18,
26,5,395,11,11,8,['k'],['k'],Y,Y,['space'],Y,,,,,,,Female,18,
26,6,396,8,8,8,['d'],['d'],Y,N,None,Y,,,,,,,Female,18,
26,7,397,9,9,8,['d'],['d'],Y,Y,['space'],Y,,,,,,,Female,18,
26,8,398,10,10,8,['k'],['d'],N,N,None,Y,,,,,,,Female,18,
26,9,399,0,0,8,['d'],['k'],N,N,None,Y,40,34,21,,,,Female,18,
26,10,400,1,1,9,['k'],['k'],Y,,,,,,,,,,Female,18,
26,11,401,14,14,9,['k'],['k'],Y,,,,,,,,,,Female,18,
26,12,402,0,0,9,['k'],['k'],Y,N,None,Y,,,,,,,Female,18,
26,13,403,2,2,9,['k'],['k'],Y,Y,None,N,,,,,,,Female,18,
26,14,404,5,5,9,['d'],['d'],Y,N,None,Y,,,,,,,Female,18,
27,0,405,13,13,9,['d'],['k'],N,Y,['space'],Y,,,,,,,Female,18,
27,1,406,6,6,9,['d'],['d'],Y,N,None,Y,,,,,,,Female,18,
27,2,407,10,10,9,['k'],['k'],Y,N,None,Y,,,,,,,Female,18,
27,3,408,8,8,9,['d'],['d'],Y,N,None,Y,,,,,,,Female,18,
27,4,409,1,1,9,['k'],['k'],Y,Y,['space'],Y,,,,,,,Female,18,
27,5,410,9,9,9,['k'],['k'],Y,N,None,Y,,,,,,,Female,18,
27,6,411,2,2,9,['k'],['k'],Y,N,None,Y,,,,,,,Female,18,
27,7,412,3,3,9,['k'],['k'],Y,N,None,Y,,,,,,,Female,18,
27,8,413,6,6,9,['k'],['d'],N,Y,['space'],Y,,,,,,,Female,18,
27,9,414,5,5,9,['d'],['d'],Y,N,None,Y,,,,,,,Female,18,
27,10,415,12,12,9,['d'],['d'],Y,N,None,Y,,,,,,,Female,18,
27,11,416,9,9,9,['k'],['d'],N,Y,None,N,,,,,,,Female,18,
27,12,417,8,8,9,['d'],['d'],Y,Y,None,N,,,,,,,Female,18,
27,13,418,5,5,9,['d'],['k'],N,N,None,Y,,,,,,,Female,18,
27,14,419,7,7,9,['k'],['k'],Y,Y,['space'],Y,,,,,,,Female,18,
28,0,420,9,9,9,['d'],['d'],Y,N,None,Y,,,,,,,Female,18,
28,1,421,7,7,9,['d'],['d'],Y,N,None,Y,,,,,,,Female,18,
28,2,422,13,13,9,['d'],['d'],Y,Y,['space'],Y,,,,,,,Female,18,
28,3,423,7,7,9,['d'],['k'],N,Y,['space'],Y,,,,,,,Female,18,
28,4,424,9,9,9,['k'],['d'],N,Y,['space'],Y,,,,,,,Female,18,
28,5,425,13,13,9,['k'],['k'],Y,Y,['space'],Y,,,,,,,Female,18,
28,6,426,6,6,9,['k'],['d'],N,N,None,Y,,,,,,,Female,18,
28,7,427,2,2,9,['d'],['d'],Y,N,None,Y,,,,,,,Female,18,
28,8,428,7,7,9,['k'],['k'],Y,N,['space'],N,,,,,,,Female,18,
28,9,429,0,0,9,['k'],['k'],Y,N,None,Y,,,,,,,Female,18,
28,10,430,8,8,9,['k'],['k'],Y,N,None,Y,,,,,,,Female,18,
28,11,431,14,14,9,['d'],['d'],Y,Y,None,N,,,,,,,Female,18,
28,12,432,6,6,9,['d'],['k'],N,N,None,Y,,,,,,,Female,18,
28,13,433,2,2,9,['k'],['k'],Y,Y,['space'],Y,,,,,,,Female,18,
28,14,434,11,11,9,['d'],['d'],Y,N,None,Y,,,,,,,Female,18,
29,0,435,5,5,9,['d'],['d'],Y,Y,['space'],Y,,,,,,,Female,18,
29,1,436,12,12,9,['k'],['k'],Y,Y,['space'],Y,,,,,,,Female,18,
29,2,437,9,9,9,['k'],['k'],Y,N,None,Y,,,,,,,Female,18,
29,3,438,5,5,9,['k'],['k'],Y,Y,['space'],Y,,,,,,,Female,18,
29,4,439,9,9,9,['d'],['k'],N,N,None,Y,,,,,,,Female,18,
29,5,440,4,4,9,['d'],['d'],Y,N,None,Y,,,,,,,Female,18,
29,6,441,11,11,9,['k'],['k'],Y,N,['space'],N,,,,,,,Female,18,
29,7,442,10,10,9,['k'],['k'],Y,N,None,Y,,,,,,,Female,18,
29,8,443,4,4,9,['k'],['k'],Y,N,None,Y,,,,,,,Female,18,
29,9,444,14,14,9,['k'],['k'],Y,Y,None,N,,,,,,,Female,18,
29,10,445,14,14,9,['k'],['k'],Y,N,None,Y,,,,,,,Female,18,
29,11,446,5,5,9,['d'],['d'],Y,N,None,Y,,,,,,,Female,18,
29,12,447,7,7,9,['k'],['k'],Y,Y,None,N,,,,,,,Female,18,
29,13,448,11,11,9,['k'],['k'],Y,Y,['space'],Y,,,,,,,Female,18,
29,14,449,11,11,9,['d'],['d'],Y,Y,None,N,41,39,20,,,,Female,18,
30,0,450,14,14,10,['d'],['d'],Y,,,,,,,,,,Female,18,
30,1,451,2,2,10,['k'],['k'],Y,,,,,,,,,,Female,18,
30,2,452,12,12,10,['k'],['k'],Y,Y,None,N,,,,,,,Female,18,
30,3,453,1,1,10,['k'],['d'],N,N,None,Y,,,,,,,Female,18,
30,4,454,14,14,10,['d'],['d'],Y,N,None,Y,,,,,,,Female,18,
30,5,455,2,2,10,['k'],['k'],Y,N,None,Y,,,,,,,Female,18,
30,6,456,5,5,10,['d'],['d'],Y,N,None,Y,,,,,,,Female,18,
30,7,457,3,3,10,['k'],['k'],Y,N,None,Y,,,,,,,Female,18,
30,8,458,11,11,10,['k'],['d'],N,N,None,Y,,,,,,,Female,18,
30,9,459,9,9,10,['d'],['d'],Y,Y,['d'],N,,,,,,,Female,18,
30,10,460,7,7,10,['d'],['d'],Y,N,None,Y,,,,,,,Female,18,
30,11,461,8,8,10,['d'],['d'],Y,N,None,Y,,,,,,,Female,18,
30,12,462,10,10,10,['k'],['k'],Y,Y,['space'],Y,,,,,,,Female,18,
30,13,463,7,7,10,['k'],['k'],Y,N,['space'],N,,,,,,,Female,18,
30,14,464,4,4,10,['d'],['d'],Y,Y,['space'],Y,,,,,,,Female,18,
31,0,465,10,10,10,['k'],['d'],N,Y,['space'],Y,,,,,,,Female,18,
31,1,466,1,1,10,['k'],['k'],Y,N,None,Y,,,,,,,Female,18,
31,2,467,5,5,10,['k'],['d'],N,N,None,Y,,,,,,,Female,18,
31,3,468,7,7,10,['d'],['k'],N,Y,None,N,,,,,,,Female,18,
31,4,469,8,8,10,['k'],['k'],Y,Y,None,N,,,,,,,Female,18,
31,5,470,3,3,10,['k'],['k'],Y,Y,['space'],Y,,,,,,,Female,18,
31,6,471,13,13,10,['k'],['d'],N,N,None,Y,,,,,,,Female,18,
31,7,472,6,6,10,['k'],['k'],Y,N,None,Y,,,,,,,Female,18,
31,8,473,10,10,10,['d'],['d'],Y,N,None,Y,,,,,,,Female,18,
31,9,474,14,14,10,['d'],['d'],Y,N,None,Y,,,,,,,Female,18,
31,10,475,7,7,10,['d'],['d'],Y,Y,None,N,,,,,,,Female,18,
31,11,476,10,10,10,['d'],['k'],N,Y,None,N,,,,,,,Female,18,
31,12,477,14,14,10,['d'],['d'],Y,Y,None,N,,,,,,,Female,18,
31,13,478,6,6,10,['k'],['k'],Y,N,None,Y,,,,,,,Female,18,
31,14,479,12,12,10,['k'],['k'],Y,Y,['space'],Y,,,,,,,Female,18,
32,0,480,5,5,10,['k'],['k'],Y,Y,['space'],Y,,,,,,,Female,18,
32,1,481,4,4,10,['d'],['k'],N,Y,['space'],Y,,,,,,,Female,18,
32,2,482,13,13,10,['d'],['d'],Y,Y,['space'],Y,,,,,,,Female,18,
32,3,483,4,4,10,['d'],['d'],Y,Y,None,N,,,,,,,Female,18,
32,4,484,11,11,10,['d'],['d'],Y,N,None,Y,,,,,,,Female,18,
32,5,485,11,11,10,['d'],['d'],Y,Y,['space'],Y,,,,,,,Female,18,
32,6,486,7,7,10,['d'],['k'],N,N,None,Y,,,,,,,Female,18,
32,7,487,13,13,10,['d'],['k'],N,N,None,Y,,,,,,,Female,18,
32,8,488,4,4,10,['k'],['d'],N,Y,None,N,,,,,,,Female,18,
32,9,489,0,0,10,['d'],['d'],Y,N,None,Y,,,,,,,Female,18,
32,10,490,14,14,10,['d'],['k'],N,N,None,Y,,,,,,,Female,18,
32,11,491,13,13,10,['d'],['d'],Y,N,None,Y,,,,,,,Female,18,
32,12,492,6,6,10,['d'],['k'],N,Y,None,N,,,,,,,Female,18,
32,13,493,3,3,10,['k'],['d'],N,N,None,Y,,,,,,,Female,18,
32,14,494,12,12,10,['k'],['k'],Y,N,None,Y,,,,,,,Female,18,
33,0,495,4,4,10,['k'],['k'],Y,N,None,Y,,,,,,,Female,18,
33,1,496,6,6,10,['d'],['d'],Y,Y,['d'],N,,,,,,,Female,18,
33,2,497,12,12,10,['k'],['k'],Y,N,['space'],N,,,,,,,Female,18,
33,3,498,4,4,10,['k'],['d'],N,N,None,Y,,,,,,,Female,18,
33,4,499,0,0,10,['d'],['d'],Y,N,None,Y,35,35,20,,,,Female,18,
33,5,500,5,5,11,['d'],['k'],Y,,,,,,,Y,Y,Y,Female,18,
33,6,501,4,4,11,['k'],['d'],Y,,,,,,,,Y,Y,Female,18,
33,7,502,12,12,11,['d'],['d'],N,Y,None,N,,,,,Y,Y,Female,18,
33,8,503,5,5,11,['d'],['k'],Y,N,['space'],N,,,,,Y,Y,Female,18,
33,9,504,9,9,11,['d'],['k'],Y,N,['space'],N,,,,,Y,Y,Female,18,
33,10,505,1,1,11,['d'],['k'],Y,N,None,Y,,,,,Y,Y,Female,18,
33,11,506,1,1,11,['k'],['d'],Y,N,None,Y,,,,,Y,Y,Female,18,
33,12,507,9,9,11,['d'],['k'],Y,Y,['space'],Y,,,,,Y,Y,Female,18,
33,13,508,8,8,11,['k'],['d'],Y,N,None,Y,,,,,Y,Y,Female,18,
33,14,509,8,8,11,['d'],['d'],N,Y,['space'],Y,,,,,Y,Y,Female,18,
34,0,510,1,1,11,['k'],['d'],Y,N,['space'],N,,,,,Y,Y,Female,18,
34,1,511,0,0,11,['d'],['k'],Y,Y,['space'],Y,,,,,Y,Y,Female,18,
34,2,512,13,13,11,['k'],['d'],Y,Y,['space'],Y,,,,,Y,Y,Female,18,
34,3,513,11,11,11,['k'],['d'],Y,N,None,Y,,,,,Y,Y,Female,18,
34,4,514,14,14,11,['d'],['k'],Y,N,None,Y,,,,,Y,Y,Female,18,
34,5,515,10,10,11,['d'],['k'],Y,N,['space'],N,,,,,Y,Y,Female,18,
34,6,516,7,7,11,None,,Timed out,Y,None,N,,,,,Y,Y,Female,18,
34,7,517,0,0,11,['k'],['d'],Y,Y,['space'],Y,,,,,Y,Y,Female,18,
34,8,518,4,4,11,['d'],['k'],Y,Y,['space'],Y,,,,,Y,Y,Female,18,
34,9,519,13,13,11,['d'],['d'],N,N,None,Y,,,,,Y,Y,Female,18,
34,10,520,6,6,11,['d'],['k'],Y,Y,['space'],Y,,,,,Y,Y,Female,18,
34,11,521,9,9,11,['d'],['d'],N,N,None,Y,,,,,Y,Y,Female,18,
34,12,522,6,6,11,['d'],['d'],N,N,None,Y,,,,,Y,Y,Female,18,
34,13,523,6,6,11,['k'],['d'],Y,N,None,Y,,,,,Y,Y,Female,18,
34,14,524,12,12,11,None,,Timed out,N,None,Y,,,,,Y,Y,Female,18,
35,0,525,6,6,11,['d'],['k'],Y,Y,None,N,,,,,Y,Y,Female,18,
35,1,526,1,1,11,['d'],['d'],N,N,None,Y,,,,,Y,Y,Female,18,
35,2,527,9,9,11,['d'],['k'],Y,N,None,Y,,,,,Y,Y,Female,18,
35,3,528,3,3,11,['k'],['d'],Y,Y,['space'],Y,,,,,Y,Y,Female,18,
35,4,529,6,6,11,['d'],['k'],Y,N,None,Y,,,,,Y,Y,Female,18,
35,5,530,14,14,11,['k'],['d'],Y,Y,['space'],Y,,,,,Y,Y,Female,18,
35,6,531,8,8,11,['d'],['k'],Y,N,None,Y,,,,,Y,Y,Female,18,
35,7,532,6,6,11,['k'],['d'],Y,Y,['space'],Y,,,,,Y,Y,Female,18,
35,8,533,12,12,11,['d'],['k'],Y,Y,['space'],Y,,,,,Y,Y,Female,18,
35,9,534,13,13,11,None,,Timed out,Y,['space'],Y,,,,,Y,Y,Female,18,
35,10,535,12,12,11,['k'],['k'],N,N,None,Y,,,,,Y,Y,Female,18,
35,11,536,9,9,11,['d'],['k'],Y,N,None,Y,,,,,Y,Y,Female,18,
35,12,537,4,4,11,['d'],['k'],Y,Y,['space'],Y,,,,,Y,Y,Female,18,
35,13,538,2,2,11,['k'],['d'],Y,N,None,Y,,,,,Y,Y,Female,18,
35,14,539,7,7,11,['k'],['d'],Y,N,None,Y,,,,,Y,Y,Female,18,
36,0,540,7,7,11,['k'],['d'],Y,N,['space'],N,,,,,Y,Y,Female,18,
36,1,541,8,8,11,['d'],['k'],Y,N,None,Y,,,,,Y,Y,Female,18,
36,2,542,11,11,11,['k'],['k'],N,N,['space'],N,,,,,Y,Y,Female,18,
36,3,543,0,0,11,['d'],['k'],Y,N,None,Y,,,,,Y,Y,Female,18,
36,4,544,14,14,11,['k'],['d'],Y,Y,['rctrl'],N,,,,,Y,Y,Female,18,
36,5,545,14,14,11,['d'],['d'],N,N,None,Y,,,,,Y,Y,Female,18,
36,6,546,4,4,11,['k'],['k'],N,N,None,Y,,,,,Y,Y,Female,18,
36,7,547,1,1,11,['d'],['d'],N,N,None,Y,,,,,Y,Y,Female,18,
36,8,548,8,8,11,['k'],['k'],N,N,['lctrl'],N,,,,,Y,Y,Female,18,
36,9,549,10,10,11,['k'],['d'],Y,N,None,Y,35,37,17,,Y,Y,Female,18,
36,10,550,8,8,12,['d'],['k'],Y,,,,,,,,Y,Y,Female,18,
36,11,551,12,12,12,['k'],['k'],N,,,,,,,,Y,Y,Female,18,
36,12,552,10,10,12,['k'],['d'],Y,Y,['d'],N,,,,,Y,Y,Female,18,
36,13,553,0,0,12,['k'],['d'],Y,Y,None,N,,,,,Y,Y,Female,18,
36,14,554,1,1,12,['k'],['d'],Y,Y,['space'],Y,,,,,Y,Y,Female,18,
37,0,555,3,3,12,['k'],['d'],Y,Y,['space'],Y,,,,,Y,Y,Female,18,
37,1,556,14,14,12,['d'],['k'],Y,Y,['space'],Y,,,,,Y,Y,Female,18,
37,2,557,13,13,12,['k'],['d'],Y,Y,['space'],Y,,,,,Y,Y,Female,18,
37,3,558,7,7,12,['d'],['d'],N,Y,['space'],Y,,,,,Y,Y,Female,18,
37,4,559,14,14,12,['k'],['k'],N,Y,['space'],Y,,,,,Y,Y,Female,18,
37,5,560,2,2,12,['k'],['d'],Y,Y,['space'],Y,,,,,Y,Y,Female,18,
37,6,561,10,10,12,['d'],['k'],Y,N,None,Y,,,,,Y,Y,Female,18,
37,7,562,7,7,12,['k'],['k'],N,Y,None,N,,,,,Y,Y,Female,18,
37,8,563,13,13,12,['d'],['d'],N,N,['space'],N,,,,,Y,Y,Female,18,
37,9,564,5,5,12,['k'],['d'],Y,N,None,Y,,,,,Y,Y,Female,18,
37,10,565,10,10,12,['k'],['d'],Y,N,None,Y,,,,,Y,Y,Female,18,
37,11,566,10,10,12,['d'],['k'],Y,N,['space'],N,,,,,Y,Y,Female,18,
37,12,567,0,0,12,['k'],['d'],Y,Y,['space'],Y,,,,,Y,Y,Female,18,
37,13,568,12,12,12,['d'],['k'],Y,Y,None,N,,,,,Y,Y,Female,18,
37,14,569,14,14,12,['d'],['k'],Y,N,None,Y,,,,,Y,Y,Female,18,
38,0,570,12,12,12,['k'],['k'],N,N,None,Y,,,,,Y,Y,Female,18,
38,1,571,1,1,12,['d'],['k'],Y,Y,None,N,,,,,Y,Y,Female,18,
38,2,572,3,3,12,['k'],['d'],Y,N,None,Y,,,,,Y,Y,Female,18,
38,3,573,8,8,12,['k'],['d'],Y,Y,None,N,,,,,Y,Y,Female,18,
38,4,574,5,5,12,['d'],['d'],N,N,None,Y,,,,,Y,Y,Female,18,
38,5,575,3,3,12,['d'],['k'],Y,N,None,Y,,,,,Y,Y,Female,18,
38,6,576,12,12,12,['d'],['k'],Y,Y,None,N,,,,,Y,Y,Female,18,
38,7,577,10,10,12,['k'],['d'],Y,Y,['k'],N,,,,,Y,Y,Female,18,
38,8,578,6,6,12,['k'],['d'],Y,Y,None,N,,,,,Y,Y,Female,18,
38,9,579,13,13,12,['d'],['k'],Y,N,None,Y,,,,,Y,Y,Female,18,
38,10,580,9,9,12,['d'],['k'],Y,Y,None,N,,,,,Y,Y,Female,18,
38,11,581,8,8,12,['d'],['k'],Y,N,['space'],N,,,,,Y,Y,Female,18,
38,12,582,10,10,12,['d'],['k'],Y,Y,None,N,,,,,Y,Y,Female,18,
38,13,583,6,6,12,['d'],['d'],N,Y,['space'],Y,,,,,Y,Y,Female,18,
38,14,584,9,9,12,['k'],['k'],N,Y,None,N,,,,,Y,Y,Female,18,
39,0,585,9,9,12,['k'],['d'],Y,Y,['space'],Y,,,,,Y,Y,Female,18,
39,1,586,6,6,12,['d'],['k'],Y,N,None,Y,,,,,Y,Y,Female,18,
39,2,587,6,6,12,['k'],['d'],Y,N,None,Y,,,,,Y,Y,Female,18,
39,3,588,1,1,12,['d'],['k'],Y,Y,None,N,,,,,Y,Y,Female,18,
39,4,589,14,14,12,['k'],['k'],N,Y,['space'],Y,,,,,Y,Y,Female,18,
39,5,590,11,11,12,['d'],['k'],Y,N,None,Y,,,,,Y,Y,Female,18,
39,6,591,3,3,12,['k'],['k'],N,Y,['space'],Y,,,,,Y,Y,Female,18,
39,7,592,14,14,12,['d'],['d'],N,N,None,Y,,,,,Y,Y,Female,18,
39,8,593,4,4,12,['k'],['k'],N,N,None,Y,,,,,Y,Y,Female,18,
39,9,594,13,13,12,['k'],['k'],N,N,None,Y,,,,,Y,Y,Female,18,
39,10,595,0,0,12,['d'],['k'],Y,N,None,Y,,,,,Y,Y,Female,18,
39,11,596,7,7,12,['k'],['d'],Y,N,None,Y,,,,,Y,Y,Female,18,
39,12,597,4,4,12,['k'],['d'],Y,N,None,Y,,,,,Y,Y,Female,18,
39,13,598,2,2,12,['d'],['d'],N,N,None,Y,,,,,Y,Y,Female,18,
39,14,599,13,13,12,['k'],['k'],N,N,None,Y,34,32,25,,Y,Y,Female,18,
