.thisRepN,.thisTrialN,.thisN,.thisIndex,.thisTrial,Block Number,Key pressed,Category,Correct?,Int Match?,Int Response,Int Correct?,Line Accuracy,Interference Accuracy,Matching Interferences,New instruction shown?,Buttons switched?,Fast?,gender,age,
0,0,0,14,14,1,['d'],['k'],N,,,,,,,,,,M,22,
0,1,1,12,12,1,['d'],['k'],N,,,,,,,,,,M,22,
0,2,2,1,1,1,['k'],['k'],Y,N,['space'],N,,,,,,,M,22,
0,3,3,1,1,1,['k'],['d'],N,N,None,Y,,,,,,,M,22,
0,4,4,2,2,1,['d'],['k'],N,Y,['space'],Y,,,,,,,M,22,
0,5,5,11,11,1,['d'],['k'],N,Y,None,N,,,,,,,M,22,
0,6,6,11,11,1,['k'],['k'],Y,N,['space'],N,,,,,,,M,22,
0,7,7,4,4,1,['k'],['d'],N,N,None,Y,,,,,,,M,22,
0,8,8,14,14,1,['d'],['k'],N,N,None,Y,,,,,,,M,22,
0,9,9,9,9,1,['d'],['d'],Y,N,None,Y,,,,,,,M,22,
0,10,10,5,5,1,['k'],['k'],Y,N,['space'],N,,,,,,,M,22,
0,11,11,5,5,1,['k'],['k'],Y,N,['space'],N,,,,,,,M,22,
0,12,12,9,9,1,['k'],['k'],Y,N,None,Y,,,,,,,M,22,
0,13,13,7,7,1,['k'],['d'],N,N,None,Y,,,,,,,M,22,
0,14,14,7,7,1,['d'],['k'],N,Y,['space'],Y,,,,,,,M,22,
1,0,15,3,3,1,['k'],['k'],Y,N,['k'],N,,,,,,,M,22,
1,1,16,14,14,1,['k'],['k'],Y,N,None,Y,,,,,,,M,22,
1,2,17,0,0,1,['k'],['d'],N,N,None,Y,,,,,,,M,22,
1,3,18,6,6,1,['d'],['k'],N,Y,None,N,,,,,,,M,22,
1,4,19,10,10,1,['k'],['k'],Y,Y,['k'],N,,,,,,,M,22,
1,5,20,13,13,1,['d'],['d'],Y,Y,None,N,,,,,,,M,22,
1,6,21,9,9,1,['d'],['k'],N,Y,['space'],Y,,,,,,,M,22,
1,7,22,13,13,1,['k'],['k'],Y,Y,None,N,,,,,,,M,22,
1,8,23,13,13,1,['d'],['k'],N,N,None,Y,,,,,,,M,22,
1,9,24,3,3,1,['k'],['d'],N,N,None,Y,,,,,,,M,22,
1,10,25,2,2,1,['d'],['d'],Y,N,None,Y,,,,,,,M,22,
1,11,26,13,13,1,['k'],['d'],N,N,None,Y,,,,,,,M,22,
1,12,27,2,2,1,['d'],['d'],Y,Y,['space'],Y,,,,,,,M,22,
1,13,28,14,14,1,['d'],['d'],Y,N,None,Y,,,,,,,M,22,
1,14,29,1,1,1,['d'],['d'],Y,Y,None,N,,,,,,,M,22,
2,0,30,1,1,1,['d'],['k'],N,Y,None,N,,,,,,,M,22,
2,1,31,14,14,1,['k'],['d'],N,Y,['space'],Y,,,,,,,M,22,
2,2,32,4,4,1,['d'],['k'],N,N,None,Y,,,,,,,M,22,
2,3,33,10,10,1,['k'],['k'],Y,Y,None,N,,,,,,,M,22,
2,4,34,1,1,1,['d'],['k'],N,Y,['space'],Y,,,,,,,M,22,
2,5,35,7,7,1,['k'],['k'],Y,N,None,Y,,,,,,,M,22,
2,6,36,12,12,1,['k'],['k'],Y,Y,['space'],Y,,,,,,,M,22,
2,7,37,13,13,1,['k'],['k'],Y,Y,['space'],Y,,,,,,,M,22,
2,8,38,3,3,1,['k'],['d'],N,Y,None,N,,,,,,,M,22,
2,9,39,10,10,1,['k'],['d'],N,Y,['k'],N,,,,,,,M,22,
2,10,40,14,14,1,['d'],['d'],Y,N,None,Y,,,,,,,M,22,
2,11,41,0,0,1,['k'],['d'],N,N,None,Y,,,,,,,M,22,
2,12,42,10,10,1,['d'],['k'],N,N,None,Y,,,,,,,M,22,
2,13,43,0,0,1,['k'],['k'],Y,N,None,Y,,,,,,,M,22,
2,14,44,14,14,1,['k'],['k'],Y,Y,None,N,,,,,,,M,22,
3,0,45,0,0,1,['k'],['d'],N,Y,None,N,,,,,,,M,22,
3,1,46,12,12,1,['k'],['d'],N,N,None,Y,,,,,,,M,22,
3,2,47,1,1,1,['d'],['d'],Y,N,None,Y,,,,,,,M,22,
3,3,48,3,3,1,['d'],['k'],N,N,None,Y,,,,,,,M,22,
3,4,49,12,12,1,['k'],['k'],Y,N,None,Y,24,31,20,,,,M,22,
3,5,50,10,10,2,['d'],['d'],Y,,,,,,,,,,M,22,
3,6,51,7,7,2,['d'],['k'],N,,,,,,,,,,M,22,
3,7,52,0,0,2,['d'],['d'],Y,Y,None,N,,,,,,,M,22,
3,8,53,14,14,2,['d'],['d'],Y,Y,None,N,,,,,,,M,22,
3,9,54,12,12,2,['d'],['k'],N,Y,None,N,,,,,,,M,22,
3,10,55,6,6,2,['k'],['k'],Y,N,None,Y,,,,,,,M,22,
3,11,56,7,7,2,['d'],['d'],Y,Y,['space'],Y,,,,,,,M,22,
3,12,57,3,3,2,['k'],['k'],Y,N,None,Y,,,,,,,M,22,
3,13,58,14,14,2,['k'],['k'],Y,Y,['space'],Y,,,,,,,M,22,
3,14,59,13,13,2,['k'],['d'],N,N,None,Y,,,,,,,M,22,
4,0,60,0,0,2,['d'],['d'],Y,Y,None,N,,,,,,,M,22,
4,1,61,0,0,2,['k'],['d'],N,N,None,Y,,,,,,,M,22,
4,2,62,5,5,2,['d'],['d'],Y,Y,None,N,,,,,,,M,22,
4,3,63,9,9,2,['k'],['k'],Y,Y,None,N,,,,,,,M,22,
4,4,64,14,14,2,['k'],['k'],Y,N,None,Y,,,,,,,M,22,
4,5,65,4,4,2,['k'],['d'],N,Y,['space'],Y,,,,,,,M,22,
4,6,66,0,0,2,['d'],['d'],Y,N,None,Y,,,,,,,M,22,
4,7,67,14,14,2,['k'],['k'],Y,Y,None,N,,,,,,,M,22,
4,8,68,7,7,2,['k'],['k'],Y,N,None,Y,,,,,,,M,22,
4,9,69,11,11,2,['k'],['k'],Y,Y,None,N,,,,,,,M,22,
4,10,70,11,11,2,['d'],['d'],Y,N,None,Y,,,,,,,M,22,
4,11,71,10,10,2,['d'],['d'],Y,Y,None,N,,,,,,,M,22,
4,12,72,3,3,2,['d'],['d'],Y,Y,None,N,,,,,,,M,22,
4,13,73,8,8,2,['d'],['d'],Y,N,None,Y,,,,,,,M,22,
4,14,74,12,12,2,['d'],['d'],Y,N,None,Y,,,,,,,M,22,
5,0,75,5,5,2,['k'],['d'],N,Y,None,N,,,,,,,M,22,
5,1,76,5,5,2,['d'],['d'],Y,N,None,Y,,,,,,,M,22,
5,2,77,11,11,2,['k'],['d'],N,N,None,Y,,,,,,,M,22,
5,3,78,4,4,2,['d'],['d'],Y,Y,None,N,,,,,,,M,22,
5,4,79,2,2,2,['d'],['d'],Y,N,None,Y,,,,,,,M,22,
5,5,80,2,2,2,['d'],['d'],Y,N,None,Y,,,,,,,M,22,
5,6,81,4,4,2,['d'],['d'],Y,N,None,Y,,,,,,,M,22,
5,7,82,3,3,2,['k'],['k'],Y,Y,None,N,,,,,,,M,22,
5,8,83,7,7,2,['d'],['d'],Y,N,None,Y,,,,,,,M,22,
5,9,84,5,5,2,['k'],['k'],Y,N,None,Y,,,,,,,M,22,
5,10,85,7,7,2,['k'],['k'],Y,N,None,Y,,,,,,,M,22,
5,11,86,4,4,2,['d'],['d'],Y,N,None,Y,,,,,,,M,22,
5,12,87,12,12,2,['k'],['k'],Y,N,None,Y,,,,,,,M,22,
5,13,88,11,11,2,['d'],['d'],Y,Y,None,N,,,,,,,M,22,
5,14,89,13,13,2,['k'],['k'],Y,N,None,Y,,,,,,,M,22,
6,0,90,12,12,2,['k'],['k'],Y,Y,None,N,,,,,,,M,22,
6,1,91,11,11,2,['k'],['d'],N,Y,None,N,,,,,,,M,22,
6,2,92,6,6,2,['d'],['d'],Y,N,None,Y,,,,,,,M,22,
6,3,93,11,11,2,['d'],['k'],N,Y,None,N,,,,,,,M,22,
6,4,94,14,14,2,['k'],['d'],N,Y,None,N,,,,,,,M,22,
6,5,95,12,12,2,['d'],['d'],Y,N,None,Y,,,,,,,M,22,
6,6,96,0,0,2,['k'],['k'],Y,N,None,Y,,,,,,,M,22,
6,7,97,12,12,2,['k'],['k'],Y,N,None,Y,,,,,,,M,22,
6,8,98,12,12,2,['d'],['d'],Y,Y,['d'],N,,,,,,,M,22,
6,9,99,9,9,2,['k'],['d'],N,N,None,Y,39,29,22,,,,M,22,
6,10,100,5,5,3,['d'],['d'],Y,,,,,,,,,,M,22,
6,11,101,2,2,3,['d'],['k'],N,,,,,,,,,,M,22,
6,12,102,11,11,3,['k'],['k'],Y,Y,['space'],Y,,,,,,,M,22,
6,13,103,8,8,3,['k'],['k'],Y,N,None,Y,,,,,,,M,22,
6,14,104,8,8,3,['k'],['d'],N,Y,['space'],Y,,,,,,,M,22,
7,0,105,3,3,3,['d'],['d'],Y,N,None,Y,,,,,,,M,22,
7,1,106,4,4,3,['k'],['d'],N,Y,['space'],Y,,,,,,,M,22,
7,2,107,3,3,3,['d'],['k'],N,Y,None,N,,,,,,,M,22,
7,3,108,12,12,3,['k'],['k'],Y,N,None,Y,,,,,,,M,22,
7,4,109,2,2,3,['k'],['k'],Y,Y,None,N,,,,,,,M,22,
7,5,110,12,12,3,['d'],['d'],Y,Y,None,N,,,,,,,M,22,
7,6,111,11,11,3,['d'],['d'],Y,N,None,Y,,,,,,,M,22,
7,7,112,3,3,3,['d'],['d'],Y,Y,None,N,,,,,,,M,22,
7,8,113,7,7,3,['k'],['k'],Y,N,None,Y,,,,,,,M,22,
7,9,114,13,13,3,['k'],['k'],Y,Y,None,N,,,,,,,M,22,
7,10,115,9,9,3,['k'],['k'],Y,Y,['space'],Y,,,,,,,M,22,
7,11,116,13,13,3,['k'],['k'],Y,N,None,Y,,,,,,,M,22,
7,12,117,4,4,3,['k'],['k'],Y,N,None,Y,,,,,,,M,22,
7,13,118,9,9,3,['k'],['k'],Y,Y,None,N,,,,,,,M,22,
7,14,119,6,6,3,['k'],['k'],Y,Y,['space'],Y,,,,,,,M,22,
8,0,120,1,1,3,['k'],['k'],Y,Y,None,N,,,,,,,M,22,
8,1,121,11,11,3,['k'],['k'],Y,Y,None,N,,,,,,,M,22,
8,2,122,9,9,3,['k'],['k'],Y,Y,None,N,,,,,,,M,22,
8,3,123,2,2,3,['k'],['d'],N,Y,None,N,,,,,,,M,22,
8,4,124,5,5,3,['d'],['d'],Y,Y,None,N,,,,,,,M,22,
8,5,125,9,9,3,['d'],['d'],Y,N,None,Y,,,,,,,M,22,
8,6,126,7,7,3,['k'],['k'],Y,N,None,Y,,,,,,,M,22,
8,7,127,10,10,3,['d'],['d'],Y,Y,None,N,,,,,,,M,22,
8,8,128,2,2,3,['k'],['d'],N,N,None,Y,,,,,,,M,22,
8,9,129,8,8,3,['d'],['k'],N,N,None,Y,,,,,,,M,22,
8,10,130,11,11,3,['k'],['d'],N,Y,['space'],Y,,,,,,,M,22,
8,11,131,9,9,3,['d'],['d'],Y,N,None,Y,,,,,,,M,22,
8,12,132,2,2,3,['k'],['k'],Y,Y,None,N,,,,,,,M,22,
8,13,133,7,7,3,['d'],['d'],Y,Y,None,N,,,,,,,M,22,
8,14,134,13,13,3,['k'],['k'],Y,N,None,Y,,,,,,,M,22,
9,0,135,9,9,3,['k'],['d'],N,N,None,Y,,,,,,,M,22,
9,1,136,6,6,3,['d'],['d'],Y,N,None,Y,,,,,,,M,22,
9,2,137,6,6,3,['d'],['d'],Y,Y,None,N,,,,,,,M,22,
9,3,138,2,2,3,['k'],['k'],Y,Y,None,N,,,,,,,M,22,
9,4,139,8,8,3,['d'],['d'],Y,Y,['space'],Y,,,,,,,M,22,
9,5,140,10,10,3,['k'],['k'],Y,Y,['space'],Y,,,,,,,M,22,
9,6,141,7,7,3,['k'],['k'],Y,N,None,Y,,,,,,,M,22,
9,7,142,14,14,3,['k'],['k'],Y,Y,['space'],Y,,,,,,,M,22,
9,8,143,9,9,3,['k'],['k'],Y,N,['space'],N,,,,,,,M,22,
9,9,144,6,6,3,['d'],['d'],Y,N,None,Y,,,,,,,M,22,
9,10,145,14,14,3,['k'],['d'],N,N,None,Y,,,,,,,M,22,
9,11,146,9,9,3,['d'],['d'],Y,N,None,Y,,,,,,,M,22,
9,12,147,0,0,3,['k'],['k'],Y,N,None,Y,,,,,,,M,22,
9,13,148,10,10,3,['d'],['d'],Y,N,None,Y,,,,,,,M,22,
9,14,149,4,4,3,['d'],['d'],Y,N,None,Y,40,31,25,,,,M,22,
10,0,150,13,13,4,['k'],['k'],Y,,,,,,,,,,M,22,
10,1,151,8,8,4,['k'],['d'],N,,,,,,,,,,M,22,
10,2,152,4,4,4,['k'],['d'],N,N,None,Y,,,,,,,M,22,
10,3,153,0,0,4,['d'],['d'],Y,Y,None,N,,,,,,,M,22,
10,4,154,8,8,4,['k'],['d'],N,Y,None,N,,,,,,,M,22,
10,5,155,7,7,4,['d'],['d'],Y,Y,['space'],Y,,,,,,,M,22,
10,6,156,13,13,4,['k'],['k'],Y,N,['space'],N,,,,,,,M,22,
10,7,157,14,14,4,['k'],['k'],Y,N,['d'],N,,,,,,,M,22,
10,8,158,10,10,4,['k'],['k'],Y,Y,['k'],N,,,,,,,M,22,
10,9,159,14,14,4,['k'],['k'],Y,Y,['space'],Y,,,,,,,M,22,
10,10,160,3,3,4,['d'],['k'],N,N,None,Y,,,,,,,M,22,
10,11,161,12,12,4,['k'],['k'],Y,Y,None,N,,,,,,,M,22,
10,12,162,10,10,4,['d'],['d'],Y,N,None,Y,,,,,,,M,22,
10,13,163,1,1,4,['d'],['d'],Y,N,None,Y,,,,,,,M,22,
10,14,164,4,4,4,['d'],['d'],Y,N,None,Y,,,,,,,M,22,
11,0,165,10,10,4,['d'],['d'],Y,N,None,Y,,,,,,,M,22,
11,1,166,13,13,4,['d'],['k'],N,Y,['space'],Y,,,,,,,M,22,
11,2,167,10,10,4,['k'],['k'],Y,Y,['space'],Y,,,,,,,M,22,
11,3,168,1,1,4,['d'],['d'],Y,N,None,Y,,,,,,,M,22,
11,4,169,2,2,4,['k'],['k'],Y,Y,['space'],Y,,,,,,,M,22,
11,5,170,1,1,4,['k'],['d'],N,N,None,Y,,,,,,,M,22,
11,6,171,0,0,4,['k'],['k'],Y,Y,['space'],Y,,,,,,,M,22,
11,7,172,14,14,4,['d'],['d'],Y,Y,None,N,,,,,,,M,22,
11,8,173,4,4,4,['k'],['d'],N,Y,['space'],Y,,,,,,,M,22,
11,9,174,2,2,4,['d'],['k'],N,Y,None,N,,,,,,,M,22,
11,10,175,6,6,4,['k'],['k'],Y,Y,None,N,,,,,,,M,22,
11,11,176,8,8,4,['d'],['d'],Y,Y,['space'],Y,,,,,,,M,22,
11,12,177,8,8,4,['k'],['d'],N,N,None,Y,,,,,,,M,22,
11,13,178,14,14,4,['d'],['d'],Y,N,None,Y,,,,,,,M,22,
11,14,179,6,6,4,['k'],['d'],N,N,None,Y,,,,,,,M,22,
12,0,180,8,8,4,['d'],['d'],Y,N,None,Y,,,,,,,M,22,
12,1,181,12,12,4,['k'],['k'],Y,Y,None,N,,,,,,,M,22,
12,2,182,8,8,4,['k'],['k'],Y,N,None,Y,,,,,,,M,22,
12,3,183,10,10,4,['k'],['k'],Y,Y,['space'],Y,,,,,,,M,22,
12,4,184,11,11,4,['d'],['d'],Y,N,None,Y,,,,,,,M,22,
12,5,185,0,0,4,['d'],['d'],Y,N,None,Y,,,,,,,M,22,
12,6,186,14,14,4,['k'],['k'],Y,Y,None,N,,,,,,,M,22,
12,7,187,14,14,4,['k'],['k'],Y,N,None,Y,,,,,,,M,22,
12,8,188,11,11,4,['k'],['d'],N,Y,['space'],Y,,,,,,,M,22,
12,9,189,1,1,4,['d'],['d'],Y,Y,['d'],N,,,,,,,M,22,
12,10,190,8,8,4,['d'],['d'],Y,Y,None,N,,,,,,,M,22,
12,11,191,6,6,4,['d'],['k'],N,Y,None,N,,,,,,,M,22,
12,12,192,7,7,4,['d'],['d'],Y,N,None,Y,,,,,,,M,22,
12,13,193,5,5,4,['k'],['k'],Y,N,['space'],N,,,,,,,M,22,
12,14,194,10,10,4,['d'],['k'],N,N,['space'],N,,,,,,,M,22,
13,0,195,12,12,4,['k'],['k'],Y,Y,['space'],Y,,,,,,,M,22,
13,1,196,2,2,4,['d'],['d'],Y,N,None,Y,,,,,,,M,22,
13,2,197,2,2,4,['k'],['k'],Y,Y,['space'],Y,,,,,,,M,22,
13,3,198,6,6,4,['d'],['d'],Y,Y,None,N,,,,,,,M,22,
13,4,199,13,13,4,['k'],['k'],Y,N,None,Y,37,31,25,,,,M,22,
13,5,200,9,9,5,['d'],['d'],Y,,,,,,,,,,M,22,
13,6,201,14,14,5,['d'],['d'],Y,,,,,,,,,,M,22,
13,7,202,5,5,5,['k'],['k'],Y,N,['space'],N,,,,,,,M,22,
13,8,203,1,1,5,['k'],['k'],Y,Y,['space'],Y,,,,,,,M,22,
13,9,204,6,6,5,['d'],['k'],N,Y,['space'],Y,,,,,,,M,22,
13,10,205,11,11,5,['k'],['d'],N,Y,['space'],Y,,,,,,,M,22,
13,11,206,10,10,5,['d'],['k'],N,N,None,Y,,,,,,,M,22,
13,12,207,9,9,5,['d'],['d'],Y,N,None,Y,,,,,,,M,22,
13,13,208,7,7,5,['d'],['d'],Y,N,None,Y,,,,,,,M,22,
13,14,209,12,12,5,['k'],['k'],Y,Y,None,N,,,,,,,M,22,
14,0,210,12,12,5,['d'],['d'],Y,Y,None,N,,,,,,,M,22,
14,1,211,4,4,5,['k'],['k'],Y,N,None,Y,,,,,,,M,22,
14,2,212,8,8,5,['k'],['k'],Y,Y,None,N,,,,,,,M,22,
14,3,213,5,5,5,['k'],['k'],Y,Y,None,N,,,,,,,M,22,
14,4,214,3,3,5,['d'],['d'],Y,Y,['d'],N,,,,,,,M,22,
14,5,215,12,12,5,['k'],['k'],Y,N,None,Y,,,,,,,M,22,
14,6,216,5,5,5,['k'],['k'],Y,N,None,Y,,,,,,,M,22,
14,7,217,13,13,5,['d'],['d'],Y,Y,['space'],Y,,,,,,,M,22,
14,8,218,3,3,5,['k'],['k'],Y,N,None,Y,,,,,,,M,22,
14,9,219,5,5,5,['d'],['d'],Y,Y,None,N,,,,,,,M,22,
14,10,220,9,9,5,['k'],['d'],N,N,None,Y,,,,,,,M,22,
14,11,221,4,4,5,['d'],['d'],Y,N,None,Y,,,,,,,M,22,
14,12,222,8,8,5,['d'],['d'],Y,N,None,Y,,,,,,,M,22,
14,13,223,11,11,5,['k'],['d'],N,N,None,Y,,,,,,,M,22,
14,14,224,4,4,5,['k'],['k'],Y,N,['space'],N,,,,,,,M,22,
15,0,225,1,1,5,['k'],['k'],Y,Y,None,N,,,,,,,M,22,
15,1,226,4,4,5,['k'],['k'],Y,Y,None,N,,,,,,,M,22,
15,2,227,9,9,5,['k'],['d'],N,Y,None,N,,,,,,,M,22,
15,3,228,11,11,5,['k'],['k'],Y,Y,['space'],Y,,,,,,,M,22,
15,4,229,1,1,5,['k'],['k'],Y,Y,None,N,,,,,,,M,22,
15,5,230,3,3,5,['k'],['k'],Y,N,None,Y,,,,,,,M,22,
15,6,231,14,14,5,['k'],['k'],Y,N,None,Y,,,,,,,M,22,
15,7,232,3,3,5,['k'],['k'],Y,Y,None,N,,,,,,,M,22,
15,8,233,7,7,5,['k'],['k'],Y,Y,['space'],Y,,,,,,,M,22,
15,9,234,4,4,5,['d'],['d'],Y,Y,['space'],Y,,,,,,,M,22,
15,10,235,0,0,5,['k'],['k'],Y,Y,None,N,,,,,,,M,22,
15,11,236,10,10,5,['d'],['d'],Y,Y,None,N,,,,,,,M,22,
15,12,237,5,5,5,['k'],['k'],Y,Y,['space'],Y,,,,,,,M,22,
15,13,238,11,11,5,['d'],['d'],Y,N,None,Y,,,,,,,M,22,
15,14,239,5,5,5,['k'],['d'],N,Y,['space'],Y,,,,,,,M,22,
16,0,240,14,14,5,['k'],['k'],Y,Y,None,N,,,,,,,M,22,
16,1,241,8,8,5,['d'],['d'],Y,Y,None,N,,,,,,,M,22,
16,2,242,2,2,5,['k'],['d'],N,N,None,Y,,,,,,,M,22,
16,3,243,12,12,5,['d'],['d'],Y,N,None,Y,,,,,,,M,22,
16,4,244,8,8,5,['k'],['d'],N,N,None,Y,,,,,,,M,22,
16,5,245,4,4,5,['d'],['d'],Y,Y,None,N,,,,,,,M,22,
16,6,246,12,12,5,['k'],['d'],N,N,None,Y,,,,,,,M,22,
16,7,247,6,6,5,['d'],['k'],N,N,None,Y,,,,,,,M,22,
16,8,248,10,10,5,['k'],['k'],Y,N,None,Y,,,,,,,M,22,
16,9,249,14,14,5,['k'],['k'],Y,N,None,Y,39,30,25,,,,M,22,
16,10,250,13,13,6,['d'],['k'],N,,,,,,,,,,M,22,
16,11,251,13,13,6,['k'],['k'],Y,,,,,,,,,,M,22,
16,12,252,9,9,6,['k'],['k'],Y,N,None,Y,,,,,,,M,22,
16,13,253,13,13,6,['k'],['k'],Y,N,None,Y,,,,,,,M,22,
16,14,254,4,4,6,['k'],['d'],N,Y,None,N,,,,,,,M,22,
17,0,255,14,14,6,['k'],['d'],N,Y,['space'],Y,,,,,,,M,22,
17,1,256,11,11,6,['k'],['k'],Y,N,None,Y,,,,,,,M,22,
17,2,257,8,8,6,['k'],['d'],N,N,['space'],N,,,,,,,M,22,
17,3,258,6,6,6,['k'],['d'],N,Y,None,N,,,,,,,M,22,
17,4,259,6,6,6,['d'],['k'],N,N,None,Y,,,,,,,M,22,
17,5,260,6,6,6,['d'],['d'],Y,Y,['space'],Y,,,,,,,M,22,
17,6,261,7,7,6,['k'],['k'],Y,Y,None,N,,,,,,,M,22,
17,7,262,4,4,6,['k'],['k'],Y,N,None,Y,,,,,,,M,22,
17,8,263,3,3,6,['k'],['k'],Y,Y,['k'],N,,,,,,,M,22,
17,9,264,7,7,6,['d'],['d'],Y,Y,None,N,,,,,,,M,22,
17,10,265,10,10,6,['k'],['k'],Y,N,None,Y,,,,,,,M,22,
17,11,266,0,0,6,['d'],['d'],Y,N,None,Y,,,,,,,M,22,
17,12,267,1,1,6,['k'],['d'],N,Y,None,N,,,,,,,M,22,
17,13,268,4,4,6,['d'],['d'],Y,Y,None,N,,,,,,,M,22,
17,14,269,9,9,6,['d'],['d'],Y,Y,None,N,,,,,,,M,22,
18,0,270,13,13,6,['k'],['k'],Y,N,None,Y,,,,,,,M,22,
18,1,271,9,9,6,['k'],['k'],Y,N,None,Y,,,,,,,M,22,
18,2,272,3,3,6,['d'],['d'],Y,N,None,Y,,,,,,,M,22,
18,3,273,13,13,6,['k'],['k'],Y,Y,None,N,,,,,,,M,22,
18,4,274,14,14,6,['d'],['d'],Y,N,None,Y,,,,,,,M,22,
18,5,275,7,7,6,['k'],['d'],N,Y,None,N,,,,,,,M,22,
18,6,276,1,1,6,['k'],['k'],Y,N,None,Y,,,,,,,M,22,
18,7,277,8,8,6,['k'],['k'],Y,Y,None,N,,,,,,,M,22,
18,8,278,9,9,6,['k'],['d'],N,Y,None,N,,,,,,,M,22,
18,9,279,3,3,6,['d'],['d'],Y,N,None,Y,,,,,,,M,22,
18,10,280,10,10,6,['k'],['k'],Y,Y,None,N,,,,,,,M,22,
18,11,281,6,6,6,['k'],['k'],Y,Y,['space'],Y,,,,,,,M,22,
18,12,282,1,1,6,['d'],['d'],Y,Y,['space'],Y,,,,,,,M,22,
18,13,283,2,2,6,['k'],['k'],Y,N,None,Y,,,,,,,M,22,
18,14,284,10,10,6,['k'],['k'],Y,Y,['space'],Y,,,,,,,M,22,
19,0,285,3,3,6,['d'],['d'],Y,Y,['space'],Y,,,,,,,M,22,
19,1,286,8,8,6,['d'],['d'],Y,Y,None,N,,,,,,,M,22,
19,2,287,0,0,6,['d'],['d'],Y,N,['space'],N,,,,,,,M,22,
19,3,288,0,0,6,['k'],['d'],N,Y,None,N,,,,,,,M,22,
19,4,289,7,7,6,['d'],['k'],N,Y,None,N,,,,,,,M,22,
19,5,290,14,14,6,['k'],['k'],Y,N,None,Y,,,,,,,M,22,
19,6,291,10,10,6,['d'],['d'],Y,Y,None,N,,,,,,,M,22,
19,7,292,14,14,6,['k'],['k'],Y,N,None,Y,,,,,,,M,22,
19,8,293,10,10,6,['d'],['d'],Y,Y,['space'],Y,,,,,,,M,22,
19,9,294,12,12,6,['d'],['d'],Y,N,None,Y,,,,,,,M,22,
19,10,295,11,11,6,['d'],['k'],N,N,None,Y,,,,,,,M,22,
19,11,296,0,0,6,['k'],['k'],Y,N,['space'],N,,,,,,,M,22,
19,12,297,1,1,6,['d'],['k'],N,N,None,Y,,,,,,,M,22,
19,13,298,1,1,6,['k'],['k'],Y,N,None,Y,,,,,,,M,22,
19,14,299,5,5,6,['d'],['d'],Y,N,None,Y,37,28,24,,,,M,22,
20,0,300,6,6,7,['d'],['d'],Y,,,,,,,,,,M,22,
20,1,301,6,6,7,['k'],['d'],N,,,,,,,,,,M,22,
20,2,302,9,9,7,['k'],['k'],Y,Y,['space'],Y,,,,,,,M,22,
20,3,303,14,14,7,['d'],['d'],Y,Y,['space'],Y,,,,,,,M,22,
20,4,304,8,8,7,['d'],['d'],Y,N,None,Y,,,,,,,M,22,
20,5,305,2,2,7,['k'],['k'],Y,Y,['space'],Y,,,,,,,M,22,
20,6,306,13,13,7,['d'],['d'],Y,Y,['space'],Y,,,,,,,M,22,
20,7,307,6,6,7,['d'],['d'],Y,Y,None,N,,,,,,,M,22,
20,8,308,9,9,7,['d'],['d'],Y,N,None,Y,,,,,,,M,22,
20,9,309,5,5,7,['k'],['k'],Y,Y,None,N,,,,,,,M,22,
20,10,310,13,13,7,['d'],['d'],Y,Y,None,N,,,,,,,M,22,
20,11,311,6,6,7,['k'],['k'],Y,N,None,Y,,,,,,,M,22,
20,12,312,3,3,7,['k'],['d'],N,Y,['space'],Y,,,,,,,M,22,
20,13,313,1,1,7,['k'],['k'],Y,N,None,Y,,,,,,,M,22,
20,14,314,13,13,7,['k'],['k'],Y,Y,None,N,,,,,,,M,22,
21,0,315,14,14,7,['k'],['k'],Y,N,None,Y,,,,,,,M,22,
21,1,316,14,14,7,['k'],['k'],Y,Y,None,N,,,,,,,M,22,
21,2,317,0,0,7,['k'],['k'],Y,N,None,Y,,,,,,,M,22,
21,3,318,10,10,7,['d'],['d'],Y,Y,None,N,,,,,,,M,22,
21,4,319,4,4,7,['d'],['d'],Y,N,None,Y,,,,,,,M,22,
21,5,320,7,7,7,['d'],['d'],Y,N,None,Y,,,,,,,M,22,
21,6,321,10,10,7,['k'],['d'],N,N,None,Y,,,,,,,M,22,
21,7,322,10,10,7,['k'],['k'],Y,Y,None,N,,,,,,,M,22,
21,8,323,9,9,7,['d'],['d'],Y,N,None,Y,,,,,,,M,22,
21,9,324,1,1,7,['k'],['k'],Y,N,None,Y,,,,,,,M,22,
21,10,325,3,3,7,['k'],['k'],Y,Y,['space'],Y,,,,,,,M,22,
21,11,326,6,6,7,['k'],['k'],Y,N,None,Y,,,,,,,M,22,
21,12,327,7,7,7,['k'],['k'],Y,Y,None,N,,,,,,,M,22,
21,13,328,12,12,7,['d'],['d'],Y,N,None,Y,,,,,,,M,22,
21,14,329,6,6,7,['d'],['d'],Y,Y,None,N,,,,,,,M,22,
22,0,330,4,4,7,['d'],['d'],Y,Y,None,N,,,,,,,M,22,
22,1,331,5,5,7,['d'],['d'],Y,N,None,Y,,,,,,,M,22,
22,2,332,9,9,7,['d'],['d'],Y,N,None,Y,,,,,,,M,22,
22,3,333,14,14,7,['k'],['k'],Y,Y,None,N,,,,,,,M,22,
22,4,334,13,13,7,['k'],['k'],Y,Y,['space'],Y,,,,,,,M,22,
22,5,335,13,13,7,['k'],['k'],Y,Y,['k'],N,,,,,,,M,22,
22,6,336,11,11,7,['d'],['d'],Y,Y,['space'],Y,,,,,,,M,22,
22,7,337,2,2,7,['d'],['d'],Y,N,None,Y,,,,,,,M,22,
22,8,338,4,4,7,['d'],['d'],Y,N,None,Y,,,,,,,M,22,
22,9,339,2,2,7,['k'],['k'],Y,Y,['space'],Y,,,,,,,M,22,
22,10,340,3,3,7,['k'],['k'],Y,N,None,Y,,,,,,,M,22,
22,11,341,5,5,7,['k'],['k'],Y,Y,['space'],Y,,,,,,,M,22,
22,12,342,6,6,7,['k'],['d'],N,Y,None,N,,,,,,,M,22,
22,13,343,2,2,7,['d'],['d'],Y,N,None,Y,,,,,,,M,22,
22,14,344,10,10,7,['d'],['d'],Y,N,None,Y,,,,,,,M,22,
23,0,345,4,4,7,['d'],['d'],Y,N,None,Y,,,,,,,M,22,
23,1,346,13,13,7,['d'],['d'],Y,Y,None,N,,,,,,,M,22,
23,2,347,12,12,7,['k'],['k'],Y,N,None,Y,,,,,,,M,22,
23,3,348,6,6,7,['k'],['k'],Y,N,None,Y,,,,,,,M,22,
23,4,349,12,12,7,['k'],['k'],Y,N,None,Y,46,34,24,,,,M,22,
23,5,350,11,11,8,['k'],['k'],Y,,,,,,,,,,M,22,
23,6,351,12,12,8,['k'],['d'],N,,,,,,,,,,M,22,
23,7,352,11,11,8,['k'],['d'],N,N,None,Y,,,,,,,M,22,
23,8,353,7,7,8,['k'],['k'],Y,N,None,Y,,,,,,,M,22,
23,9,354,5,5,8,['k'],['k'],Y,Y,None,N,,,,,,,M,22,
23,10,355,7,7,8,['d'],['d'],Y,Y,['space'],Y,,,,,,,M,22,
23,11,356,1,1,8,['k'],['k'],Y,N,None,Y,,,,,,,M,22,
23,12,357,0,0,8,['k'],['d'],N,Y,['space'],Y,,,,,,,M,22,
23,13,358,6,6,8,['d'],['k'],N,Y,None,N,,,,,,,M,22,
23,14,359,4,4,8,['k'],['k'],Y,N,None,Y,,,,,,,M,22,
24,0,360,0,0,8,['k'],['d'],N,Y,['d'],N,,,,,,,M,22,
24,1,361,1,1,8,['k'],['k'],Y,N,['space'],N,,,,,,,M,22,
24,2,362,3,3,8,['d'],['d'],Y,N,['space'],N,,,,,,,M,22,
24,3,363,3,3,8,['k'],['d'],N,N,['space'],N,,,,,,,M,22,
24,4,364,5,5,8,['k'],['k'],Y,Y,['space'],Y,,,,,,,M,22,
24,5,365,0,0,8,['k'],['k'],Y,Y,['space'],Y,,,,,,,M,22,
24,6,366,6,6,8,['d'],['d'],Y,N,None,Y,,,,,,,M,22,
24,7,367,6,6,8,['k'],['k'],Y,N,None,Y,,,,,,,M,22,
24,8,368,0,0,8,['d'],['k'],N,Y,['space'],Y,,,,,,,M,22,
24,9,369,14,14,8,['k'],['k'],Y,N,None,Y,,,,,,,M,22,
24,10,370,2,2,8,['d'],['d'],Y,Y,['space'],Y,,,,,,,M,22,
24,11,371,7,7,8,['k'],['k'],Y,Y,None,N,,,,,,,M,22,
24,12,372,4,4,8,['k'],['k'],Y,Y,['space'],Y,,,,,,,M,22,
24,13,373,9,9,8,['k'],['k'],Y,N,None,Y,,,,,,,M,22,
24,14,374,6,6,8,['k'],['k'],Y,N,None,Y,,,,,,,M,22,
25,0,375,1,1,8,['k'],['k'],Y,N,None,Y,,,,,,,M,22,
25,1,376,5,5,8,['d'],['d'],Y,Y,None,N,,,,,,,M,22,
25,2,377,0,0,8,['d'],['k'],N,N,None,Y,,,,,,,M,22,
25,3,378,5,5,8,['d'],['d'],Y,Y,['space'],Y,,,,,,,M,22,
25,4,379,2,2,8,['k'],['k'],Y,Y,['space'],Y,,,,,,,M,22,
25,5,380,4,4,8,['k'],['k'],Y,Y,None,N,,,,,,,M,22,
25,6,381,4,4,8,['k'],['d'],N,Y,['space'],Y,,,,,,,M,22,
25,7,382,5,5,8,['d'],['d'],Y,Y,['space'],Y,,,,,,,M,22,
25,8,383,10,10,8,['k'],['k'],Y,N,None,Y,,,,,,,M,22,
25,9,384,13,13,8,['k'],['k'],Y,Y,['space'],Y,,,,,,,M,22,
25,10,385,13,13,8,['d'],['d'],Y,N,None,Y,,,,,,,M,22,
25,11,386,11,11,8,['k'],['d'],N,N,None,Y,,,,,,,M,22,
25,12,387,2,2,8,['k'],['k'],Y,Y,['space'],Y,,,,,,,M,22,
25,13,388,6,6,8,['k'],['k'],Y,N,None,Y,,,,,,,M,22,
25,14,389,7,7,8,['d'],['d'],Y,N,None,Y,,,,,,,M,22,
26,0,390,13,13,8,['d'],['d'],Y,Y,None,N,,,,,,,M,22,
26,1,391,6,6,8,['k'],['k'],Y,N,None,Y,,,,,,,M,22,
26,2,392,8,8,8,['d'],['d'],Y,N,None,Y,,,,,,,M,22,
26,3,393,0,0,8,['d'],['d'],Y,Y,['space'],Y,,,,,,,M,22,
26,4,394,11,11,8,['k'],['k'],Y,N,None,Y,,,,,,,M,22,
26,5,395,3,3,8,['k'],['k'],Y,Y,['space'],Y,,,,,,,M,22,
26,6,396,8,8,8,['k'],['k'],Y,Y,['space'],Y,,,,,,,M,22,
26,7,397,2,2,8,['k'],['d'],N,Y,['space'],Y,,,,,,,M,22,
26,8,398,5,5,8,['k'],['d'],N,N,None,Y,,,,,,,M,22,
26,9,399,8,8,8,['k'],['k'],Y,Y,['space'],Y,38,38,25,,,,M,22,
26,10,400,13,13,9,['d'],['d'],Y,,,,,,,,,,M,22,
26,11,401,8,8,9,['k'],['k'],Y,,,,,,,,,,M,22,
26,12,402,6,6,9,['k'],['d'],N,N,None,Y,,,,,,,M,22,
26,13,403,3,3,9,['k'],['d'],N,N,None,Y,,,,,,,M,22,
26,14,404,1,1,9,['d'],['k'],N,Y,['space'],Y,,,,,,,M,22,
27,0,405,4,4,9,['k'],['k'],Y,N,None,Y,,,,,,,M,22,
27,1,406,0,0,9,['d'],['k'],N,N,None,Y,,,,,,,M,22,
27,2,407,11,11,9,['k'],['d'],N,Y,None,N,,,,,,,M,22,
27,3,408,9,9,9,['d'],['d'],Y,N,None,Y,,,,,,,M,22,
27,4,409,3,3,9,['d'],['d'],Y,Y,None,N,,,,,,,M,22,
27,5,410,6,6,9,['d'],['d'],Y,Y,None,N,,,,,,,M,22,
27,6,411,7,7,9,['d'],['k'],N,Y,None,N,,,,,,,M,22,
27,7,412,5,5,9,['d'],['d'],Y,Y,None,N,,,,,,,M,22,
27,8,413,13,13,9,['k'],['k'],Y,N,None,Y,,,,,,,M,22,
27,9,414,12,12,9,['d'],['k'],N,N,None,Y,,,,,,,M,22,
27,10,415,2,2,9,['k'],['k'],Y,N,None,Y,,,,,,,M,22,
27,11,416,6,6,9,['k'],['d'],N,Y,None,N,,,,,,,M,22,
27,12,417,8,8,9,['d'],['d'],Y,Y,['space'],Y,,,,,,,M,22,
27,13,418,2,2,9,['k'],['d'],N,Y,None,N,,,,,,,M,22,
27,14,419,0,0,9,['d'],['d'],Y,Y,['space'],Y,,,,,,,M,22,
28,0,420,8,8,9,['d'],['d'],Y,Y,None,N,,,,,,,M,22,
28,1,421,7,7,9,['d'],['d'],Y,N,None,Y,,,,,,,M,22,
28,2,422,1,1,9,['k'],['k'],Y,N,None,Y,,,,,,,M,22,
28,3,423,11,11,9,['k'],['d'],N,N,None,Y,,,,,,,M,22,
28,4,424,7,7,9,['d'],['d'],Y,Y,['space'],Y,,,,,,,M,22,
28,5,425,12,12,9,['k'],['d'],N,N,None,Y,,,,,,,M,22,
28,6,426,3,3,9,['d'],['d'],Y,Y,None,N,,,,,,,M,22,
28,7,427,4,4,9,['k'],['k'],Y,Y,None,N,,,,,,,M,22,
28,8,428,2,2,9,['k'],['k'],Y,N,None,Y,,,,,,,M,22,
28,9,429,1,1,9,['d'],['d'],Y,Y,['space'],Y,,,,,,,M,22,
28,10,430,11,11,9,['d'],['d'],Y,Y,None,N,,,,,,,M,22,
28,11,431,0,0,9,['d'],['d'],Y,N,None,Y,,,,,,,M,22,
28,12,432,6,6,9,['d'],['d'],Y,N,None,Y,,,,,,,M,22,
28,13,433,13,13,9,['d'],['d'],Y,Y,None,N,,,,,,,M,22,
28,14,434,7,7,9,['k'],['k'],Y,Y,None,N,,,,,,,M,22,
29,0,435,14,14,9,['d'],['d'],Y,N,None,Y,,,,,,,M,22,
29,1,436,5,5,9,['k'],['k'],Y,N,None,Y,,,,,,,M,22,
29,2,437,7,7,9,['k'],['k'],Y,N,None,Y,,,,,,,M,22,
29,3,438,8,8,9,['k'],['k'],Y,Y,None,N,,,,,,,M,22,
29,4,439,6,6,9,['k'],['k'],Y,Y,None,N,,,,,,,M,22,
29,5,440,9,9,9,['d'],['d'],Y,N,None,Y,,,,,,,M,22,
29,6,441,12,12,9,['d'],['d'],Y,Y,['space'],Y,,,,,,,M,22,
29,7,442,0,0,9,['k'],['k'],Y,N,None,Y,,,,,,,M,22,
29,8,443,11,11,9,['k'],['k'],Y,N,None,Y,,,,,,,M,22,
29,9,444,6,6,9,['k'],['k'],Y,N,None,Y,,,,,,,M,22,
29,10,445,13,13,9,['k'],['k'],Y,Y,['space'],Y,,,,,,,M,22,
29,11,446,2,2,9,['d'],['d'],Y,Y,['space'],Y,,,,,,,M,22,
29,12,447,8,8,9,['k'],['k'],Y,N,None,Y,,,,,,,M,22,
29,13,448,12,12,9,['d'],['d'],Y,Y,None,N,,,,,,,M,22,
29,14,449,9,9,9,['d'],['d'],Y,Y,None,N,39,31,25,,,,M,22,
30,0,450,1,1,10,['d'],['d'],Y,,,,,,,,,,M,22,
30,1,451,1,1,10,['k'],['k'],Y,,,,,,,,,,M,22,
30,2,452,11,11,10,['d'],['d'],Y,Y,['space'],Y,,,,,,,M,22,
30,3,453,14,14,10,['k'],['k'],Y,N,None,Y,,,,,,,M,22,
30,4,454,11,11,10,['k'],['k'],Y,N,None,Y,,,,,,,M,22,
30,5,455,2,2,10,['k'],['k'],Y,N,None,Y,,,,,,,M,22,
30,6,456,7,7,10,['d'],['d'],Y,N,None,Y,,,,,,,M,22,
30,7,457,9,9,10,['d'],['d'],Y,N,None,Y,,,,,,,M,22,
30,8,458,2,2,10,['k'],['k'],Y,Y,['space'],Y,,,,,,,M,22,
30,9,459,7,7,10,['d'],['d'],Y,N,None,Y,,,,,,,M,22,
30,10,460,2,2,10,['d'],['k'],N,Y,['space'],Y,,,,,,,M,22,
30,11,461,1,1,10,['d'],['k'],N,Y,['space'],Y,,,,,,,M,22,
30,12,462,9,9,10,['d'],['k'],N,Y,['space'],Y,,,,,,,M,22,
30,13,463,13,13,10,['d'],['d'],Y,Y,['space'],Y,,,,,,,M,22,
30,14,464,5,5,10,['d'],['k'],N,N,['space'],N,,,,,,,M,22,
31,0,465,3,3,10,['k'],['k'],Y,N,None,Y,,,,,,,M,22,
31,1,466,3,3,10,['k'],['k'],Y,Y,None,N,,,,,,,M,22,
31,2,467,1,1,10,['k'],['k'],Y,N,None,Y,,,,,,,M,22,
31,3,468,13,13,10,['d'],['k'],N,Y,['space'],Y,,,,,,,M,22,
31,4,469,4,4,10,['k'],['k'],Y,N,None,Y,,,,,,,M,22,
31,5,470,10,10,10,['d'],['k'],N,N,None,Y,,,,,,,M,22,
31,6,471,8,8,10,['d'],['d'],Y,N,None,Y,,,,,,,M,22,
31,7,472,1,1,10,['k'],['k'],Y,Y,['space'],Y,,,,,,,M,22,
31,8,473,8,8,10,['k'],['k'],Y,N,None,Y,,,,,,,M,22,
31,9,474,4,4,10,['k'],['k'],Y,Y,None,N,,,,,,,M,22,
31,10,475,14,14,10,['k'],['d'],N,Y,['space'],Y,,,,,,,M,22,
31,11,476,4,4,10,['k'],['k'],Y,Y,None,N,,,,,,,M,22,
31,12,477,1,1,10,['d'],['k'],N,Y,None,N,,,,,,,M,22,
31,13,478,11,11,10,['d'],['d'],Y,Y,None,N,,,,,,,M,22,
31,14,479,12,12,10,['d'],['d'],Y,Y,None,N,,,,,,,M,22,
32,0,480,0,0,10,['k'],['k'],Y,Y,['space'],Y,,,,,,,M,22,
32,1,481,11,11,10,['d'],['d'],Y,N,None,Y,,,,,,,M,22,
32,2,482,6,6,10,['k'],['d'],N,N,None,Y,,,,,,,M,22,
32,3,483,12,12,10,['k'],['d'],N,Y,['space'],Y,,,,,,,M,22,
32,4,484,8,8,10,['d'],['d'],Y,N,None,Y,,,,,,,M,22,
32,5,485,5,5,10,['k'],['k'],Y,N,None,Y,,,,,,,M,22,
32,6,486,14,14,10,['d'],['d'],Y,Y,None,N,,,,,,,M,22,
32,7,487,8,8,10,['k'],['k'],Y,Y,['space'],Y,,,,,,,M,22,
32,8,488,0,0,10,['d'],['d'],Y,N,None,Y,,,,,,,M,22,
32,9,489,2,2,10,['k'],['k'],Y,N,None,Y,,,,,,,M,22,
32,10,490,3,3,10,['k'],['k'],Y,Y,None,N,,,,,,,M,22,
32,11,491,9,9,10,['d'],['k'],N,N,None,Y,,,,,,,M,22,
32,12,492,8,8,10,['k'],['d'],N,Y,None,N,,,,,,,M,22,
32,13,493,14,14,10,['k'],['k'],Y,Y,None,N,,,,,,,M,22,
32,14,494,0,0,10,['k'],['k'],Y,Y,None,N,,,,,,,M,22,
33,0,495,13,13,10,['k'],['k'],Y,N,None,Y,,,,,,,M,22,
33,1,496,7,7,10,['k'],['k'],Y,Y,None,N,,,,,,,M,22,
33,2,497,7,7,10,['k'],['k'],Y,N,None,Y,,,,,,,M,22,
33,3,498,11,11,10,['k'],['k'],Y,Y,None,N,,,,,,,M,22,
33,4,499,7,7,10,['k'],['d'],N,N,None,Y,37,34,25,,,,M,22,
33,5,500,12,12,11,['k'],['d'],Y,,,,,,,Y,Y,Y,M,22,
33,6,501,5,5,11,['k'],['d'],Y,,,,,,,,Y,Y,M,22,
33,7,502,1,1,11,['d'],['k'],Y,Y,None,N,,,,,Y,Y,M,22,
33,8,503,11,11,11,['k'],['d'],Y,Y,['space'],Y,,,,,Y,Y,M,22,
33,9,504,9,9,11,['d'],['d'],N,N,None,Y,,,,,Y,Y,M,22,
33,10,505,13,13,11,['d'],['k'],Y,Y,['space'],Y,,,,,Y,Y,M,22,
33,11,506,0,0,11,['k'],['d'],Y,Y,None,N,,,,,Y,Y,M,22,
33,12,507,12,12,11,['k'],['d'],Y,Y,None,N,,,,,Y,Y,M,22,
33,13,508,5,5,11,['d'],['k'],Y,Y,None,N,,,,,Y,Y,M,22,
33,14,509,0,0,11,None,,Timed out,N,None,Y,,,,,Y,Y,M,22,
34,0,510,9,9,11,['k'],['d'],Y,Y,None,N,,,,,Y,Y,M,22,
34,1,511,9,9,11,['k'],['d'],Y,N,None,Y,,,,,Y,Y,M,22,
34,2,512,1,1,11,['d'],['d'],N,N,None,Y,,,,,Y,Y,M,22,
34,3,513,9,9,11,['d'],['d'],N,N,None,Y,,,,,Y,Y,M,22,
34,4,514,8,8,11,['k'],['d'],Y,Y,None,N,,,,,Y,Y,M,22,
34,5,515,11,11,11,['k'],['d'],Y,Y,['space'],Y,,,,,Y,Y,M,22,
34,6,516,10,10,11,['d'],['d'],N,N,['space'],N,,,,,Y,Y,M,22,
34,7,517,3,3,11,['k'],['d'],Y,Y,['space'],Y,,,,,Y,Y,M,22,
34,8,518,10,10,11,['d'],['d'],N,Y,['space'],Y,,,,,Y,Y,M,22,
34,9,519,2,2,11,['k'],['d'],Y,Y,['space'],Y,,,,,Y,Y,M,22,
34,10,520,13,13,11,['k'],['d'],Y,Y,['space'],Y,,,,,Y,Y,M,22,
34,11,521,14,14,11,['k'],['k'],N,N,None,Y,,,,,Y,Y,M,22,
34,12,522,2,2,11,['d'],['k'],Y,Y,None,N,,,,,Y,Y,M,22,
34,13,523,0,0,11,['k'],['k'],N,Y,None,N,,,,,Y,Y,M,22,
34,14,524,9,9,11,['d'],['d'],N,Y,['space'],Y,,,,,Y,Y,M,22,
35,0,525,8,8,11,['k'],['k'],N,Y,['space'],Y,,,,,Y,Y,M,22,
35,1,526,9,9,11,['k'],['d'],Y,N,None,Y,,,,,Y,Y,M,22,
35,2,527,4,4,11,['k'],['d'],Y,N,None,Y,,,,,Y,Y,M,22,
35,3,528,5,5,11,['k'],['d'],Y,N,None,Y,,,,,Y,Y,M,22,
35,4,529,12,12,11,['k'],['d'],Y,N,None,Y,,,,,Y,Y,M,22,
35,5,530,10,10,11,['d'],['k'],Y,N,None,Y,,,,,Y,Y,M,22,
35,6,531,12,12,11,['d'],['k'],Y,Y,['k'],N,,,,,Y,Y,M,22,
35,7,532,10,10,11,['k'],['d'],Y,Y,None,N,,,,,Y,Y,M,22,
35,8,533,11,11,11,['k'],['d'],Y,Y,None,N,,,,,Y,Y,M,22,
35,9,534,0,0,11,['k'],['k'],N,Y,['space'],Y,,,,,Y,Y,M,22,
35,10,535,3,3,11,['k'],['d'],Y,N,None,Y,,,,,Y,Y,M,22,
35,11,536,2,2,11,['d'],['k'],Y,Y,['space'],Y,,,,,Y,Y,M,22,
35,12,537,7,7,11,['k'],['k'],N,N,None,Y,,,,,Y,Y,M,22,
35,13,538,4,4,11,['d'],['k'],Y,N,None,Y,,,,,Y,Y,M,22,
35,14,539,11,11,11,['k'],['d'],Y,Y,['space'],Y,,,,,Y,Y,M,22,
36,0,540,8,8,11,['k'],['k'],N,Y,['d'],N,,,,,Y,Y,M,22,
36,1,541,12,12,11,['k'],['d'],Y,Y,['space'],Y,,,,,Y,Y,M,22,
36,2,542,1,1,11,['k'],['d'],Y,N,None,Y,,,,,Y,Y,M,22,
36,3,543,11,11,11,['k'],['k'],N,N,None,Y,,,,,Y,Y,M,22,
36,4,544,1,1,11,['d'],['k'],Y,N,None,Y,,,,,Y,Y,M,22,
36,5,545,10,10,11,['k'],['k'],N,N,None,Y,,,,,Y,Y,M,22,
36,6,546,5,5,11,['d'],['k'],Y,N,None,Y,,,,,Y,Y,M,22,
36,7,547,3,3,11,['k'],['k'],N,N,None,Y,,,,,Y,Y,M,22,
36,8,548,7,7,11,['k'],['k'],N,N,None,Y,,,,,Y,Y,M,22,
36,9,549,0,0,11,['k'],['k'],N,N,None,Y,32,35,25,,Y,Y,M,22,
36,10,550,5,5,12,['d'],['d'],N,,,,,,,,Y,Y,M,22,
36,11,551,0,0,12,['k'],['d'],Y,,,,,,,,Y,Y,M,22,
36,12,552,12,12,12,['d'],['k'],Y,Y,['space'],Y,,,,,Y,Y,M,22,
36,13,553,9,9,12,['d'],['d'],N,Y,['space'],Y,,,,,Y,Y,M,22,
36,14,554,11,11,12,['k'],['d'],Y,Y,None,N,,,,,Y,Y,M,22,
37,0,555,9,9,12,['k'],['d'],Y,N,None,Y,,,,,Y,Y,M,22,
37,1,556,10,10,12,['d'],['k'],Y,Y,['space'],Y,,,,,Y,Y,M,22,
37,2,557,7,7,12,['k'],['d'],Y,N,['space'],N,,,,,Y,Y,M,22,
37,3,558,13,13,12,['k'],['k'],N,N,['space'],N,,,,,Y,Y,M,22,
37,4,559,4,4,12,['k'],['d'],Y,Y,None,N,,,,,Y,Y,M,22,
37,5,560,5,5,12,['k'],['k'],N,N,None,Y,,,,,Y,Y,M,22,
37,6,561,12,12,12,['k'],['k'],N,N,['k'],N,,,,,Y,Y,M,22,
37,7,562,12,12,12,['d'],['k'],Y,Y,['k'],N,,,,,Y,Y,M,22,
37,8,563,5,5,12,['d'],['d'],N,Y,None,N,,,,,Y,Y,M,22,
37,9,564,13,13,12,['k'],['d'],Y,N,None,Y,,,,,Y,Y,M,22,
37,10,565,6,6,12,['k'],['d'],Y,Y,['space'],Y,,,,,Y,Y,M,22,
37,11,566,10,10,12,['k'],['d'],Y,Y,['space'],Y,,,,,Y,Y,M,22,
37,12,567,3,3,12,['k'],['d'],Y,Y,['space'],Y,,,,,Y,Y,M,22,
37,13,568,2,2,12,['d'],['k'],Y,Y,['space'],Y,,,,,Y,Y,M,22,
37,14,569,4,4,12,['k'],['k'],N,Y,['space'],Y,,,,,Y,Y,M,22,
38,0,570,8,8,12,['d'],['k'],Y,Y,['space'],Y,,,,,Y,Y,M,22,
38,1,571,5,5,12,['k'],['d'],Y,Y,['space'],Y,,,,,Y,Y,M,22,
38,2,572,6,6,12,['k'],['d'],Y,Y,['space'],Y,,,,,Y,Y,M,22,
38,3,573,8,8,12,['d'],['k'],Y,N,None,Y,,,,,Y,Y,M,22,
38,4,574,8,8,12,['k'],['d'],Y,Y,['space'],Y,,,,,Y,Y,M,22,
38,5,575,5,5,12,['d'],['d'],N,N,None,Y,,,,,Y,Y,M,22,
38,6,576,3,3,12,['k'],['d'],Y,N,None,Y,,,,,Y,Y,M,22,
38,7,577,10,10,12,['k'],['d'],Y,N,None,Y,,,,,Y,Y,M,22,
38,8,578,4,4,12,['d'],['k'],Y,Y,None,N,,,,,Y,Y,M,22,
38,9,579,1,1,12,['k'],['k'],N,N,None,Y,,,,,Y,Y,M,22,
38,10,580,2,2,12,['k'],['d'],Y,N,None,Y,,,,,Y,Y,M,22,
38,11,581,2,2,12,['d'],['d'],N,Y,['space'],Y,,,,,Y,Y,M,22,
38,12,582,10,10,12,['k'],['k'],N,Y,['space'],Y,,,,,Y,Y,M,22,
38,13,583,5,5,12,['d'],['k'],Y,N,['space'],N,,,,,Y,Y,M,22,
38,14,584,5,5,12,['k'],['k'],N,Y,['space'],Y,,,,,Y,Y,M,22,
39,0,585,0,0,12,None,,Timed out,N,None,Y,,,,,Y,Y,M,22,
39,1,586,2,2,12,['k'],['k'],N,N,None,Y,,,,,Y,Y,M,22,
39,2,587,0,0,12,['d'],['d'],N,Y,['space'],Y,,,,,Y,Y,M,22,
39,3,588,10,10,12,['k'],['d'],Y,N,None,Y,,,,,Y,Y,M,22,
39,4,589,3,3,12,['d'],['k'],Y,N,None,Y,,,,,Y,Y,M,22,
39,5,590,8,8,12,['k'],['k'],N,N,None,Y,,,,,Y,Y,M,22,
39,6,591,3,3,12,['d'],['k'],Y,Y,None,N,,,,,Y,Y,M,22,
39,7,592,14,14,12,['k'],['d'],Y,N,None,Y,,,,,Y,Y,M,22,
39,8,593,1,1,12,['k'],['d'],Y,N,None,Y,,,,,Y,Y,M,22,
39,9,594,1,1,12,['k'],['d'],Y,Y,None,N,,,,,Y,Y,M,22,
39,10,595,4,4,12,['k'],['d'],Y,N,None,Y,,,,,Y,Y,M,22,
39,11,596,10,10,12,['k'],['d'],Y,Y,None,N,,,,,Y,Y,M,22,
39,12,597,7,7,12,['d'],['k'],Y,Y,None,N,,,,,Y,Y,M,22,
39,13,598,3,3,12,['k'],['k'],N,N,None,Y,,,,,Y,Y,M,22,
39,14,599,3,3,12,['d'],['d'],N,N,None,Y,32,35,25,,Y,Y,M,22,
