.thisRepN,.thisTrialN,.thisN,.thisIndex,.thisTrial,Block Number,Key pressed,Category,Correct?,Int Match?,Int Response,Int Correct?,Line Accuracy,Interference Accuracy,Matching Interferences,New instruction shown?,Buttons switched?,Fast?,gender,age,
0,0,0,3,3,1,['k'],['k'],Y,,,,,,,,,,m,19,
0,1,1,0,0,1,['k'],['k'],Y,,,,,,,,,,m,19,
0,2,2,10,10,1,['k'],['d'],N,Y,['space'],Y,,,,,,,m,19,
0,3,3,7,7,1,['k'],['k'],Y,Y,None,N,,,,,,,m,19,
0,4,4,9,9,1,['k'],['d'],N,N,None,Y,,,,,,,m,19,
0,5,5,12,12,1,['k'],['d'],N,N,None,Y,,,,,,,m,19,
0,6,6,0,0,1,['d'],['d'],Y,N,['space'],N,,,,,,,m,19,
0,7,7,6,6,1,['d'],['k'],N,Y,None,N,,,,,,,m,19,
0,8,8,6,6,1,['d'],['k'],N,Y,['space'],Y,,,,,,,m,19,
0,9,9,11,11,1,['k'],['d'],N,Y,['space'],Y,,,,,,,m,19,
0,10,10,8,8,1,['k'],['k'],Y,N,None,Y,,,,,,,m,19,
0,11,11,0,0,1,['d'],['d'],Y,Y,None,N,,,,,,,m,19,
0,12,12,7,7,1,['d'],['d'],Y,Y,['space'],Y,,,,,,,m,19,
0,13,13,10,10,1,['d'],['k'],N,N,None,Y,,,,,,,m,19,
0,14,14,4,4,1,['k'],['k'],Y,Y,['space'],Y,,,,,,,m,19,
1,0,15,3,3,1,['k'],['d'],N,Y,None,N,,,,,,,m,19,
1,1,16,8,8,1,['d'],['k'],N,Y,['space'],Y,,,,,,,m,19,
1,2,17,11,11,1,['k'],['d'],N,N,None,Y,,,,,,,m,19,
1,3,18,6,6,1,['d'],['d'],Y,Y,['space'],Y,,,,,,,m,19,
1,4,19,1,1,1,['k'],['k'],Y,Y,None,N,,,,,,,m,19,
1,5,20,14,14,1,['d'],['d'],Y,Y,['space'],Y,,,,,,,m,19,
1,6,21,0,0,1,['k'],['k'],Y,N,None,Y,,,,,,,m,19,
1,7,22,7,7,1,['d'],['k'],N,Y,['space'],Y,,,,,,,m,19,
1,8,23,5,5,1,['k'],['d'],N,N,None,Y,,,,,,,m,19,
1,9,24,8,8,1,['d'],['k'],N,N,None,Y,,,,,,,m,19,
1,10,25,2,2,1,['k'],['d'],N,N,None,Y,,,,,,,m,19,
1,11,26,12,12,1,['k'],['k'],Y,N,None,Y,,,,,,,m,19,
1,12,27,1,1,1,['d'],['d'],Y,N,None,Y,,,,,,,m,19,
1,13,28,11,11,1,['k'],['k'],Y,Y,['space'],Y,,,,,,,m,19,
1,14,29,2,2,1,['d'],['d'],Y,Y,['space'],Y,,,,,,,m,19,
2,0,30,10,10,1,['k'],['k'],Y,N,None,Y,,,,,,,m,19,
2,1,31,12,12,1,['d'],['k'],N,Y,['space'],Y,,,,,,,m,19,
2,2,32,13,13,1,['d'],['k'],N,Y,None,N,,,,,,,m,19,
2,3,33,0,0,1,['k'],['k'],Y,Y,['space'],Y,,,,,,,m,19,
2,4,34,7,7,1,['d'],['k'],N,N,None,Y,,,,,,,m,19,
2,5,35,12,12,1,['d'],['d'],Y,Y,None,N,,,,,,,m,19,
2,6,36,13,13,1,['k'],['k'],Y,Y,['space'],Y,,,,,,,m,19,
2,7,37,9,9,1,['d'],['k'],N,Y,None,N,,,,,,,m,19,
2,8,38,9,9,1,['k'],['k'],Y,Y,['space'],Y,,,,,,,m,19,
2,9,39,1,1,1,['k'],['d'],N,N,None,Y,,,,,,,m,19,
2,10,40,4,4,1,['d'],['d'],Y,N,None,Y,,,,,,,m,19,
2,11,41,3,3,1,['d'],['k'],N,N,None,Y,,,,,,,m,19,
2,12,42,5,5,1,['k'],['k'],Y,Y,None,N,,,,,,,m,19,
2,13,43,12,12,1,['d'],['d'],Y,Y,None,N,,,,,,,m,19,
2,14,44,4,4,1,['k'],['k'],Y,N,['space'],N,,,,,,,m,19,
3,0,45,1,1,1,['d'],['d'],Y,N,None,Y,,,,,,,m,19,
3,1,46,9,9,1,['d'],['d'],Y,N,None,Y,,,,,,,m,19,
3,2,47,10,10,1,['k'],['k'],Y,N,['space'],N,,,,,,,m,19,
3,3,48,5,5,1,['k'],['k'],Y,N,None,Y,,,,,,,m,19,
3,4,49,12,12,1,['k'],['k'],Y,N,None,Y,30,35,25,,,,m,19,
3,5,50,9,9,2,['k'],['k'],Y,,,,,,,,,,m,19,
3,6,51,10,10,2,['d'],['d'],Y,,,,,,,,,,m,19,
3,7,52,6,6,2,['k'],['k'],Y,Y,['space'],Y,,,,,,,m,19,
3,8,53,2,2,2,['k'],['k'],Y,N,['space'],N,,,,,,,m,19,
3,9,54,14,14,2,['d'],['d'],Y,Y,['space'],Y,,,,,,,m,19,
3,10,55,14,14,2,['k'],['k'],Y,N,None,Y,,,,,,,m,19,
3,11,56,8,8,2,['d'],['d'],Y,Y,['space'],Y,,,,,,,m,19,
3,12,57,5,5,2,['k'],['k'],Y,N,None,Y,,,,,,,m,19,
3,13,58,6,6,2,['d'],['d'],Y,Y,['space'],Y,,,,,,,m,19,
3,14,59,3,3,2,['k'],['d'],N,Y,None,N,,,,,,,m,19,
4,0,60,14,14,2,['d'],['k'],N,N,None,Y,,,,,,,m,19,
4,1,61,8,8,2,['d'],['k'],N,N,None,Y,,,,,,,m,19,
4,2,62,6,6,2,['d'],['k'],N,Y,None,N,,,,,,,m,19,
4,3,63,6,6,2,['k'],['d'],N,Y,['space'],Y,,,,,,,m,19,
4,4,64,5,5,2,['d'],['k'],N,Y,None,N,,,,,,,m,19,
4,5,65,6,6,2,['k'],['k'],Y,Y,None,N,,,,,,,m,19,
4,6,66,7,7,2,['k'],['k'],Y,N,None,Y,,,,,,,m,19,
4,7,67,2,2,2,['d'],['d'],Y,N,None,Y,,,,,,,m,19,
4,8,68,7,7,2,['k'],['k'],Y,N,['space'],N,,,,,,,m,19,
4,9,69,11,11,2,['k'],['k'],Y,Y,['space'],Y,,,,,,,m,19,
4,10,70,14,14,2,['d'],['d'],Y,N,None,Y,,,,,,,m,19,
4,11,71,2,2,2,['d'],['d'],Y,N,None,Y,,,,,,,m,19,
4,12,72,8,8,2,['d'],['k'],N,Y,['space'],Y,,,,,,,m,19,
4,13,73,3,3,2,['k'],['k'],Y,Y,None,N,,,,,,,m,19,
4,14,74,2,2,2,['k'],['d'],N,N,None,Y,,,,,,,m,19,
5,0,75,3,3,2,['d'],['d'],Y,Y,['space'],Y,,,,,,,m,19,
5,1,76,13,13,2,['d'],['d'],Y,Y,['space'],Y,,,,,,,m,19,
5,2,77,5,5,2,['d'],['d'],Y,Y,None,N,,,,,,,m,19,
5,3,78,8,8,2,['k'],['k'],Y,Y,None,N,,,,,,,m,19,
5,4,79,8,8,2,['k'],['k'],Y,Y,['space'],Y,,,,,,,m,19,
5,5,80,1,1,2,['d'],['k'],N,N,None,Y,,,,,,,m,19,
5,6,81,4,4,2,['k'],['k'],Y,N,None,Y,,,,,,,m,19,
5,7,82,8,8,2,['d'],['d'],Y,N,None,Y,,,,,,,m,19,
5,8,83,7,7,2,['d'],['d'],Y,Y,['space'],Y,,,,,,,m,19,
5,9,84,14,14,2,['d'],['d'],Y,N,None,Y,,,,,,,m,19,
5,10,85,5,5,2,['k'],['k'],Y,N,None,Y,,,,,,,m,19,
5,11,86,9,9,2,['d'],['d'],Y,N,['space'],N,,,,,,,m,19,
5,12,87,10,10,2,['k'],['k'],Y,N,None,Y,,,,,,,m,19,
5,13,88,12,12,2,['d'],['d'],Y,Y,None,N,,,,,,,m,19,
5,14,89,10,10,2,['k'],['d'],N,Y,None,N,,,,,,,m,19,
6,0,90,11,11,2,['d'],['d'],Y,N,None,Y,,,,,,,m,19,
6,1,91,10,10,2,['k'],['k'],Y,Y,['space'],Y,,,,,,,m,19,
6,2,92,3,3,2,['d'],['d'],Y,N,None,Y,,,,,,,m,19,
6,3,93,2,2,2,['k'],['d'],N,Y,None,N,,,,,,,m,19,
6,4,94,7,7,2,['k'],['k'],Y,N,None,Y,,,,,,,m,19,
6,5,95,2,2,2,['k'],['k'],Y,Y,None,N,,,,,,,m,19,
6,6,96,1,1,2,['d'],['k'],N,N,None,Y,,,,,,,m,19,
6,7,97,14,14,2,['k'],['k'],Y,N,['space'],N,,,,,,,m,19,
6,8,98,2,2,2,['k'],['d'],N,N,None,Y,,,,,,,m,19,
6,9,99,9,9,2,['d'],['d'],Y,Y,None,N,37,32,24,,,,m,19,
6,10,100,1,1,3,['k'],['d'],N,,,,,,,,,,m,19,
6,11,101,5,5,3,['k'],['k'],Y,,,,,,,,,,m,19,
6,12,102,11,11,3,['k'],['k'],Y,N,None,Y,,,,,,,m,19,
6,13,103,1,1,3,['k'],['k'],Y,Y,None,N,,,,,,,m,19,
6,14,104,4,4,3,['d'],['k'],N,Y,None,N,,,,,,,m,19,
7,0,105,0,0,3,['d'],['d'],Y,N,None,Y,,,,,,,m,19,
7,1,106,11,11,3,['d'],['d'],Y,Y,None,N,,,,,,,m,19,
7,2,107,7,7,3,['k'],['k'],Y,Y,['space'],Y,,,,,,,m,19,
7,3,108,12,12,3,['d'],['d'],Y,N,None,Y,,,,,,,m,19,
7,4,109,9,9,3,['k'],['k'],Y,N,['space'],N,,,,,,,m,19,
7,5,110,1,1,3,['d'],['d'],Y,Y,None,N,,,,,,,m,19,
7,6,111,10,10,3,['d'],['d'],Y,N,None,Y,,,,,,,m,19,
7,7,112,11,11,3,['k'],['k'],Y,Y,['space'],Y,,,,,,,m,19,
7,8,113,10,10,3,['k'],['k'],Y,Y,None,N,,,,,,,m,19,
7,9,114,7,7,3,['d'],['d'],Y,N,None,Y,,,,,,,m,19,
7,10,115,0,0,3,['d'],['d'],Y,N,None,Y,,,,,,,m,19,
7,11,116,12,12,3,['k'],['d'],N,Y,['space'],Y,,,,,,,m,19,
7,12,117,10,10,3,['d'],['d'],Y,Y,['space'],Y,,,,,,,m,19,
7,13,118,6,6,3,['d'],['d'],Y,N,None,Y,,,,,,,m,19,
7,14,119,6,6,3,['k'],['k'],Y,Y,['space'],Y,,,,,,,m,19,
8,0,120,13,13,3,['d'],['d'],Y,N,None,Y,,,,,,,m,19,
8,1,121,3,3,3,['k'],['k'],Y,Y,['space'],Y,,,,,,,m,19,
8,2,122,7,7,3,['k'],['k'],Y,Y,['space'],Y,,,,,,,m,19,
8,3,123,12,12,3,['d'],['k'],N,N,None,Y,,,,,,,m,19,
8,4,124,4,4,3,['k'],['k'],Y,N,None,Y,,,,,,,m,19,
8,5,125,6,6,3,['k'],['k'],Y,Y,['space'],Y,,,,,,,m,19,
8,6,126,3,3,3,['d'],['k'],N,N,None,Y,,,,,,,m,19,
8,7,127,7,7,3,['k'],['k'],Y,Y,['space'],Y,,,,,,,m,19,
8,8,128,8,8,3,['k'],['k'],Y,N,None,Y,,,,,,,m,19,
8,9,129,14,14,3,['k'],['k'],Y,N,None,Y,,,,,,,m,19,
8,10,130,0,0,3,['k'],['d'],N,N,None,Y,,,,,,,m,19,
8,11,131,14,14,3,['d'],['d'],Y,Y,None,N,,,,,,,m,19,
8,12,132,1,1,3,['k'],['d'],N,N,None,Y,,,,,,,m,19,
8,13,133,8,8,3,['k'],['d'],N,Y,['space'],Y,,,,,,,m,19,
8,14,134,10,10,3,['k'],['k'],Y,N,None,Y,,,,,,,m,19,
9,0,135,1,1,3,['d'],['d'],Y,Y,['space'],Y,,,,,,,m,19,
9,1,136,3,3,3,['d'],['k'],N,N,None,Y,,,,,,,m,19,
9,2,137,1,1,3,['k'],['d'],N,N,['space'],N,,,,,,,m,19,
9,3,138,13,13,3,['k'],['k'],Y,Y,['space'],Y,,,,,,,m,19,
9,4,139,12,12,3,['k'],['k'],Y,Y,['space'],Y,,,,,,,m,19,
9,5,140,1,1,3,['d'],['d'],Y,Y,['space'],Y,,,,,,,m,19,
9,6,141,1,1,3,['d'],['d'],Y,N,None,Y,,,,,,,m,19,
9,7,142,7,7,3,['k'],['d'],N,N,None,Y,,,,,,,m,19,
9,8,143,14,14,3,['k'],['d'],N,Y,None,N,,,,,,,m,19,
9,9,144,6,6,3,['d'],['d'],Y,N,None,Y,,,,,,,m,19,
9,10,145,13,13,3,['k'],['k'],Y,N,None,Y,,,,,,,m,19,
9,11,146,5,5,3,['d'],['d'],Y,Y,None,N,,,,,,,m,19,
9,12,147,2,2,3,['d'],['d'],Y,Y,['space'],Y,,,,,,,m,19,
9,13,148,5,5,3,['k'],['d'],N,N,None,Y,,,,,,,m,19,
9,14,149,13,13,3,['k'],['k'],Y,Y,['space'],Y,37,38,24,,,,m,19,
10,0,150,11,11,4,['k'],['k'],Y,,,,,,,,,,m,19,
10,1,151,11,11,4,['d'],['k'],N,,,,,,,,,,m,19,
10,2,152,14,14,4,['k'],['d'],N,N,None,Y,,,,,,,m,19,
10,3,153,12,12,4,['d'],['d'],Y,Y,['space'],Y,,,,,,,m,19,
10,4,154,1,1,4,['d'],['d'],Y,Y,['space'],Y,,,,,,,m,19,
10,5,155,3,3,4,['d'],['d'],Y,N,None,Y,,,,,,,m,19,
10,6,156,1,1,4,['d'],['d'],Y,N,None,Y,,,,,,,m,19,
10,7,157,7,7,4,['k'],['k'],Y,Y,['space'],Y,,,,,,,m,19,
10,8,158,8,8,4,['d'],['k'],N,N,None,Y,,,,,,,m,19,
10,9,159,0,0,4,['k'],['d'],N,N,None,Y,,,,,,,m,19,
10,10,160,8,8,4,['d'],['d'],Y,Y,['space'],Y,,,,,,,m,19,
10,11,161,4,4,4,['k'],['d'],N,Y,None,N,,,,,,,m,19,
10,12,162,12,12,4,['k'],['k'],Y,Y,['space'],Y,,,,,,,m,19,
10,13,163,1,1,4,['k'],['k'],Y,Y,['d'],N,,,,,,,m,19,
10,14,164,3,3,4,['d'],['d'],Y,Y,['space'],Y,,,,,,,m,19,
11,0,165,10,10,4,['d'],['d'],Y,Y,['space'],Y,,,,,,,m,19,
11,1,166,0,0,4,['k'],['d'],N,Y,['space'],Y,,,,,,,m,19,
11,2,167,13,13,4,['d'],['k'],N,N,None,Y,,,,,,,m,19,
11,3,168,5,5,4,['k'],['k'],Y,Y,['space'],Y,,,,,,,m,19,
11,4,169,2,2,4,['k'],['k'],Y,Y,None,N,,,,,,,m,19,
11,5,170,6,6,4,['k'],['d'],N,Y,['space'],Y,,,,,,,m,19,
11,6,171,6,6,4,['k'],['k'],Y,N,None,Y,,,,,,,m,19,
11,7,172,3,3,4,['d'],['d'],Y,Y,['space'],Y,,,,,,,m,19,
11,8,173,6,6,4,['k'],['k'],Y,Y,['space'],Y,,,,,,,m,19,
11,9,174,13,13,4,['d'],['k'],N,Y,['space'],Y,,,,,,,m,19,
11,10,175,12,12,4,['k'],['k'],Y,Y,['space'],Y,,,,,,,m,19,
11,11,176,8,8,4,['k'],['d'],N,N,None,Y,,,,,,,m,19,
11,12,177,8,8,4,['d'],['k'],N,N,['space'],N,,,,,,,m,19,
11,13,178,1,1,4,['k'],['k'],Y,Y,['space'],Y,,,,,,,m,19,
11,14,179,11,11,4,['d'],['k'],N,N,None,Y,,,,,,,m,19,
12,0,180,13,13,4,['d'],['d'],Y,N,None,Y,,,,,,,m,19,
12,1,181,4,4,4,['d'],['d'],Y,Y,['space'],Y,,,,,,,m,19,
12,2,182,13,13,4,['k'],['k'],Y,Y,['space'],Y,,,,,,,m,19,
12,3,183,14,14,4,['k'],['k'],Y,Y,['space'],Y,,,,,,,m,19,
12,4,184,11,11,4,['d'],['d'],Y,Y,['space'],Y,,,,,,,m,19,
12,5,185,2,2,4,['k'],['k'],Y,Y,['space'],Y,,,,,,,m,19,
12,6,186,3,3,4,['d'],['d'],Y,Y,['space'],Y,,,,,,,m,19,
12,7,187,14,14,4,['k'],['k'],Y,Y,None,N,,,,,,,m,19,
12,8,188,8,8,4,['d'],['d'],Y,N,['space'],N,,,,,,,m,19,
12,9,189,7,7,4,['k'],['k'],Y,N,None,Y,,,,,,,m,19,
12,10,190,5,5,4,['d'],['k'],N,N,None,Y,,,,,,,m,19,
12,11,191,12,12,4,['k'],['k'],Y,N,None,Y,,,,,,,m,19,
12,12,192,0,0,4,['k'],['k'],Y,N,None,Y,,,,,,,m,19,
12,13,193,11,11,4,['d'],['d'],Y,N,None,Y,,,,,,,m,19,
12,14,194,13,13,4,['k'],['d'],N,N,None,Y,,,,,,,m,19,
13,0,195,4,4,4,['d'],['d'],Y,N,None,Y,,,,,,,m,19,
13,1,196,6,6,4,['d'],['d'],Y,N,None,Y,,,,,,,m,19,
13,2,197,0,0,4,['d'],['d'],Y,N,None,Y,,,,,,,m,19,
13,3,198,7,7,4,['k'],['k'],Y,N,None,Y,,,,,,,m,19,
13,4,199,6,6,4,['k'],['k'],Y,N,None,Y,36,42,25,,,,m,19,
13,5,200,0,0,5,['k'],['d'],N,,,,,,,,,,m,19,
13,6,201,5,5,5,['k'],['k'],Y,,,,,,,,,,m,19,
13,7,202,0,0,5,['k'],['d'],N,N,None,Y,,,,,,,m,19,
13,8,203,8,8,5,['d'],['d'],Y,Y,['space'],Y,,,,,,,m,19,
13,9,204,13,13,5,['k'],['d'],N,Y,['space'],Y,,,,,,,m,19,
13,10,205,13,13,5,['d'],['d'],Y,N,['space'],N,,,,,,,m,19,
13,11,206,13,13,5,['k'],['d'],N,Y,['space'],Y,,,,,,,m,19,
13,12,207,12,12,5,['d'],['k'],N,Y,['space'],Y,,,,,,,m,19,
13,13,208,7,7,5,['k'],['d'],N,Y,['space'],Y,,,,,,,m,19,
13,14,209,2,2,5,['k'],['k'],Y,Y,['space'],Y,,,,,,,m,19,
14,0,210,1,1,5,['k'],['d'],N,Y,['space'],Y,,,,,,,m,19,
14,1,211,4,4,5,['k'],['k'],Y,N,None,Y,,,,,,,m,19,
14,2,212,4,4,5,['k'],['k'],Y,Y,None,N,,,,,,,m,19,
14,3,213,10,10,5,['d'],['d'],Y,N,['space'],N,,,,,,,m,19,
14,4,214,3,3,5,['k'],['k'],Y,N,None,Y,,,,,,,m,19,
14,5,215,10,10,5,['d'],['d'],Y,Y,['space'],Y,,,,,,,m,19,
14,6,216,10,10,5,['d'],['d'],Y,N,None,Y,,,,,,,m,19,
14,7,217,9,9,5,['d'],['d'],Y,N,None,Y,,,,,,,m,19,
14,8,218,3,3,5,['k'],['k'],Y,N,['space'],N,,,,,,,m,19,
14,9,219,4,4,5,['k'],['k'],Y,Y,['space'],Y,,,,,,,m,19,
14,10,220,2,2,5,['d'],['d'],Y,N,None,Y,,,,,,,m,19,
14,11,221,5,5,5,['k'],['k'],Y,N,None,Y,,,,,,,m,19,
14,12,222,2,2,5,['d'],['d'],Y,N,['space'],N,,,,,,,m,19,
14,13,223,8,8,5,['d'],['d'],Y,Y,['space'],Y,,,,,,,m,19,
14,14,224,0,0,5,['d'],['d'],Y,N,None,Y,,,,,,,m,19,
15,0,225,10,10,5,['k'],['k'],Y,Y,None,N,,,,,,,m,19,
15,1,226,13,13,5,['k'],['k'],Y,N,None,Y,,,,,,,m,19,
15,2,227,14,14,5,['k'],['k'],Y,N,None,Y,,,,,,,m,19,
15,3,228,4,4,5,['d'],['d'],Y,N,None,Y,,,,,,,m,19,
15,4,229,9,9,5,['k'],['k'],Y,N,['space'],N,,,,,,,m,19,
15,5,230,9,9,5,['d'],['d'],Y,N,None,Y,,,,,,,m,19,
15,6,231,7,7,5,['k'],['k'],Y,N,None,Y,,,,,,,m,19,
15,7,232,3,3,5,['k'],['k'],Y,Y,['space'],Y,,,,,,,m,19,
15,8,233,4,4,5,['k'],['k'],Y,Y,['space'],Y,,,,,,,m,19,
15,9,234,12,12,5,['d'],['d'],Y,Y,['space'],Y,,,,,,,m,19,
15,10,235,7,7,5,['k'],['k'],Y,Y,None,N,,,,,,,m,19,
15,11,236,2,2,5,['d'],['d'],Y,Y,['space'],Y,,,,,,,m,19,
15,12,237,11,11,5,['k'],['k'],Y,Y,['space'],Y,,,,,,,m,19,
15,13,238,3,3,5,['k'],['k'],Y,Y,['space'],Y,,,,,,,m,19,
15,14,239,9,9,5,['d'],['d'],Y,Y,['space'],Y,,,,,,,m,19,
16,0,240,9,9,5,['k'],['k'],Y,Y,['k'],N,,,,,,,m,19,
16,1,241,4,4,5,['k'],['d'],N,Y,['space'],Y,,,,,,,m,19,
16,2,242,6,6,5,['d'],['d'],Y,Y,['space'],Y,,,,,,,m,19,
16,3,243,13,13,5,['k'],['k'],Y,Y,['space'],Y,,,,,,,m,19,
16,4,244,0,0,5,['k'],['k'],Y,Y,['space'],Y,,,,,,,m,19,
16,5,245,5,5,5,['d'],['k'],N,N,None,Y,,,,,,,m,19,
16,6,246,1,1,5,['k'],['k'],Y,N,None,Y,,,,,,,m,19,
16,7,247,13,13,5,['d'],['d'],Y,N,None,Y,,,,,,,m,19,
16,8,248,11,11,5,['d'],['d'],Y,N,None,Y,,,,,,,m,19,
16,9,249,9,9,5,['d'],['k'],N,N,None,Y,40,39,25,,,,m,19,
16,10,250,6,6,6,['k'],['k'],Y,,,,,,,,,,m,19,
16,11,251,12,12,6,['d'],['d'],Y,,,,,,,,,,m,19,
16,12,252,13,13,6,['d'],['d'],Y,N,None,Y,,,,,,,m,19,
16,13,253,0,0,6,['k'],['k'],Y,N,None,Y,,,,,,,m,19,
16,14,254,1,1,6,['k'],['k'],Y,N,None,Y,,,,,,,m,19,
17,0,255,14,14,6,['d'],['d'],Y,N,None,Y,,,,,,,m,19,
17,1,256,4,4,6,['d'],['d'],Y,N,None,Y,,,,,,,m,19,
17,2,257,13,13,6,['d'],['d'],Y,N,None,Y,,,,,,,m,19,
17,3,258,1,1,6,['d'],['k'],N,N,['space'],N,,,,,,,m,19,
17,4,259,5,5,6,['k'],['k'],Y,N,None,Y,,,,,,,m,19,
17,5,260,5,5,6,['d'],['d'],Y,N,None,Y,,,,,,,m,19,
17,6,261,10,10,6,['k'],['k'],Y,N,None,Y,,,,,,,m,19,
17,7,262,5,5,6,['k'],['k'],Y,N,['space'],N,,,,,,,m,19,
17,8,263,7,7,6,['d'],['d'],Y,N,None,Y,,,,,,,m,19,
17,9,264,1,1,6,['k'],['d'],N,Y,['space'],Y,,,,,,,m,19,
17,10,265,14,14,6,['d'],['k'],N,N,None,Y,,,,,,,m,19,
17,11,266,14,14,6,['k'],['k'],Y,N,['k'],N,,,,,,,m,19,
17,12,267,5,5,6,['d'],['d'],Y,N,None,Y,,,,,,,m,19,
17,13,268,4,4,6,['d'],['d'],Y,Y,None,N,,,,,,,m,19,
17,14,269,13,13,6,['k'],['k'],Y,Y,['space'],Y,,,,,,,m,19,
18,0,270,14,14,6,['d'],['k'],N,Y,['space'],Y,,,,,,,m,19,
18,1,271,5,5,6,['d'],['d'],Y,N,None,Y,,,,,,,m,19,
18,2,272,2,2,6,['d'],['d'],Y,Y,['space'],Y,,,,,,,m,19,
18,3,273,11,11,6,['k'],['k'],Y,Y,['space'],Y,,,,,,,m,19,
18,4,274,4,4,6,['k'],['k'],Y,N,None,Y,,,,,,,m,19,
18,5,275,1,1,6,['d'],['d'],Y,Y,['space'],Y,,,,,,,m,19,
18,6,276,1,1,6,['k'],['d'],N,Y,None,N,,,,,,,m,19,
18,7,277,3,3,6,['k'],['k'],Y,N,None,Y,,,,,,,m,19,
18,8,278,5,5,6,['k'],['k'],Y,N,['space'],N,,,,,,,m,19,
18,9,279,6,6,6,['k'],['k'],Y,Y,['space'],Y,,,,,,,m,19,
18,10,280,11,11,6,['d'],['k'],N,N,None,Y,,,,,,,m,19,
18,11,281,10,10,6,['d'],['d'],Y,Y,['space'],Y,,,,,,,m,19,
18,12,282,11,11,6,['d'],['k'],N,N,None,Y,,,,,,,m,19,
18,13,283,12,12,6,['d'],['d'],Y,N,None,Y,,,,,,,m,19,
18,14,284,3,3,6,['k'],['k'],Y,N,['space'],N,,,,,,,m,19,
19,0,285,3,3,6,['k'],['k'],Y,Y,['space'],Y,,,,,,,m,19,
19,1,286,2,2,6,['k'],['d'],N,Y,['space'],Y,,,,,,,m,19,
19,2,287,8,8,6,['k'],['k'],Y,N,None,Y,,,,,,,m,19,
19,3,288,3,3,6,['k'],['k'],Y,N,None,Y,,,,,,,m,19,
19,4,289,13,13,6,['d'],['d'],Y,N,['space'],N,,,,,,,m,19,
19,5,290,14,14,6,['d'],['d'],Y,N,None,Y,,,,,,,m,19,
19,6,291,3,3,6,['k'],['d'],N,N,None,Y,,,,,,,m,19,
19,7,292,2,2,6,['d'],['d'],Y,N,None,Y,,,,,,,m,19,
19,8,293,8,8,6,['d'],['d'],Y,Y,['space'],Y,,,,,,,m,19,
19,9,294,0,0,6,['d'],['d'],Y,Y,['space'],Y,,,,,,,m,19,
19,10,295,11,11,6,['k'],['k'],Y,Y,['space'],Y,,,,,,,m,19,
19,11,296,4,4,6,['k'],['k'],Y,Y,['space'],Y,,,,,,,m,19,
19,12,297,3,3,6,['d'],['d'],Y,Y,['space'],Y,,,,,,,m,19,
19,13,298,0,0,6,['d'],['d'],Y,Y,['space'],Y,,,,,,,m,19,
19,14,299,9,9,6,['d'],['d'],Y,Y,['space'],Y,41,40,19,,,,m,19,
20,0,300,4,4,7,['k'],['k'],Y,,,,,,,,,,m,19,
20,1,301,2,2,7,['k'],['k'],Y,,,,,,,,,,m,19,
20,2,302,6,6,7,['k'],['k'],Y,Y,['space'],Y,,,,,,,m,19,
20,3,303,14,14,7,['d'],['d'],Y,N,None,Y,,,,,,,m,19,
20,4,304,11,11,7,['k'],['k'],Y,N,['space'],N,,,,,,,m,19,
20,5,305,7,7,7,['d'],['k'],N,N,None,Y,,,,,,,m,19,
20,6,306,3,3,7,['d'],['d'],Y,Y,['space'],Y,,,,,,,m,19,
20,7,307,4,4,7,['d'],['d'],Y,N,None,Y,,,,,,,m,19,
20,8,308,9,9,7,['d'],['d'],Y,N,None,Y,,,,,,,m,19,
20,9,309,9,9,7,['d'],['d'],Y,Y,['space'],Y,,,,,,,m,19,
20,10,310,10,10,7,['d'],['d'],Y,Y,['space'],Y,,,,,,,m,19,
20,11,311,14,14,7,['k'],['k'],Y,Y,['space'],Y,,,,,,,m,19,
20,12,312,0,0,7,['k'],['d'],N,N,None,Y,,,,,,,m,19,
20,13,313,11,11,7,['d'],['d'],Y,N,None,Y,,,,,,,m,19,
20,14,314,12,12,7,['k'],['k'],Y,N,None,Y,,,,,,,m,19,
21,0,315,9,9,7,['k'],['k'],Y,Y,['space'],Y,,,,,,,m,19,
21,1,316,3,3,7,['d'],['d'],Y,Y,None,N,,,,,,,m,19,
21,2,317,2,2,7,['d'],['d'],Y,N,None,Y,,,,,,,m,19,
21,3,318,9,9,7,['k'],['k'],Y,N,None,Y,,,,,,,m,19,
21,4,319,8,8,7,['d'],['d'],Y,Y,['space'],Y,,,,,,,m,19,
21,5,320,8,8,7,['d'],['d'],Y,Y,['space'],Y,,,,,,,m,19,
21,6,321,5,5,7,['d'],['d'],Y,Y,['space'],Y,,,,,,,m,19,
21,7,322,13,13,7,['k'],['k'],Y,N,None,Y,,,,,,,m,19,
21,8,323,2,2,7,['d'],['d'],Y,Y,['space'],Y,,,,,,,m,19,
21,9,324,12,12,7,['d'],['d'],Y,Y,['space'],Y,,,,,,,m,19,
21,10,325,12,12,7,['k'],['k'],Y,N,None,Y,,,,,,,m,19,
21,11,326,9,9,7,['k'],['k'],Y,Y,['space'],Y,,,,,,,m,19,
21,12,327,9,9,7,['d'],['d'],Y,Y,['space'],Y,,,,,,,m,19,
21,13,328,4,4,7,['k'],['k'],Y,N,None,Y,,,,,,,m,19,
21,14,329,11,11,7,['d'],['d'],Y,Y,['space'],Y,,,,,,,m,19,
22,0,330,9,9,7,['k'],['k'],Y,Y,['space'],Y,,,,,,,m,19,
22,1,331,11,11,7,['d'],['k'],N,Y,['space'],Y,,,,,,,m,19,
22,2,332,8,8,7,['d'],['d'],Y,Y,['space'],Y,,,,,,,m,19,
22,3,333,2,2,7,['k'],['k'],Y,N,None,Y,,,,,,,m,19,
22,4,334,2,2,7,['d'],['d'],Y,N,None,Y,,,,,,,m,19,
22,5,335,6,6,7,['k'],['k'],Y,Y,['space'],Y,,,,,,,m,19,
22,6,336,7,7,7,['k'],['k'],Y,Y,['space'],Y,,,,,,,m,19,
22,7,337,10,10,7,['d'],['d'],Y,Y,['space'],Y,,,,,,,m,19,
22,8,338,5,5,7,['d'],['d'],Y,Y,['space'],Y,,,,,,,m,19,
22,9,339,14,14,7,['k'],['k'],Y,N,None,Y,,,,,,,m,19,
22,10,340,10,10,7,['k'],['k'],Y,Y,['space'],Y,,,,,,,m,19,
22,11,341,12,12,7,['d'],['d'],Y,N,None,Y,,,,,,,m,19,
22,12,342,11,11,7,['d'],['d'],Y,N,None,Y,,,,,,,m,19,
22,13,343,4,4,7,['k'],['k'],Y,Y,['space'],Y,,,,,,,m,19,
22,14,344,8,8,7,['d'],['d'],Y,Y,['space'],Y,,,,,,,m,19,
23,0,345,6,6,7,['k'],['k'],Y,N,None,Y,,,,,,,m,19,
23,1,346,9,9,7,['k'],['k'],Y,N,None,Y,,,,,,,m,19,
23,2,347,4,4,7,['d'],['d'],Y,N,None,Y,,,,,,,m,19,
23,3,348,9,9,7,['k'],['k'],Y,N,None,Y,,,,,,,m,19,
23,4,349,13,13,7,['d'],['d'],Y,N,None,Y,47,46,25,,,,m,19,
23,5,350,8,8,8,['d'],['d'],Y,,,,,,,,,,m,19,
23,6,351,7,7,8,['k'],['k'],Y,,,,,,,,,,m,19,
23,7,352,14,14,8,['k'],['k'],Y,N,None,Y,,,,,,,m,19,
23,8,353,0,0,8,['k'],['k'],Y,Y,['space'],Y,,,,,,,m,19,
23,9,354,14,14,8,['d'],['d'],Y,Y,['space'],Y,,,,,,,m,19,
23,10,355,6,6,8,['d'],['d'],Y,Y,['space'],Y,,,,,,,m,19,
23,11,356,11,11,8,['k'],['k'],Y,N,None,Y,,,,,,,m,19,
23,12,357,11,11,8,['k'],['k'],Y,N,['space'],N,,,,,,,m,19,
23,13,358,1,1,8,['d'],['d'],Y,N,None,Y,,,,,,,m,19,
23,14,359,13,13,8,['d'],['k'],N,Y,['space'],Y,,,,,,,m,19,
24,0,360,7,7,8,['k'],['k'],Y,N,None,Y,,,,,,,m,19,
24,1,361,8,8,8,['k'],['k'],Y,N,None,Y,,,,,,,m,19,
24,2,362,0,0,8,['k'],['d'],N,Y,None,N,,,,,,,m,19,
24,3,363,0,0,8,['d'],['d'],Y,N,None,Y,,,,,,,m,19,
24,4,364,5,5,8,['d'],['d'],Y,N,None,Y,,,,,,,m,19,
24,5,365,12,12,8,['d'],['d'],Y,N,None,Y,,,,,,,m,19,
24,6,366,6,6,8,['k'],['k'],Y,N,None,Y,,,,,,,m,19,
24,7,367,11,11,8,['k'],['k'],Y,N,None,Y,,,,,,,m,19,
24,8,368,14,14,8,['k'],['k'],Y,N,None,Y,,,,,,,m,19,
24,9,369,7,7,8,['k'],['k'],Y,Y,['space'],Y,,,,,,,m,19,
24,10,370,7,7,8,['k'],['k'],Y,N,None,Y,,,,,,,m,19,
24,11,371,14,14,8,['d'],['d'],Y,N,['space'],N,,,,,,,m,19,
24,12,372,12,12,8,['d'],['d'],Y,Y,['space'],Y,,,,,,,m,19,
24,13,373,6,6,8,['k'],['k'],Y,N,None,Y,,,,,,,m,19,
24,14,374,12,12,8,['d'],['d'],Y,N,None,Y,,,,,,,m,19,
25,0,375,12,12,8,['k'],['d'],N,N,None,Y,,,,,,,m,19,
25,1,376,9,9,8,['d'],['d'],Y,Y,['space'],Y,,,,,,,m,19,
25,2,377,7,7,8,['k'],['k'],Y,N,None,Y,,,,,,,m,19,
25,3,378,12,12,8,['k'],['d'],N,Y,['space'],Y,,,,,,,m,19,
25,4,379,5,5,8,['k'],['k'],Y,Y,['space'],Y,,,,,,,m,19,
25,5,380,10,10,8,['k'],['d'],N,Y,['space'],Y,,,,,,,m,19,
25,6,381,11,11,8,['d'],['k'],N,Y,['space'],Y,,,,,,,m,19,
25,7,382,4,4,8,['k'],['k'],Y,Y,None,N,,,,,,,m,19,
25,8,383,8,8,8,['k'],['k'],Y,N,None,Y,,,,,,,m,19,
25,9,384,2,2,8,['k'],['k'],Y,Y,['space'],Y,,,,,,,m,19,
25,10,385,10,10,8,['k'],['k'],Y,N,None,Y,,,,,,,m,19,
25,11,386,1,1,8,['d'],['d'],Y,Y,['space'],Y,,,,,,,m,19,
25,12,387,1,1,8,['d'],['d'],Y,N,None,Y,,,,,,,m,19,
25,13,388,5,5,8,['d'],['d'],Y,N,None,Y,,,,,,,m,19,
25,14,389,12,12,8,['d'],['d'],Y,N,['space'],N,,,,,,,m,19,
26,0,390,7,7,8,['k'],['k'],Y,N,None,Y,,,,,,,m,19,
26,1,391,11,11,8,['k'],['k'],Y,N,None,Y,,,,,,,m,19,
26,2,392,14,14,8,['k'],['k'],Y,N,None,Y,,,,,,,m,19,
26,3,393,12,12,8,['k'],['k'],Y,Y,['space'],Y,,,,,,,m,19,
26,4,394,7,7,8,['k'],['k'],Y,N,None,Y,,,,,,,m,19,
26,5,395,14,14,8,['k'],['k'],Y,Y,None,N,,,,,,,m,19,
26,6,396,10,10,8,['d'],['d'],Y,Y,['space'],Y,,,,,,,m,19,
26,7,397,13,13,8,['d'],['d'],Y,N,None,Y,,,,,,,m,19,
26,8,398,7,7,8,['k'],['k'],Y,N,None,Y,,,,,,,m,19,
26,9,399,3,3,8,['d'],['d'],Y,N,None,Y,44,42,18,,,,m,19,
26,10,400,14,14,9,['d'],['d'],Y,,,,,,,,,,m,19,
26,11,401,3,3,9,['d'],['d'],Y,,,,,,,,,,m,19,
26,12,402,12,12,9,['k'],['k'],Y,N,None,Y,,,,,,,m,19,
26,13,403,7,7,9,['k'],['k'],Y,Y,['space'],Y,,,,,,,m,19,
26,14,404,1,1,9,['k'],['k'],Y,N,None,Y,,,,,,,m,19,
27,0,405,10,10,9,['d'],['d'],Y,N,None,Y,,,,,,,m,19,
27,1,406,8,8,9,['d'],['d'],Y,Y,['space'],Y,,,,,,,m,19,
27,2,407,4,4,9,['d'],['k'],N,Y,['space'],Y,,,,,,,m,19,
27,3,408,7,7,9,['k'],['d'],N,Y,['space'],Y,,,,,,,m,19,
27,4,409,9,9,9,['k'],['d'],N,N,['space'],N,,,,,,,m,19,
27,5,410,5,5,9,['k'],['k'],Y,Y,['space'],Y,,,,,,,m,19,
27,6,411,7,7,9,['d'],['d'],Y,Y,None,N,,,,,,,m,19,
27,7,412,4,4,9,['d'],['d'],Y,N,None,Y,,,,,,,m,19,
27,8,413,2,2,9,['d'],['d'],Y,Y,['space'],Y,,,,,,,m,19,
27,9,414,11,11,9,['k'],['k'],Y,N,None,Y,,,,,,,m,19,
27,10,415,4,4,9,['d'],['k'],N,Y,['space'],Y,,,,,,,m,19,
27,11,416,14,14,9,['d'],['d'],Y,N,None,Y,,,,,,,m,19,
27,12,417,3,3,9,['k'],['k'],Y,Y,['space'],Y,,,,,,,m,19,
27,13,418,6,6,9,['k'],['k'],Y,N,None,Y,,,,,,,m,19,
27,14,419,10,10,9,['d'],['d'],Y,Y,['space'],Y,,,,,,,m,19,
28,0,420,6,6,9,['k'],['k'],Y,N,None,Y,,,,,,,m,19,
28,1,421,0,0,9,['d'],['k'],N,Y,['space'],Y,,,,,,,m,19,
28,2,422,2,2,9,['k'],['k'],Y,Y,['space'],Y,,,,,,,m,19,
28,3,423,14,14,9,['k'],['k'],Y,Y,['space'],Y,,,,,,,m,19,
28,4,424,8,8,9,['d'],['d'],Y,Y,['space'],Y,,,,,,,m,19,
28,5,425,9,9,9,['k'],['k'],Y,Y,['space'],Y,,,,,,,m,19,
28,6,426,8,8,9,['d'],['d'],Y,Y,['space'],Y,,,,,,,m,19,
28,7,427,5,5,9,['d'],['d'],Y,N,None,Y,,,,,,,m,19,
28,8,428,1,1,9,['k'],['k'],Y,N,['space'],N,,,,,,,m,19,
28,9,429,12,12,9,['d'],['d'],Y,N,None,Y,,,,,,,m,19,
28,10,430,0,0,9,['k'],['k'],Y,Y,['space'],Y,,,,,,,m,19,
28,11,431,4,4,9,['k'],['d'],N,Y,['space'],Y,,,,,,,m,19,
28,12,432,11,11,9,['k'],['d'],N,N,None,Y,,,,,,,m,19,
28,13,433,4,4,9,['d'],['k'],N,N,None,Y,,,,,,,m,19,
28,14,434,9,9,9,['k'],['k'],Y,Y,['space'],Y,,,,,,,m,19,
29,0,435,8,8,9,['k'],['k'],Y,N,None,Y,,,,,,,m,19,
29,1,436,11,11,9,['k'],['k'],Y,N,None,Y,,,,,,,m,19,
29,2,437,10,10,9,['k'],['k'],Y,N,['space'],N,,,,,,,m,19,
29,3,438,13,13,9,['d'],['k'],N,N,None,Y,,,,,,,m,19,
29,4,439,13,13,9,['k'],['d'],N,N,None,Y,,,,,,,m,19,
29,5,440,6,6,9,['d'],['d'],Y,Y,['space'],Y,,,,,,,m,19,
29,6,441,14,14,9,['d'],['d'],Y,N,None,Y,,,,,,,m,19,
29,7,442,0,0,9,['k'],['k'],Y,N,None,Y,,,,,,,m,19,
29,8,443,6,6,9,['d'],['d'],Y,Y,['space'],Y,,,,,,,m,19,
29,9,444,8,8,9,['d'],['d'],Y,Y,['space'],Y,,,,,,,m,19,
29,10,445,4,4,9,['d'],['d'],Y,Y,['space'],Y,,,,,,,m,19,
29,11,446,14,14,9,['d'],['d'],Y,Y,['space'],Y,,,,,,,m,19,
29,12,447,10,10,9,['d'],['d'],Y,Y,['space'],Y,,,,,,,m,19,
29,13,448,10,10,9,['k'],['d'],N,N,['space'],N,,,,,,,m,19,
29,14,449,5,5,9,['k'],['k'],Y,N,None,Y,39,43,25,,,,m,19,
30,0,450,14,14,10,['k'],['k'],Y,,,,,,,,,,m,19,
30,1,451,10,10,10,['d'],['k'],N,,,,,,,,,,m,19,
30,2,452,8,8,10,['k'],['k'],Y,Y,['space'],Y,,,,,,,m,19,
30,3,453,13,13,10,['d'],['d'],Y,N,None,Y,,,,,,,m,19,
30,4,454,0,0,10,['k'],['k'],Y,Y,['space'],Y,,,,,,,m,19,
30,5,455,2,2,10,['k'],['k'],Y,Y,['space'],Y,,,,,,,m,19,
30,6,456,11,11,10,['d'],['d'],Y,N,None,Y,,,,,,,m,19,
30,7,457,4,4,10,['k'],['k'],Y,N,None,Y,,,,,,,m,19,
30,8,458,2,2,10,['d'],['d'],Y,N,None,Y,,,,,,,m,19,
30,9,459,3,3,10,['k'],['k'],Y,N,None,Y,,,,,,,m,19,
30,10,460,0,0,10,['k'],['d'],N,N,None,Y,,,,,,,m,19,
30,11,461,11,11,10,['d'],['d'],Y,Y,['space'],Y,,,,,,,m,19,
30,12,462,2,2,10,['k'],['k'],Y,N,None,Y,,,,,,,m,19,
30,13,463,2,2,10,['k'],['d'],N,Y,['space'],Y,,,,,,,m,19,
30,14,464,3,3,10,['d'],['d'],Y,Y,['space'],Y,,,,,,,m,19,
31,0,465,6,6,10,['d'],['d'],Y,Y,['space'],Y,,,,,,,m,19,
31,1,466,5,5,10,['d'],['d'],Y,Y,['space'],Y,,,,,,,m,19,
31,2,467,10,10,10,['d'],['d'],Y,Y,['space'],Y,,,,,,,m,19,
31,3,468,6,6,10,['k'],['k'],Y,Y,['space'],Y,,,,,,,m,19,
31,4,469,12,12,10,['k'],['k'],Y,Y,['space'],Y,,,,,,,m,19,
31,5,470,4,4,10,['d'],['k'],N,N,None,Y,,,,,,,m,19,
31,6,471,8,8,10,['k'],['k'],Y,Y,['space'],Y,,,,,,,m,19,
31,7,472,12,12,10,['k'],['k'],Y,N,None,Y,,,,,,,m,19,
31,8,473,14,14,10,['d'],['d'],Y,N,None,Y,,,,,,,m,19,
31,9,474,7,7,10,['d'],['d'],Y,N,None,Y,,,,,,,m,19,
31,10,475,9,9,10,['d'],['d'],Y,N,None,Y,,,,,,,m,19,
31,11,476,0,0,10,['k'],['k'],Y,N,None,Y,,,,,,,m,19,
31,12,477,10,10,10,['d'],['d'],Y,Y,['space'],Y,,,,,,,m,19,
31,13,478,8,8,10,['d'],['d'],Y,N,None,Y,,,,,,,m,19,
31,14,479,3,3,10,['d'],['d'],Y,Y,['space'],Y,,,,,,,m,19,
32,0,480,0,0,10,['d'],['d'],Y,Y,['space'],Y,,,,,,,m,19,
32,1,481,3,3,10,['k'],['k'],Y,Y,['space'],Y,,,,,,,m,19,
32,2,482,7,7,10,['d'],['d'],Y,N,None,Y,,,,,,,m,19,
32,3,483,9,9,10,['d'],['d'],Y,N,None,Y,,,,,,,m,19,
32,4,484,13,13,10,['k'],['k'],Y,N,['space'],N,,,,,,,m,19,
32,5,485,6,6,10,['d'],['d'],Y,N,None,Y,,,,,,,m,19,
32,6,486,11,11,10,['k'],['d'],N,N,None,Y,,,,,,,m,19,
32,7,487,6,6,10,['d'],['d'],Y,N,None,Y,,,,,,,m,19,
32,8,488,3,3,10,['d'],['k'],N,Y,['space'],Y,,,,,,,m,19,
32,9,489,12,12,10,['d'],['d'],Y,Y,['space'],Y,,,,,,,m,19,
32,10,490,6,6,10,['k'],['k'],Y,N,None,Y,,,,,,,m,19,
32,11,491,9,9,10,['k'],['k'],Y,Y,['space'],Y,,,,,,,m,19,
32,12,492,2,2,10,['k'],['k'],Y,Y,['space'],Y,,,,,,,m,19,
32,13,493,14,14,10,['k'],['k'],Y,N,None,Y,,,,,,,m,19,
32,14,494,9,9,10,['k'],['k'],Y,N,None,Y,,,,,,,m,19,
33,0,495,6,6,10,['d'],['d'],Y,N,None,Y,,,,,,,m,19,
33,1,496,4,4,10,['d'],['d'],Y,Y,['space'],Y,,,,,,,m,19,
33,2,497,13,13,10,['d'],['d'],Y,Y,['space'],Y,,,,,,,m,19,
33,3,498,11,11,10,['d'],['k'],N,Y,['space'],Y,,,,,,,m,19,
33,4,499,10,10,10,['k'],['k'],Y,Y,['space'],Y,43,47,24,,,,m,19,
33,5,500,3,3,11,['d'],['k'],Y,,,,,,,Y,Y,Y,m,19,
33,6,501,2,2,11,['k'],['d'],Y,,,,,,,,Y,Y,m,19,
33,7,502,13,13,11,['d'],['k'],Y,Y,['space'],Y,,,,,Y,Y,m,19,
33,8,503,7,7,11,['d'],['d'],N,N,None,Y,,,,,Y,Y,m,19,
33,9,504,8,8,11,['d'],['k'],Y,Y,['space'],Y,,,,,Y,Y,m,19,
33,10,505,0,0,11,['k'],['d'],Y,N,None,Y,,,,,Y,Y,m,19,
33,11,506,2,2,11,['k'],['d'],Y,N,None,Y,,,,,Y,Y,m,19,
33,12,507,5,5,11,['d'],['k'],Y,N,None,Y,,,,,Y,Y,m,19,
33,13,508,9,9,11,['k'],['k'],N,N,None,Y,,,,,Y,Y,m,19,
33,14,509,7,7,11,['d'],['k'],Y,N,['space'],N,,,,,Y,Y,m,19,
34,0,510,10,10,11,['d'],['d'],N,N,None,Y,,,,,Y,Y,m,19,
34,1,511,9,9,11,['d'],['k'],Y,Y,['space'],Y,,,,,Y,Y,m,19,
34,2,512,2,2,11,['k'],['d'],Y,Y,['space'],Y,,,,,Y,Y,m,19,
34,3,513,0,0,11,['d'],['d'],N,N,None,Y,,,,,Y,Y,m,19,
34,4,514,2,2,11,['d'],['k'],Y,Y,['space'],Y,,,,,Y,Y,m,19,
34,5,515,2,2,11,['d'],['d'],N,Y,None,N,,,,,Y,Y,m,19,
34,6,516,0,0,11,['k'],['d'],Y,N,['space'],N,,,,,Y,Y,m,19,
34,7,517,9,9,11,['d'],['k'],Y,Y,['space'],Y,,,,,Y,Y,m,19,
34,8,518,13,13,11,['d'],['k'],Y,Y,['space'],Y,,,,,Y,Y,m,19,
34,9,519,12,12,11,['k'],['d'],Y,N,None,Y,,,,,Y,Y,m,19,
34,10,520,0,0,11,['k'],['k'],N,Y,['space'],Y,,,,,Y,Y,m,19,
34,11,521,13,13,11,['k'],['d'],Y,Y,['space'],Y,,,,,Y,Y,m,19,
34,12,522,3,3,11,['k'],['k'],N,Y,['space'],Y,,,,,Y,Y,m,19,
34,13,523,3,3,11,['d'],['k'],Y,Y,['space'],Y,,,,,Y,Y,m,19,
34,14,524,11,11,11,['k'],['d'],Y,Y,['space'],Y,,,,,Y,Y,m,19,
35,0,525,8,8,11,['k'],['d'],Y,N,None,Y,,,,,Y,Y,m,19,
35,1,526,9,9,11,['d'],['k'],Y,N,None,Y,,,,,Y,Y,m,19,
35,2,527,5,5,11,['k'],['d'],Y,Y,['space'],Y,,,,,Y,Y,m,19,
35,3,528,12,12,11,['k'],['d'],Y,Y,['space'],Y,,,,,Y,Y,m,19,
35,4,529,4,4,11,['k'],['d'],Y,N,None,Y,,,,,Y,Y,m,19,
35,5,530,11,11,11,['d'],['d'],N,N,None,Y,,,,,Y,Y,m,19,
35,6,531,5,5,11,['k'],['k'],N,Y,['space'],Y,,,,,Y,Y,m,19,
35,7,532,13,13,11,['d'],['k'],Y,N,None,Y,,,,,Y,Y,m,19,
35,8,533,10,10,11,['k'],['d'],Y,Y,['space'],Y,,,,,Y,Y,m,19,
35,9,534,0,0,11,['k'],['d'],Y,N,None,Y,,,,,Y,Y,m,19,
35,10,535,14,14,11,['k'],['d'],Y,N,None,Y,,,,,Y,Y,m,19,
35,11,536,7,7,11,['d'],['k'],Y,N,None,Y,,,,,Y,Y,m,19,
35,12,537,8,8,11,['k'],['d'],Y,Y,None,N,,,,,Y,Y,m,19,
35,13,538,12,12,11,['d'],['k'],Y,Y,['space'],Y,,,,,Y,Y,m,19,
35,14,539,4,4,11,['k'],['d'],Y,N,None,Y,,,,,Y,Y,m,19,
36,0,540,0,0,11,['k'],['d'],Y,N,None,Y,,,,,Y,Y,m,19,
36,1,541,9,9,11,['d'],['k'],Y,Y,['space'],Y,,,,,Y,Y,m,19,
36,2,542,10,10,11,['k'],['d'],Y,N,None,Y,,,,,Y,Y,m,19,
36,3,543,6,6,11,['d'],['k'],Y,Y,['space'],Y,,,,,Y,Y,m,19,
36,4,544,4,4,11,['k'],['d'],Y,N,None,Y,,,,,Y,Y,m,19,
36,5,545,5,5,11,['k'],['d'],Y,Y,['space'],Y,,,,,Y,Y,m,19,
36,6,546,14,14,11,['d'],['k'],Y,Y,['space'],Y,,,,,Y,Y,m,19,
36,7,547,10,10,11,['k'],['d'],Y,N,None,Y,,,,,Y,Y,m,19,
36,8,548,10,10,11,['k'],['d'],Y,N,['space'],N,,,,,Y,Y,m,19,
36,9,549,2,2,11,['k'],['k'],N,Y,['space'],Y,40,43,24,,Y,Y,m,19,
36,10,550,6,6,12,['d'],['k'],Y,,,,,,,,Y,Y,m,19,
36,11,551,0,0,12,['k'],['d'],Y,,,,,,,,Y,Y,m,19,
36,12,552,3,3,12,['d'],['k'],Y,Y,['space'],Y,,,,,Y,Y,m,19,
36,13,553,4,4,12,['k'],['d'],Y,Y,['space'],Y,,,,,Y,Y,m,19,
36,14,554,1,1,12,['k'],['d'],Y,N,None,Y,,,,,Y,Y,m,19,
37,0,555,1,1,12,['d'],['d'],N,Y,['space'],Y,,,,,Y,Y,m,19,
37,1,556,2,2,12,['k'],['d'],Y,N,None,Y,,,,,Y,Y,m,19,
37,2,557,5,5,12,['d'],['d'],N,Y,['space'],Y,,,,,Y,Y,m,19,
37,3,558,0,0,12,['d'],['d'],N,Y,['space'],Y,,,,,Y,Y,m,19,
37,4,559,3,3,12,['k'],['d'],Y,N,None,Y,,,,,Y,Y,m,19,
37,5,560,13,13,12,['d'],['d'],N,Y,None,N,,,,,Y,Y,m,19,
37,6,561,4,4,12,['d'],['k'],Y,N,None,Y,,,,,Y,Y,m,19,
37,7,562,7,7,12,['k'],['k'],N,N,None,Y,,,,,Y,Y,m,19,
37,8,563,0,0,12,['d'],['k'],Y,N,None,Y,,,,,Y,Y,m,19,
37,9,564,1,1,12,['k'],['d'],Y,Y,['space'],Y,,,,,Y,Y,m,19,
37,10,565,13,13,12,['d'],['k'],Y,Y,None,N,,,,,Y,Y,m,19,
37,11,566,10,10,12,['d'],['k'],Y,Y,['space'],Y,,,,,Y,Y,m,19,
37,12,567,3,3,12,['d'],['k'],Y,N,None,Y,,,,,Y,Y,m,19,
37,13,568,6,6,12,['d'],['k'],Y,N,None,Y,,,,,Y,Y,m,19,
37,14,569,9,9,12,['d'],['k'],Y,Y,['space'],Y,,,,,Y,Y,m,19,
38,0,570,9,9,12,['d'],['d'],N,N,None,Y,,,,,Y,Y,m,19,
38,1,571,12,12,12,['k'],['d'],Y,Y,['space'],Y,,,,,Y,Y,m,19,
38,2,572,9,9,12,['k'],['k'],N,Y,['space'],Y,,,,,Y,Y,m,19,
38,3,573,1,1,12,['k'],['d'],Y,N,None,Y,,,,,Y,Y,m,19,
38,4,574,1,1,12,['d'],['k'],Y,N,None,Y,,,,,Y,Y,m,19,
38,5,575,13,13,12,['d'],['k'],Y,N,None,Y,,,,,Y,Y,m,19,
38,6,576,5,5,12,['k'],['d'],Y,Y,['space'],Y,,,,,Y,Y,m,19,
38,7,577,7,7,12,['k'],['k'],N,Y,['space'],Y,,,,,Y,Y,m,19,
38,8,578,8,8,12,['k'],['k'],N,N,None,Y,,,,,Y,Y,m,19,
38,9,579,1,1,12,['k'],['d'],Y,N,None,Y,,,,,Y,Y,m,19,
38,10,580,1,1,12,['d'],['d'],N,Y,['space'],Y,,,,,Y,Y,m,19,
38,11,581,2,2,12,['d'],['k'],Y,N,None,Y,,,,,Y,Y,m,19,
38,12,582,8,8,12,['d'],['d'],N,Y,['space'],Y,,,,,Y,Y,m,19,
38,13,583,0,0,12,['k'],['k'],N,Y,['space'],Y,,,,,Y,Y,m,19,
38,14,584,1,1,12,['d'],['k'],Y,Y,['space'],Y,,,,,Y,Y,m,19,
39,0,585,11,11,12,['d'],['k'],Y,Y,['space'],Y,,,,,Y,Y,m,19,
39,1,586,5,5,12,['k'],['d'],Y,Y,['space'],Y,,,,,Y,Y,m,19,
39,2,587,14,14,12,['k'],['d'],Y,Y,['space'],Y,,,,,Y,Y,m,19,
39,3,588,1,1,12,['d'],['k'],Y,Y,['space'],Y,,,,,Y,Y,m,19,
39,4,589,1,1,12,['k'],['d'],Y,N,None,Y,,,,,Y,Y,m,19,
39,5,590,12,12,12,['k'],['d'],Y,Y,['space'],Y,,,,,Y,Y,m,19,
39,6,591,5,5,12,['d'],['d'],N,N,None,Y,,,,,Y,Y,m,19,
39,7,592,5,5,12,['k'],['d'],Y,Y,['space'],Y,,,,,Y,Y,m,19,
39,8,593,4,4,12,['d'],['k'],Y,Y,['space'],Y,,,,,Y,Y,m,19,
39,9,594,14,14,12,['k'],['d'],Y,N,None,Y,,,,,Y,Y,m,19,
39,10,595,5,5,12,['d'],['k'],Y,N,None,Y,,,,,Y,Y,m,19,
39,11,596,13,13,12,['d'],['k'],Y,N,None,Y,,,,,Y,Y,m,19,
39,12,597,6,6,12,['k'],['d'],Y,N,None,Y,,,,,Y,Y,m,19,
39,13,598,11,11,12,['d'],['k'],Y,N,None,Y,,,,,Y,Y,m,19,
39,14,599,13,13,12,['k'],['d'],Y,N,None,Y,37,46,25,,Y,Y,m,19,
