.thisRepN,.thisTrialN,.thisN,.thisIndex,.thisTrial,Block Number,Key pressed,Category,Correct?,Int Match?,Int Response,Int Correct?,Line Accuracy,Interference Accuracy,Matching Interferences,New instruction shown?,Buttons switched?,Fast?,gender,age,
0,0,0,5,5,1,['k'],['d'],N,,,,,,,,,,F,23,
0,1,1,6,6,1,['d'],['d'],Y,,,,,,,,,,F,23,
0,2,2,3,3,1,['d'],['d'],Y,N,None,Y,,,,,,,F,23,
0,3,3,10,10,1,['d'],['d'],Y,Y,['space'],Y,,,,,,,F,23,
0,4,4,4,4,1,['d'],['k'],N,Y,None,N,,,,,,,F,23,
0,5,5,9,9,1,['k'],['k'],Y,N,None,Y,,,,,,,F,23,
0,6,6,11,11,1,['d'],['d'],Y,Y,None,N,,,,,,,F,23,
0,7,7,9,9,1,['d'],['d'],Y,N,None,Y,,,,,,,F,23,
0,8,8,7,7,1,['d'],['d'],Y,Y,None,N,,,,,,,F,23,
0,9,9,6,6,1,['k'],['d'],N,N,None,Y,,,,,,,F,23,
0,10,10,1,1,1,['d'],['d'],Y,N,None,Y,,,,,,,F,23,
0,11,11,14,14,1,['d'],['d'],Y,N,None,Y,,,,,,,F,23,
0,12,12,1,1,1,['k'],['k'],Y,Y,None,N,,,,,,,F,23,
0,13,13,1,1,1,['d'],['d'],Y,Y,None,N,,,,,,,F,23,
0,14,14,10,10,1,['k'],['k'],Y,Y,['space'],Y,,,,,,,F,23,
1,0,15,5,5,1,['d'],['d'],Y,Y,None,N,,,,,,,F,23,
1,1,16,2,2,1,['k'],['k'],Y,N,None,Y,,,,,,,F,23,
1,2,17,13,13,1,['d'],['d'],Y,Y,['space'],Y,,,,,,,F,23,
1,3,18,14,14,1,['d'],['d'],Y,N,['space'],N,,,,,,,F,23,
1,4,19,3,3,1,['d'],['d'],Y,N,['space'],N,,,,,,,F,23,
1,5,20,2,2,1,['k'],['k'],Y,N,None,Y,,,,,,,F,23,
1,6,21,4,4,1,['d'],['k'],N,N,None,Y,,,,,,,F,23,
1,7,22,3,3,1,['d'],['d'],Y,Y,['space'],Y,,,,,,,F,23,
1,8,23,3,3,1,['d'],['d'],Y,N,None,Y,,,,,,,F,23,
1,9,24,7,7,1,['k'],['k'],Y,N,None,Y,,,,,,,F,23,
1,10,25,10,10,1,['d'],['d'],Y,N,None,Y,,,,,,,F,23,
1,11,26,9,9,1,['k'],['k'],Y,N,None,Y,,,,,,,F,23,
1,12,27,11,11,1,['d'],['d'],Y,Y,['space'],Y,,,,,,,F,23,
1,13,28,1,1,1,['k'],['k'],Y,N,['space'],N,,,,,,,F,23,
1,14,29,8,8,1,['k'],['d'],N,N,None,Y,,,,,,,F,23,
2,0,30,5,5,1,['k'],['k'],Y,Y,['space'],Y,,,,,,,F,23,
2,1,31,6,6,1,['k'],['k'],Y,N,None,Y,,,,,,,F,23,
2,2,32,4,4,1,['d'],['d'],Y,N,None,Y,,,,,,,F,23,
2,3,33,4,4,1,['k'],['k'],Y,N,None,Y,,,,,,,F,23,
2,4,34,6,6,1,['k'],['k'],Y,Y,['space'],Y,,,,,,,F,23,
2,5,35,8,8,1,['k'],['k'],Y,N,None,Y,,,,,,,F,23,
2,6,36,8,8,1,['d'],['d'],Y,N,None,Y,,,,,,,F,23,
2,7,37,2,2,1,['k'],['d'],N,N,None,Y,,,,,,,F,23,
2,8,38,0,0,1,['k'],['k'],Y,N,None,Y,,,,,,,F,23,
2,9,39,0,0,1,['k'],['k'],Y,N,None,Y,,,,,,,F,23,
2,10,40,2,2,1,['d'],['d'],Y,N,['space'],N,,,,,,,F,23,
2,11,41,13,13,1,['d'],['d'],Y,N,None,Y,,,,,,,F,23,
2,12,42,7,7,1,['k'],['k'],Y,N,None,Y,,,,,,,F,23,
2,13,43,11,11,1,['d'],['d'],Y,N,None,Y,,,,,,,F,23,
2,14,44,0,0,1,['k'],['k'],Y,N,None,Y,,,,,,,F,23,
3,0,45,13,13,1,['k'],['d'],N,Y,['space'],Y,,,,,,,F,23,
3,1,46,10,10,1,['k'],['d'],N,Y,None,N,,,,,,,F,23,
3,2,47,13,13,1,['k'],['k'],Y,N,None,Y,,,,,,,F,23,
3,3,48,8,8,1,['k'],['k'],Y,N,['space'],N,,,,,,,F,23,
3,4,49,12,12,1,['k'],['k'],Y,N,None,Y,42,36,15,,,,F,23,
3,5,50,1,1,2,['d'],['d'],Y,,,,,,,,,,F,23,
3,6,51,7,7,2,['k'],['d'],N,,,,,,,,,,F,23,
3,7,52,12,12,2,['k'],['k'],Y,Y,['space'],Y,,,,,,,F,23,
3,8,53,10,10,2,['d'],['k'],N,Y,['space'],Y,,,,,,,F,23,
3,9,54,7,7,2,['d'],['d'],Y,Y,['space'],Y,,,,,,,F,23,
3,10,55,5,5,2,['k'],['k'],Y,Y,None,N,,,,,,,F,23,
3,11,56,7,7,2,['d'],['k'],N,Y,['space'],Y,,,,,,,F,23,
3,12,57,2,2,2,['k'],['d'],N,N,None,Y,,,,,,,F,23,
3,13,58,1,1,2,['d'],['d'],Y,N,None,Y,,,,,,,F,23,
3,14,59,11,11,2,['d'],['d'],Y,N,None,Y,,,,,,,F,23,
4,0,60,10,10,2,['k'],['k'],Y,Y,None,N,,,,,,,F,23,
4,1,61,7,7,2,['k'],['k'],Y,Y,None,N,,,,,,,F,23,
4,2,62,4,4,2,['d'],['k'],N,N,None,Y,,,,,,,F,23,
4,3,63,2,2,2,['d'],['d'],Y,N,None,Y,,,,,,,F,23,
4,4,64,5,5,2,['d'],['d'],Y,Y,None,N,,,,,,,F,23,
4,5,65,8,8,2,['k'],['k'],Y,Y,None,N,,,,,,,F,23,
4,6,66,12,12,2,['k'],['k'],Y,Y,['space'],Y,,,,,,,F,23,
4,7,67,11,11,2,['d'],['d'],Y,Y,['space'],Y,,,,,,,F,23,
4,8,68,7,7,2,['d'],['d'],Y,Y,['space'],Y,,,,,,,F,23,
4,9,69,11,11,2,['k'],['k'],Y,N,None,Y,,,,,,,F,23,
4,10,70,9,9,2,['d'],['d'],Y,Y,None,N,,,,,,,F,23,
4,11,71,12,12,2,['d'],['d'],Y,N,None,Y,,,,,,,F,23,
4,12,72,13,13,2,['d'],['d'],Y,N,None,Y,,,,,,,F,23,
4,13,73,9,9,2,['d'],['d'],Y,Y,['space'],Y,,,,,,,F,23,
4,14,74,7,7,2,['d'],['k'],N,N,None,Y,,,,,,,F,23,
5,0,75,4,4,2,['k'],['d'],N,N,None,Y,,,,,,,F,23,
5,1,76,8,8,2,['d'],['d'],Y,Y,['space'],Y,,,,,,,F,23,
5,2,77,2,2,2,['k'],['k'],Y,N,None,Y,,,,,,,F,23,
5,3,78,10,10,2,['k'],['k'],Y,Y,['space'],Y,,,,,,,F,23,
5,4,79,2,2,2,['d'],['d'],Y,Y,['space'],Y,,,,,,,F,23,
5,5,80,8,8,2,['k'],['k'],Y,N,None,Y,,,,,,,F,23,
5,6,81,13,13,2,['k'],['k'],Y,Y,['space'],Y,,,,,,,F,23,
5,7,82,2,2,2,['k'],['k'],Y,Y,['space'],Y,,,,,,,F,23,
5,8,83,0,0,2,['k'],['k'],Y,Y,['space'],Y,,,,,,,F,23,
5,9,84,9,9,2,['d'],['k'],N,N,None,Y,,,,,,,F,23,
5,10,85,0,0,2,['d'],['d'],Y,N,None,Y,,,,,,,F,23,
5,11,86,8,8,2,['k'],['k'],Y,Y,['space'],Y,,,,,,,F,23,
5,12,87,13,13,2,['k'],['d'],N,Y,['space'],Y,,,,,,,F,23,
5,13,88,11,11,2,['d'],['d'],Y,Y,None,N,,,,,,,F,23,
5,14,89,2,2,2,['k'],['k'],Y,Y,['space'],Y,,,,,,,F,23,
6,0,90,4,4,2,['d'],['d'],Y,N,None,Y,,,,,,,F,23,
6,1,91,1,1,2,['k'],['d'],N,N,None,Y,,,,,,,F,23,
6,2,92,7,7,2,['k'],['k'],Y,N,None,Y,,,,,,,F,23,
6,3,93,9,9,2,['k'],['k'],Y,Y,None,N,,,,,,,F,23,
6,4,94,7,7,2,['k'],['k'],Y,N,None,Y,,,,,,,F,23,
6,5,95,12,12,2,['k'],['k'],Y,N,None,Y,,,,,,,F,23,
6,6,96,13,13,2,['k'],['k'],Y,N,None,Y,,,,,,,F,23,
6,7,97,5,5,2,['k'],['k'],Y,N,None,Y,,,,,,,F,23,
6,8,98,10,10,2,['k'],['d'],N,N,None,Y,,,,,,,F,23,
6,9,99,10,10,2,['k'],['k'],Y,N,None,Y,39,40,25,,,,F,23,
6,10,100,5,5,3,['k'],['k'],Y,,,,,,,,,,F,23,
6,11,101,2,2,3,['k'],['k'],Y,,,,,,,,,,F,23,
6,12,102,10,10,3,['k'],['k'],Y,N,None,Y,,,,,,,F,23,
6,13,103,4,4,3,['k'],['d'],N,Y,['space'],Y,,,,,,,F,23,
6,14,104,1,1,3,['k'],['k'],Y,N,None,Y,,,,,,,F,23,
7,0,105,5,5,3,['d'],['d'],Y,Y,None,N,,,,,,,F,23,
7,1,106,4,4,3,['k'],['k'],Y,N,None,Y,,,,,,,F,23,
7,2,107,12,12,3,['k'],['k'],Y,N,None,Y,,,,,,,F,23,
7,3,108,6,6,3,['d'],['d'],Y,N,None,Y,,,,,,,F,23,
7,4,109,6,6,3,['k'],['k'],Y,N,None,Y,,,,,,,F,23,
7,5,110,0,0,3,['k'],['k'],Y,Y,['space'],Y,,,,,,,F,23,
7,6,111,12,12,3,['d'],['k'],N,Y,['space'],Y,,,,,,,F,23,
7,7,112,14,14,3,['k'],['k'],Y,Y,['space'],Y,,,,,,,F,23,
7,8,113,4,4,3,['d'],['d'],Y,Y,['space'],Y,,,,,,,F,23,
7,9,114,14,14,3,['d'],['d'],Y,N,None,Y,,,,,,,F,23,
7,10,115,3,3,3,['k'],['d'],N,Y,None,N,,,,,,,F,23,
7,11,116,6,6,3,['d'],['d'],Y,N,['space'],N,,,,,,,F,23,
7,12,117,14,14,3,['k'],['k'],Y,N,None,Y,,,,,,,F,23,
7,13,118,11,11,3,['d'],['d'],Y,Y,['space'],Y,,,,,,,F,23,
7,14,119,3,3,3,['d'],['d'],Y,N,None,Y,,,,,,,F,23,
8,0,120,0,0,3,['k'],['d'],N,Y,['space'],Y,,,,,,,F,23,
8,1,121,4,4,3,['d'],['d'],Y,Y,['space'],Y,,,,,,,F,23,
8,2,122,8,8,3,['d'],['d'],Y,Y,['space'],Y,,,,,,,F,23,
8,3,123,6,6,3,['d'],['d'],Y,Y,['space'],Y,,,,,,,F,23,
8,4,124,5,5,3,['k'],['k'],Y,N,None,Y,,,,,,,F,23,
8,5,125,7,7,3,['k'],['k'],Y,N,None,Y,,,,,,,F,23,
8,6,126,1,1,3,['k'],['k'],Y,Y,['space'],Y,,,,,,,F,23,
8,7,127,4,4,3,['k'],['k'],Y,N,None,Y,,,,,,,F,23,
8,8,128,5,5,3,['k'],['k'],Y,Y,None,N,,,,,,,F,23,
8,9,129,10,10,3,['d'],['d'],Y,N,None,Y,,,,,,,F,23,
8,10,130,9,9,3,['k'],['k'],Y,N,None,Y,,,,,,,F,23,
8,11,131,11,11,3,['d'],['d'],Y,N,None,Y,,,,,,,F,23,
8,12,132,3,3,3,['k'],['k'],Y,N,None,Y,,,,,,,F,23,
8,13,133,3,3,3,['d'],['d'],Y,Y,None,N,,,,,,,F,23,
8,14,134,5,5,3,['d'],['k'],N,N,None,Y,,,,,,,F,23,
9,0,135,9,9,3,['d'],['k'],N,N,['space'],N,,,,,,,F,23,
9,1,136,4,4,3,['k'],['k'],Y,N,None,Y,,,,,,,F,23,
9,2,137,11,11,3,['d'],['d'],Y,Y,None,N,,,,,,,F,23,
9,3,138,2,2,3,['k'],['k'],Y,N,None,Y,,,,,,,F,23,
9,4,139,5,5,3,['k'],['d'],N,N,None,Y,,,,,,,F,23,
9,5,140,12,12,3,['d'],['d'],Y,N,None,Y,,,,,,,F,23,
9,6,141,1,1,3,['d'],['d'],Y,Y,['space'],Y,,,,,,,F,23,
9,7,142,8,8,3,['k'],['k'],Y,N,None,Y,,,,,,,F,23,
9,8,143,12,12,3,['k'],['k'],Y,N,None,Y,,,,,,,F,23,
9,9,144,13,13,3,['d'],['d'],Y,Y,['space'],Y,,,,,,,F,23,
9,10,145,1,1,3,['k'],['k'],Y,Y,['space'],Y,,,,,,,F,23,
9,11,146,12,12,3,['k'],['k'],Y,N,['space'],N,,,,,,,F,23,
9,12,147,13,13,3,['d'],['d'],Y,Y,['space'],Y,,,,,,,F,23,
9,13,148,12,12,3,['k'],['k'],Y,Y,['space'],Y,,,,,,,F,23,
9,14,149,4,4,3,['d'],['d'],Y,Y,['space'],Y,43,40,22,,,,F,23,
10,0,150,0,0,4,['d'],['d'],Y,,,,,,,,,,F,23,
10,1,151,10,10,4,['k'],['k'],Y,,,,,,,,,,F,23,
10,2,152,12,12,4,['k'],['k'],Y,Y,['space'],Y,,,,,,,F,23,
10,3,153,11,11,4,['k'],['k'],Y,Y,['space'],Y,,,,,,,F,23,
10,4,154,7,7,4,['d'],['d'],Y,Y,['space'],Y,,,,,,,F,23,
10,5,155,3,3,4,['d'],['k'],N,N,None,Y,,,,,,,F,23,
10,6,156,7,7,4,['d'],['d'],Y,Y,['space'],Y,,,,,,,F,23,
10,7,157,0,0,4,['k'],['k'],Y,N,None,Y,,,,,,,F,23,
10,8,158,11,11,4,['k'],['d'],N,N,None,Y,,,,,,,F,23,
10,9,159,0,0,4,['k'],['k'],Y,Y,None,N,,,,,,,F,23,
10,10,160,14,14,4,['k'],['k'],Y,Y,['space'],Y,,,,,,,F,23,
10,11,161,14,14,4,['d'],['d'],Y,N,None,Y,,,,,,,F,23,
10,12,162,1,1,4,['d'],['d'],Y,Y,None,N,,,,,,,F,23,
10,13,163,0,0,4,['k'],['k'],Y,Y,['space'],Y,,,,,,,F,23,
10,14,164,5,5,4,['k'],['k'],Y,Y,['space'],Y,,,,,,,F,23,
11,0,165,14,14,4,['d'],['d'],Y,Y,['space'],Y,,,,,,,F,23,
11,1,166,1,1,4,['d'],['d'],Y,N,None,Y,,,,,,,F,23,
11,2,167,12,12,4,['d'],['d'],Y,Y,['space'],Y,,,,,,,F,23,
11,3,168,9,9,4,['k'],['k'],Y,N,None,Y,,,,,,,F,23,
11,4,169,8,8,4,['d'],['d'],Y,Y,['space'],Y,,,,,,,F,23,
11,5,170,9,9,4,['k'],['k'],Y,N,None,Y,,,,,,,F,23,
11,6,171,13,13,4,['d'],['d'],Y,Y,['space'],Y,,,,,,,F,23,
11,7,172,6,6,4,['k'],['k'],Y,Y,['space'],Y,,,,,,,F,23,
11,8,173,11,11,4,['d'],['d'],Y,Y,['space'],Y,,,,,,,F,23,
11,9,174,14,14,4,['d'],['k'],N,N,None,Y,,,,,,,F,23,
11,10,175,9,9,4,['k'],['k'],Y,Y,['space'],Y,,,,,,,F,23,
11,11,176,14,14,4,['d'],['d'],Y,N,None,Y,,,,,,,F,23,
11,12,177,0,0,4,['d'],['k'],N,Y,['space'],Y,,,,,,,F,23,
11,13,178,12,12,4,['d'],['d'],Y,Y,['space'],Y,,,,,,,F,23,
11,14,179,12,12,4,['d'],['d'],Y,Y,['space'],Y,,,,,,,F,23,
12,0,180,8,8,4,['k'],['k'],Y,N,None,Y,,,,,,,F,23,
12,1,181,1,1,4,['k'],['k'],Y,Y,None,N,,,,,,,F,23,
12,2,182,7,7,4,['d'],['d'],Y,N,None,Y,,,,,,,F,23,
12,3,183,10,10,4,['d'],['d'],Y,Y,None,N,,,,,,,F,23,
12,4,184,7,7,4,['d'],['d'],Y,N,None,Y,,,,,,,F,23,
12,5,185,1,1,4,['k'],['k'],Y,Y,['space'],Y,,,,,,,F,23,
12,6,186,6,6,4,['k'],['k'],Y,Y,['k'],N,,,,,,,F,23,
12,7,187,11,11,4,['d'],['d'],Y,N,None,Y,,,,,,,F,23,
12,8,188,6,6,4,['k'],['d'],N,Y,None,N,,,,,,,F,23,
12,9,189,3,3,4,['d'],['d'],Y,N,None,Y,,,,,,,F,23,
12,10,190,2,2,4,['d'],['d'],Y,N,None,Y,,,,,,,F,23,
12,11,191,8,8,4,['k'],['d'],N,Y,['space'],Y,,,,,,,F,23,
12,12,192,6,6,4,['d'],['d'],Y,N,None,Y,,,,,,,F,23,
12,13,193,9,9,4,['k'],['k'],Y,N,None,Y,,,,,,,F,23,
12,14,194,4,4,4,['d'],['d'],Y,N,None,Y,,,,,,,F,23,
13,0,195,4,4,4,['d'],['d'],Y,N,None,Y,,,,,,,F,23,
13,1,196,7,7,4,['k'],['k'],Y,N,['space'],N,,,,,,,F,23,
13,2,197,8,8,4,['k'],['d'],N,N,None,Y,,,,,,,F,23,
13,3,198,6,6,4,['k'],['k'],Y,N,None,Y,,,,,,,F,23,
13,4,199,1,1,4,['k'],['d'],N,N,None,Y,42,41,25,,,,F,23,
13,5,200,0,0,5,['d'],['d'],Y,,,,,,,,,,F,23,
13,6,201,4,4,5,['d'],['k'],N,,,,,,,,,,F,23,
13,7,202,1,1,5,['d'],['d'],Y,Y,['space'],Y,,,,,,,F,23,
13,8,203,5,5,5,['k'],['k'],Y,N,None,Y,,,,,,,F,23,
13,9,204,0,0,5,['d'],['d'],Y,N,None,Y,,,,,,,F,23,
13,10,205,14,14,5,['k'],['k'],Y,Y,['space'],Y,,,,,,,F,23,
13,11,206,8,8,5,['k'],['k'],Y,N,None,Y,,,,,,,F,23,
13,12,207,1,1,5,['k'],['k'],Y,N,None,Y,,,,,,,F,23,
13,13,208,1,1,5,['d'],['d'],Y,Y,['space'],Y,,,,,,,F,23,
13,14,209,1,1,5,['k'],['k'],Y,N,['space'],N,,,,,,,F,23,
14,0,210,12,12,5,['k'],['k'],Y,Y,['space'],Y,,,,,,,F,23,
14,1,211,13,13,5,['k'],['d'],N,N,None,Y,,,,,,,F,23,
14,2,212,10,10,5,['d'],['d'],Y,Y,None,N,,,,,,,F,23,
14,3,213,2,2,5,['k'],['k'],Y,N,None,Y,,,,,,,F,23,
14,4,214,0,0,5,['d'],['d'],Y,N,None,Y,,,,,,,F,23,
14,5,215,4,4,5,['k'],['k'],Y,Y,['space'],Y,,,,,,,F,23,
14,6,216,13,13,5,['k'],['k'],Y,Y,['space'],Y,,,,,,,F,23,
14,7,217,9,9,5,['d'],['d'],Y,Y,['space'],Y,,,,,,,F,23,
14,8,218,2,2,5,['d'],['d'],Y,Y,['space'],Y,,,,,,,F,23,
14,9,219,10,10,5,['d'],['d'],Y,N,None,Y,,,,,,,F,23,
14,10,220,12,12,5,['d'],['d'],Y,N,None,Y,,,,,,,F,23,
14,11,221,5,5,5,['k'],['k'],Y,N,None,Y,,,,,,,F,23,
14,12,222,2,2,5,['d'],['d'],Y,N,None,Y,,,,,,,F,23,
14,13,223,8,8,5,['k'],['k'],Y,Y,['space'],Y,,,,,,,F,23,
14,14,224,10,10,5,['d'],['d'],Y,Y,['space'],Y,,,,,,,F,23,
15,0,225,4,4,5,['d'],['d'],Y,Y,['space'],Y,,,,,,,F,23,
15,1,226,1,1,5,['d'],['d'],Y,N,None,Y,,,,,,,F,23,
15,2,227,10,10,5,['k'],['d'],N,Y,None,N,,,,,,,F,23,
15,3,228,11,11,5,['d'],['d'],Y,Y,['space'],Y,,,,,,,F,23,
15,4,229,0,0,5,['k'],['k'],Y,N,None,Y,,,,,,,F,23,
15,5,230,5,5,5,['k'],['k'],Y,Y,['space'],Y,,,,,,,F,23,
15,6,231,2,2,5,['d'],['d'],Y,Y,['space'],Y,,,,,,,F,23,
15,7,232,0,0,5,['d'],['d'],Y,Y,['space'],Y,,,,,,,F,23,
15,8,233,5,5,5,['k'],['d'],N,N,None,Y,,,,,,,F,23,
15,9,234,14,14,5,['k'],['k'],Y,N,None,Y,,,,,,,F,23,
15,10,235,4,4,5,['d'],['d'],Y,Y,['space'],Y,,,,,,,F,23,
15,11,236,14,14,5,['k'],['k'],Y,Y,['space'],Y,,,,,,,F,23,
15,12,237,5,5,5,['k'],['k'],Y,Y,['space'],Y,,,,,,,F,23,
15,13,238,11,11,5,['d'],['k'],N,N,None,Y,,,,,,,F,23,
15,14,239,8,8,5,['k'],['k'],Y,N,None,Y,,,,,,,F,23,
16,0,240,11,11,5,['k'],['k'],Y,N,None,Y,,,,,,,F,23,
16,1,241,5,5,5,['k'],['d'],N,Y,['space'],Y,,,,,,,F,23,
16,2,242,6,6,5,['k'],['d'],N,N,None,Y,,,,,,,F,23,
16,3,243,3,3,5,['d'],['d'],Y,Y,['space'],Y,,,,,,,F,23,
16,4,244,9,9,5,['k'],['d'],N,N,None,Y,,,,,,,F,23,
16,5,245,14,14,5,['d'],['k'],N,Y,['space'],Y,,,,,,,F,23,
16,6,246,6,6,5,['k'],['k'],Y,N,None,Y,,,,,,,F,23,
16,7,247,2,2,5,['k'],['k'],Y,Y,None,N,,,,,,,F,23,
16,8,248,7,7,5,['d'],['d'],Y,Y,['space'],Y,,,,,,,F,23,
16,9,249,13,13,5,['k'],['d'],N,N,None,Y,40,44,25,,,,F,23,
16,10,250,12,12,6,['k'],['k'],Y,,,,,,,,,,F,23,
16,11,251,0,0,6,['d'],['d'],Y,,,,,,,,,,F,23,
16,12,252,13,13,6,['k'],['k'],Y,N,None,Y,,,,,,,F,23,
16,13,253,12,12,6,['d'],['d'],Y,Y,['space'],Y,,,,,,,F,23,
16,14,254,2,2,6,['k'],['k'],Y,Y,['space'],Y,,,,,,,F,23,
17,0,255,2,2,6,['d'],['d'],Y,N,None,Y,,,,,,,F,23,
17,1,256,14,14,6,['d'],['d'],Y,N,None,Y,,,,,,,F,23,
17,2,257,2,2,6,['k'],['k'],Y,N,None,Y,,,,,,,F,23,
17,3,258,11,11,6,['d'],['d'],Y,N,None,Y,,,,,,,F,23,
17,4,259,11,11,6,['k'],['k'],Y,N,None,Y,,,,,,,F,23,
17,5,260,11,11,6,['k'],['d'],N,N,None,Y,,,,,,,F,23,
17,6,261,2,2,6,['d'],['k'],N,N,None,Y,,,,,,,F,23,
17,7,262,3,3,6,['d'],['d'],Y,N,None,Y,,,,,,,F,23,
17,8,263,10,10,6,['k'],['k'],Y,Y,['space'],Y,,,,,,,F,23,
17,9,264,6,6,6,['k'],['k'],Y,N,None,Y,,,,,,,F,23,
17,10,265,7,7,6,['k'],['d'],N,Y,['space'],Y,,,,,,,F,23,
17,11,266,1,1,6,['k'],['d'],N,Y,['space'],Y,,,,,,,F,23,
17,12,267,6,6,6,['k'],['k'],Y,N,['space'],N,,,,,,,F,23,
17,13,268,1,1,6,['k'],['d'],N,Y,['space'],Y,,,,,,,F,23,
17,14,269,8,8,6,['k'],['d'],N,Y,['space'],Y,,,,,,,F,23,
18,0,270,9,9,6,['k'],['k'],Y,Y,['space'],Y,,,,,,,F,23,
18,1,271,0,0,6,['k'],['k'],Y,N,None,Y,,,,,,,F,23,
18,2,272,8,8,6,['k'],['k'],Y,Y,['space'],Y,,,,,,,F,23,
18,3,273,0,0,6,['d'],['d'],Y,Y,['space'],Y,,,,,,,F,23,
18,4,274,3,3,6,['d'],['k'],N,N,None,Y,,,,,,,F,23,
18,5,275,13,13,6,['k'],['d'],N,Y,['space'],Y,,,,,,,F,23,
18,6,276,4,4,6,['k'],['k'],Y,N,None,Y,,,,,,,F,23,
18,7,277,5,5,6,['k'],['k'],Y,N,None,Y,,,,,,,F,23,
18,8,278,14,14,6,['k'],['k'],Y,Y,['space'],Y,,,,,,,F,23,
18,9,279,3,3,6,['k'],['k'],Y,N,None,Y,,,,,,,F,23,
18,10,280,4,4,6,['k'],['k'],Y,Y,['space'],Y,,,,,,,F,23,
18,11,281,7,7,6,['d'],['d'],Y,Y,['k'],N,,,,,,,F,23,
18,12,282,9,9,6,['k'],['k'],Y,N,None,Y,,,,,,,F,23,
18,13,283,4,4,6,['d'],['d'],Y,N,None,Y,,,,,,,F,23,
18,14,284,3,3,6,['k'],['k'],Y,N,None,Y,,,,,,,F,23,
19,0,285,7,7,6,['d'],['d'],Y,Y,['space'],Y,,,,,,,F,23,
19,1,286,10,10,6,['d'],['d'],Y,N,None,Y,,,,,,,F,23,
19,2,287,11,11,6,['k'],['k'],Y,N,None,Y,,,,,,,F,23,
19,3,288,3,3,6,['k'],['k'],Y,N,None,Y,,,,,,,F,23,
19,4,289,6,6,6,['k'],['d'],N,N,None,Y,,,,,,,F,23,
19,5,290,13,13,6,['d'],['d'],Y,Y,['space'],Y,,,,,,,F,23,
19,6,291,6,6,6,['d'],['d'],Y,Y,['space'],Y,,,,,,,F,23,
19,7,292,2,2,6,['d'],['d'],Y,Y,['space'],Y,,,,,,,F,23,
19,8,293,9,9,6,['d'],['d'],Y,Y,['space'],Y,,,,,,,F,23,
19,9,294,9,9,6,['d'],['d'],Y,N,None,Y,,,,,,,F,23,
19,10,295,13,13,6,['k'],['k'],Y,Y,['space'],Y,,,,,,,F,23,
19,11,296,0,0,6,['d'],['d'],Y,Y,['space'],Y,,,,,,,F,23,
19,12,297,14,14,6,['k'],['k'],Y,Y,['space'],Y,,,,,,,F,23,
19,13,298,1,1,6,['k'],['k'],Y,Y,['space'],Y,,,,,,,F,23,
19,14,299,5,5,6,['d'],['k'],N,Y,['space'],Y,40,46,24,,,,F,23,
20,0,300,3,3,7,['k'],['d'],N,,,,,,,,,,F,23,
20,1,301,5,5,7,['d'],['d'],Y,,,,,,,,,,F,23,
20,2,302,8,8,7,['k'],['k'],Y,Y,['space'],Y,,,,,,,F,23,
20,3,303,0,0,7,['k'],['d'],N,Y,['space'],Y,,,,,,,F,23,
20,4,304,13,13,7,['k'],['k'],Y,N,None,Y,,,,,,,F,23,
20,5,305,14,14,7,['d'],['d'],Y,Y,['space'],Y,,,,,,,F,23,
20,6,306,8,8,7,['k'],['k'],Y,N,None,Y,,,,,,,F,23,
20,7,307,12,12,7,['k'],['k'],Y,Y,['space'],Y,,,,,,,F,23,
20,8,308,13,13,7,['d'],['d'],Y,N,['space'],N,,,,,,,F,23,
20,9,309,13,13,7,['d'],['d'],Y,Y,['space'],Y,,,,,,,F,23,
20,10,310,2,2,7,['k'],['k'],Y,N,None,Y,,,,,,,F,23,
20,11,311,2,2,7,['d'],['d'],Y,Y,None,N,,,,,,,F,23,
20,12,312,11,11,7,['k'],['d'],N,N,None,Y,,,,,,,F,23,
20,13,313,0,0,7,['d'],['d'],Y,Y,['space'],Y,,,,,,,F,23,
20,14,314,13,13,7,['k'],['k'],Y,N,None,Y,,,,,,,F,23,
21,0,315,10,10,7,['d'],['d'],Y,N,None,Y,,,,,,,F,23,
21,1,316,14,14,7,['k'],['k'],Y,Y,['space'],Y,,,,,,,F,23,
21,2,317,13,13,7,['d'],['d'],Y,Y,['space'],Y,,,,,,,F,23,
21,3,318,10,10,7,['k'],['k'],Y,N,None,Y,,,,,,,F,23,
21,4,319,13,13,7,['k'],['k'],Y,Y,['space'],Y,,,,,,,F,23,
21,5,320,8,8,7,['k'],['k'],Y,N,None,Y,,,,,,,F,23,
21,6,321,12,12,7,['d'],['d'],Y,Y,['space'],Y,,,,,,,F,23,
21,7,322,11,11,7,['k'],['k'],Y,N,None,Y,,,,,,,F,23,
21,8,323,9,9,7,['k'],['k'],Y,Y,['space'],Y,,,,,,,F,23,
21,9,324,11,11,7,['k'],['d'],N,Y,['space'],Y,,,,,,,F,23,
21,10,325,11,11,7,['k'],['k'],Y,Y,['space'],Y,,,,,,,F,23,
21,11,326,12,12,7,['k'],['d'],N,Y,['space'],Y,,,,,,,F,23,
21,12,327,11,11,7,['d'],['d'],Y,N,None,Y,,,,,,,F,23,
21,13,328,0,0,7,['d'],['d'],Y,N,None,Y,,,,,,,F,23,
21,14,329,14,14,7,['d'],['d'],Y,Y,['space'],Y,,,,,,,F,23,
22,0,330,4,4,7,['k'],['k'],Y,Y,['space'],Y,,,,,,,F,23,
22,1,331,14,14,7,['k'],['k'],Y,Y,['space'],Y,,,,,,,F,23,
22,2,332,7,7,7,['k'],['k'],Y,N,None,Y,,,,,,,F,23,
22,3,333,9,9,7,['k'],['k'],Y,Y,['space'],Y,,,,,,,F,23,
22,4,334,4,4,7,['k'],['k'],Y,Y,['space'],Y,,,,,,,F,23,
22,5,335,5,5,7,['k'],['k'],Y,Y,['space'],Y,,,,,,,F,23,
22,6,336,3,3,7,['k'],['d'],N,Y,['space'],Y,,,,,,,F,23,
22,7,337,0,0,7,['k'],['k'],Y,Y,['space'],Y,,,,,,,F,23,
22,8,338,12,12,7,['d'],['d'],Y,Y,['space'],Y,,,,,,,F,23,
22,9,339,14,14,7,['k'],['d'],N,N,None,Y,,,,,,,F,23,
22,10,340,10,10,7,['d'],['d'],Y,Y,['space'],Y,,,,,,,F,23,
22,11,341,6,6,7,['k'],['k'],Y,N,None,Y,,,,,,,F,23,
22,12,342,9,9,7,['k'],['k'],Y,N,None,Y,,,,,,,F,23,
22,13,343,11,11,7,['d'],['d'],Y,N,None,Y,,,,,,,F,23,
22,14,344,5,5,7,['k'],['k'],Y,N,None,Y,,,,,,,F,23,
23,0,345,11,11,7,['k'],['k'],Y,N,None,Y,,,,,,,F,23,
23,1,346,2,2,7,['k'],['k'],Y,N,None,Y,,,,,,,F,23,
23,2,347,9,9,7,['d'],['d'],Y,N,None,Y,,,,,,,F,23,
23,3,348,8,8,7,['d'],['d'],Y,N,None,Y,,,,,,,F,23,
23,4,349,1,1,7,['d'],['k'],N,N,None,Y,42,46,25,,,,F,23,
23,5,350,12,12,8,['d'],['d'],Y,,,,,,,,,,F,23,
23,6,351,7,7,8,['d'],['d'],Y,,,,,,,,,,F,23,
23,7,352,10,10,8,['k'],['k'],Y,N,None,Y,,,,,,,F,23,
23,8,353,6,6,8,['k'],['k'],Y,Y,['space'],Y,,,,,,,F,23,
23,9,354,13,13,8,['d'],['d'],Y,N,None,Y,,,,,,,F,23,
23,10,355,3,3,8,['d'],['d'],Y,Y,['space'],Y,,,,,,,F,23,
23,11,356,5,5,8,['k'],['k'],Y,N,None,Y,,,,,,,F,23,
23,12,357,9,9,8,['k'],['k'],Y,N,None,Y,,,,,,,F,23,
23,13,358,7,7,8,['k'],['k'],Y,N,None,Y,,,,,,,F,23,
23,14,359,10,10,8,['k'],['k'],Y,Y,['space'],Y,,,,,,,F,23,
24,0,360,2,2,8,['k'],['k'],Y,N,None,Y,,,,,,,F,23,
24,1,361,4,4,8,['d'],['d'],Y,Y,['space'],Y,,,,,,,F,23,
24,2,362,1,1,8,['d'],['k'],N,Y,['space'],Y,,,,,,,F,23,
24,3,363,2,2,8,['k'],['k'],Y,Y,['space'],Y,,,,,,,F,23,
24,4,364,5,5,8,['k'],['k'],Y,N,None,Y,,,,,,,F,23,
24,5,365,10,10,8,['k'],['k'],Y,Y,['space'],Y,,,,,,,F,23,
24,6,366,5,5,8,['k'],['k'],Y,Y,['space'],Y,,,,,,,F,23,
24,7,367,8,8,8,['d'],['k'],N,Y,['space'],Y,,,,,,,F,23,
24,8,368,0,0,8,['d'],['d'],Y,N,None,Y,,,,,,,F,23,
24,9,369,14,14,8,['d'],['d'],Y,N,None,Y,,,,,,,F,23,
24,10,370,11,11,8,['d'],['d'],Y,N,None,Y,,,,,,,F,23,
24,11,371,7,7,8,['k'],['d'],N,Y,['space'],Y,,,,,,,F,23,
24,12,372,8,8,8,['d'],['d'],Y,N,None,Y,,,,,,,F,23,
24,13,373,6,6,8,['k'],['k'],Y,Y,None,N,,,,,,,F,23,
24,14,374,9,9,8,['k'],['k'],Y,Y,['space'],Y,,,,,,,F,23,
25,0,375,8,8,8,['k'],['k'],Y,N,None,Y,,,,,,,F,23,
25,1,376,2,2,8,['d'],['d'],Y,Y,['space'],Y,,,,,,,F,23,
25,2,377,3,3,8,['k'],['k'],Y,Y,['space'],Y,,,,,,,F,23,
25,3,378,12,12,8,['k'],['k'],Y,Y,['space'],Y,,,,,,,F,23,
25,4,379,9,9,8,['k'],['k'],Y,N,None,Y,,,,,,,F,23,
25,5,380,9,9,8,['k'],['k'],Y,Y,['space'],Y,,,,,,,F,23,
25,6,381,10,10,8,['k'],['k'],Y,Y,['space'],Y,,,,,,,F,23,
25,7,382,4,4,8,['k'],['d'],N,Y,['space'],Y,,,,,,,F,23,
25,8,383,4,4,8,['k'],['k'],Y,N,None,Y,,,,,,,F,23,
25,9,384,0,0,8,['d'],['d'],Y,N,None,Y,,,,,,,F,23,
25,10,385,11,11,8,['k'],['d'],N,Y,['space'],Y,,,,,,,F,23,
25,11,386,14,14,8,['d'],['k'],N,N,None,Y,,,,,,,F,23,
25,12,387,6,6,8,['k'],['k'],Y,N,None,Y,,,,,,,F,23,
25,13,388,11,11,8,['k'],['d'],N,Y,['space'],Y,,,,,,,F,23,
25,14,389,10,10,8,['k'],['k'],Y,Y,['k'],N,,,,,,,F,23,
26,0,390,5,5,8,['k'],['k'],Y,N,None,Y,,,,,,,F,23,
26,1,391,0,0,8,['k'],['k'],Y,N,None,Y,,,,,,,F,23,
26,2,392,5,5,8,['k'],['k'],Y,Y,['space'],Y,,,,,,,F,23,
26,3,393,9,9,8,['d'],['d'],Y,N,None,Y,,,,,,,F,23,
26,4,394,1,1,8,['k'],['k'],Y,Y,['space'],Y,,,,,,,F,23,
26,5,395,7,7,8,['d'],['d'],Y,N,None,Y,,,,,,,F,23,
26,6,396,3,3,8,['k'],['k'],Y,Y,['space'],Y,,,,,,,F,23,
26,7,397,7,7,8,['d'],['d'],Y,N,None,Y,,,,,,,F,23,
26,8,398,6,6,8,['k'],['k'],Y,Y,['space'],Y,,,,,,,F,23,
26,9,399,1,1,8,['d'],['k'],N,N,None,Y,42,46,25,,,,F,23,
26,10,400,4,4,9,['k'],['d'],N,,,,,,,,,,F,23,
26,11,401,3,3,9,['d'],['d'],Y,,,,,,,,,,F,23,
26,12,402,4,4,9,['d'],['d'],Y,N,None,Y,,,,,,,F,23,
26,13,403,6,6,9,['d'],['d'],Y,Y,['space'],Y,,,,,,,F,23,
26,14,404,6,6,9,['d'],['d'],Y,N,None,Y,,,,,,,F,23,
27,0,405,8,8,9,['k'],['k'],Y,Y,['space'],Y,,,,,,,F,23,
27,1,406,3,3,9,['k'],['k'],Y,N,None,Y,,,,,,,F,23,
27,2,407,11,11,9,['k'],['d'],N,Y,['space'],Y,,,,,,,F,23,
27,3,408,0,0,9,['k'],['k'],Y,N,None,Y,,,,,,,F,23,
27,4,409,8,8,9,['k'],['k'],Y,N,['space'],N,,,,,,,F,23,
27,5,410,6,6,9,['d'],['d'],Y,Y,['space'],Y,,,,,,,F,23,
27,6,411,14,14,9,['k'],['k'],Y,Y,['space'],Y,,,,,,,F,23,
27,7,412,12,12,9,['d'],['k'],N,N,None,Y,,,,,,,F,23,
27,8,413,2,2,9,['k'],['k'],Y,N,None,Y,,,,,,,F,23,
27,9,414,1,1,9,['k'],['k'],Y,N,None,Y,,,,,,,F,23,
27,10,415,0,0,9,['d'],['d'],Y,Y,['space'],Y,,,,,,,F,23,
27,11,416,6,6,9,['k'],['k'],Y,N,None,Y,,,,,,,F,23,
27,12,417,3,3,9,['d'],['d'],Y,N,None,Y,,,,,,,F,23,
27,13,418,1,1,9,['d'],['d'],Y,Y,['space'],Y,,,,,,,F,23,
27,14,419,0,0,9,['k'],['k'],Y,Y,['space'],Y,,,,,,,F,23,
28,0,420,12,12,9,['k'],['d'],N,Y,None,N,,,,,,,F,23,
28,1,421,9,9,9,['d'],['d'],Y,N,None,Y,,,,,,,F,23,
28,2,422,14,14,9,['k'],['k'],Y,N,None,Y,,,,,,,F,23,
28,3,423,0,0,9,['k'],['k'],Y,N,None,Y,,,,,,,F,23,
28,4,424,10,10,9,['k'],['k'],Y,N,['space'],N,,,,,,,F,23,
28,5,425,13,13,9,['k'],['k'],Y,Y,['space'],Y,,,,,,,F,23,
28,6,426,2,2,9,['d'],['k'],N,Y,['space'],Y,,,,,,,F,23,
28,7,427,10,10,9,['k'],['k'],Y,Y,['space'],Y,,,,,,,F,23,
28,8,428,6,6,9,['d'],['d'],Y,N,None,Y,,,,,,,F,23,
28,9,429,6,6,9,['d'],['d'],Y,Y,['space'],Y,,,,,,,F,23,
28,10,430,3,3,9,['d'],['d'],Y,Y,['space'],Y,,,,,,,F,23,
28,11,431,14,14,9,['k'],['d'],N,Y,['space'],Y,,,,,,,F,23,
28,12,432,0,0,9,['d'],['d'],Y,Y,['space'],Y,,,,,,,F,23,
28,13,433,1,1,9,['d'],['k'],N,Y,['space'],Y,,,,,,,F,23,
28,14,434,11,11,9,['d'],['d'],Y,N,None,Y,,,,,,,F,23,
29,0,435,7,7,9,['d'],['k'],N,N,None,Y,,,,,,,F,23,
29,1,436,13,13,9,['d'],['d'],Y,N,None,Y,,,,,,,F,23,
29,2,437,10,10,9,['k'],['k'],Y,Y,['space'],Y,,,,,,,F,23,
29,3,438,14,14,9,['k'],['k'],Y,N,None,Y,,,,,,,F,23,
29,4,439,1,1,9,['k'],['k'],Y,N,None,Y,,,,,,,F,23,
29,5,440,8,8,9,['k'],['k'],Y,N,None,Y,,,,,,,F,23,
29,6,441,13,13,9,['k'],['k'],Y,Y,['space'],Y,,,,,,,F,23,
29,7,442,6,6,9,['d'],['k'],N,Y,['space'],Y,,,,,,,F,23,
29,8,443,7,7,9,['k'],['k'],Y,Y,['space'],Y,,,,,,,F,23,
29,9,444,1,1,9,['d'],['d'],Y,N,None,Y,,,,,,,F,23,
29,10,445,9,9,9,['d'],['d'],Y,N,None,Y,,,,,,,F,23,
29,11,446,6,6,9,['d'],['d'],Y,Y,['space'],Y,,,,,,,F,23,
29,12,447,0,0,9,['d'],['d'],Y,Y,['space'],Y,,,,,,,F,23,
29,13,448,1,1,9,['d'],['d'],Y,Y,['space'],Y,,,,,,,F,23,
29,14,449,5,5,9,['d'],['k'],N,Y,['space'],Y,40,45,25,,,,F,23,
30,0,450,7,7,10,['k'],['k'],Y,,,,,,,,,,F,23,
30,1,451,4,4,10,['k'],['k'],Y,,,,,,,,,,F,23,
30,2,452,8,8,10,['k'],['k'],Y,Y,['space'],Y,,,,,,,F,23,
30,3,453,7,7,10,['d'],['d'],Y,N,None,Y,,,,,,,F,23,
30,4,454,5,5,10,['k'],['k'],Y,Y,['space'],Y,,,,,,,F,23,
30,5,455,12,12,10,['d'],['d'],Y,Y,['space'],Y,,,,,,,F,23,
30,6,456,7,7,10,['k'],['k'],Y,N,None,Y,,,,,,,F,23,
30,7,457,9,9,10,['k'],['k'],Y,Y,['space'],Y,,,,,,,F,23,
30,8,458,5,5,10,['k'],['k'],Y,Y,['space'],Y,,,,,,,F,23,
30,9,459,10,10,10,['d'],['d'],Y,N,['space'],N,,,,,,,F,23,
30,10,460,13,13,10,['d'],['d'],Y,N,None,Y,,,,,,,F,23,
30,11,461,6,6,10,['d'],['d'],Y,Y,None,N,,,,,,,F,23,
30,12,462,2,2,10,['k'],['k'],Y,Y,['space'],Y,,,,,,,F,23,
30,13,463,11,11,10,['d'],['k'],N,N,None,Y,,,,,,,F,23,
30,14,464,3,3,10,['d'],['d'],Y,N,None,Y,,,,,,,F,23,
31,0,465,6,6,10,['d'],['d'],Y,N,None,Y,,,,,,,F,23,
31,1,466,12,12,10,['k'],['k'],Y,Y,['space'],Y,,,,,,,F,23,
31,2,467,12,12,10,['d'],['d'],Y,N,None,Y,,,,,,,F,23,
31,3,468,14,14,10,['k'],['k'],Y,Y,None,N,,,,,,,F,23,
31,4,469,4,4,10,['d'],['d'],Y,N,['k'],N,,,,,,,F,23,
31,5,470,5,5,10,['d'],['d'],Y,N,None,Y,,,,,,,F,23,
31,6,471,14,14,10,['d'],['d'],Y,Y,None,N,,,,,,,F,23,
31,7,472,5,5,10,['d'],['d'],Y,Y,['space'],Y,,,,,,,F,23,
31,8,473,14,14,10,['k'],['k'],Y,N,None,Y,,,,,,,F,23,
31,9,474,5,5,10,['k'],['k'],Y,N,None,Y,,,,,,,F,23,
31,10,475,13,13,10,['k'],['k'],Y,Y,['space'],Y,,,,,,,F,23,
31,11,476,5,5,10,['k'],['d'],N,Y,['k'],N,,,,,,,F,23,
31,12,477,2,2,10,['k'],['d'],N,N,None,Y,,,,,,,F,23,
31,13,478,1,1,10,['k'],['d'],N,N,None,Y,,,,,,,F,23,
31,14,479,10,10,10,['d'],['d'],Y,Y,['space'],Y,,,,,,,F,23,
32,0,480,6,6,10,['k'],['k'],Y,Y,['space'],Y,,,,,,,F,23,
32,1,481,12,12,10,['d'],['d'],Y,N,None,Y,,,,,,,F,23,
32,2,482,8,8,10,['k'],['k'],Y,Y,None,N,,,,,,,F,23,
32,3,483,3,3,10,['k'],['k'],Y,Y,['space'],Y,,,,,,,F,23,
32,4,484,13,13,10,['d'],['d'],Y,Y,['space'],Y,,,,,,,F,23,
32,5,485,14,14,10,['k'],['k'],Y,Y,['space'],Y,,,,,,,F,23,
32,6,486,3,3,10,['d'],['d'],Y,Y,['space'],Y,,,,,,,F,23,
32,7,487,4,4,10,['d'],['d'],Y,N,None,Y,,,,,,,F,23,
32,8,488,5,5,10,['d'],['k'],N,N,None,Y,,,,,,,F,23,
32,9,489,0,0,10,['k'],['k'],Y,N,None,Y,,,,,,,F,23,
32,10,490,12,12,10,['k'],['d'],N,Y,['space'],Y,,,,,,,F,23,
32,11,491,8,8,10,['d'],['d'],Y,Y,['space'],Y,,,,,,,F,23,
32,12,492,3,3,10,['k'],['k'],Y,N,None,Y,,,,,,,F,23,
32,13,493,12,12,10,['k'],['d'],N,Y,['space'],Y,,,,,,,F,23,
32,14,494,8,8,10,['k'],['k'],Y,Y,['space'],Y,,,,,,,F,23,
33,0,495,9,9,10,['d'],['d'],Y,N,None,Y,,,,,,,F,23,
33,1,496,11,11,10,['k'],['d'],N,N,None,Y,,,,,,,F,23,
33,2,497,9,9,10,['k'],['k'],Y,N,None,Y,,,,,,,F,23,
33,3,498,10,10,10,['k'],['k'],Y,N,None,Y,,,,,,,F,23,
33,4,499,0,0,10,['d'],['d'],Y,N,None,Y,42,41,24,,,,F,23,
33,5,500,3,3,11,['k'],['k'],N,,,,,,,Y,Y,Y,F,23,
33,6,501,3,3,11,['k'],['k'],N,,,,,,,,Y,Y,F,23,
33,7,502,8,8,11,['d'],['k'],Y,Y,['space'],Y,,,,,Y,Y,F,23,
33,8,503,0,0,11,['k'],['k'],N,Y,['d'],N,,,,,Y,Y,F,23,
33,9,504,7,7,11,['d'],['k'],Y,Y,['space'],Y,,,,,Y,Y,F,23,
33,10,505,1,1,11,['k'],['d'],Y,N,None,Y,,,,,Y,Y,F,23,
33,11,506,14,14,11,['k'],['d'],Y,N,None,Y,,,,,Y,Y,F,23,
33,12,507,7,7,11,['k'],['d'],Y,N,None,Y,,,,,Y,Y,F,23,
33,13,508,1,1,11,['d'],['k'],Y,Y,['space'],Y,,,,,Y,Y,F,23,
33,14,509,3,3,11,['d'],['k'],Y,N,None,Y,,,,,Y,Y,F,23,
34,0,510,13,13,11,['k'],['d'],Y,Y,['space'],Y,,,,,Y,Y,F,23,
34,1,511,4,4,11,['d'],['k'],Y,Y,['space'],Y,,,,,Y,Y,F,23,
34,2,512,0,0,11,['d'],['k'],Y,Y,['space'],Y,,,,,Y,Y,F,23,
34,3,513,9,9,11,['d'],['d'],N,Y,['space'],Y,,,,,Y,Y,F,23,
34,4,514,8,8,11,['d'],['k'],Y,Y,['space'],Y,,,,,Y,Y,F,23,
34,5,515,12,12,11,['k'],['d'],Y,N,None,Y,,,,,Y,Y,F,23,
34,6,516,6,6,11,['d'],['k'],Y,N,None,Y,,,,,Y,Y,F,23,
34,7,517,7,7,11,['k'],['d'],Y,N,None,Y,,,,,Y,Y,F,23,
34,8,518,12,12,11,['d'],['k'],Y,N,None,Y,,,,,Y,Y,F,23,
34,9,519,7,7,11,['d'],['k'],Y,N,None,Y,,,,,Y,Y,F,23,
34,10,520,14,14,11,['d'],['k'],Y,Y,['space'],Y,,,,,Y,Y,F,23,
34,11,521,4,4,11,['d'],['d'],N,N,None,Y,,,,,Y,Y,F,23,
34,12,522,14,14,11,['k'],['d'],Y,N,None,Y,,,,,Y,Y,F,23,
34,13,523,0,0,11,None,,Timed out,Y,None,N,,,,,Y,Y,F,23,
34,14,524,6,6,11,['d'],['k'],Y,Y,['d'],N,,,,,Y,Y,F,23,
35,0,525,13,13,11,['k'],['d'],Y,N,None,Y,,,,,Y,Y,F,23,
35,1,526,9,9,11,['k'],['d'],Y,N,None,Y,,,,,Y,Y,F,23,
35,2,527,11,11,11,['k'],['d'],Y,N,None,Y,,,,,Y,Y,F,23,
35,3,528,2,2,11,['k'],['d'],Y,Y,['space'],Y,,,,,Y,Y,F,23,
35,4,529,11,11,11,['d'],['d'],N,Y,['space'],Y,,,,,Y,Y,F,23,
35,5,530,4,4,11,['k'],['k'],N,Y,['space'],Y,,,,,Y,Y,F,23,
35,6,531,2,2,11,['d'],['k'],Y,Y,['space'],Y,,,,,Y,Y,F,23,
35,7,532,14,14,11,['d'],['k'],Y,Y,['space'],Y,,,,,Y,Y,F,23,
35,8,533,11,11,11,['k'],['k'],N,Y,['space'],Y,,,,,Y,Y,F,23,
35,9,534,5,5,11,['k'],['d'],Y,N,None,Y,,,,,Y,Y,F,23,
35,10,535,3,3,11,['d'],['k'],Y,N,None,Y,,,,,Y,Y,F,23,
35,11,536,12,12,11,['d'],['k'],Y,N,None,Y,,,,,Y,Y,F,23,
35,12,537,2,2,11,['k'],['d'],Y,N,None,Y,,,,,Y,Y,F,23,
35,13,538,3,3,11,['k'],['d'],Y,N,None,Y,,,,,Y,Y,F,23,
35,14,539,11,11,11,['k'],['d'],Y,Y,['space'],Y,,,,,Y,Y,F,23,
36,0,540,4,4,11,['k'],['d'],Y,Y,['space'],Y,,,,,Y,Y,F,23,
36,1,541,13,13,11,['k'],['k'],N,N,None,Y,,,,,Y,Y,F,23,
36,2,542,13,13,11,['d'],['k'],Y,N,None,Y,,,,,Y,Y,F,23,
36,3,543,9,9,11,['k'],['d'],Y,N,None,Y,,,,,Y,Y,F,23,
36,4,544,4,4,11,['k'],['d'],Y,N,None,Y,,,,,Y,Y,F,23,
36,5,545,2,2,11,['k'],['d'],Y,Y,['space'],Y,,,,,Y,Y,F,23,
36,6,546,4,4,11,['d'],['k'],Y,Y,['space'],Y,,,,,Y,Y,F,23,
36,7,547,8,8,11,['k'],['d'],Y,N,None,Y,,,,,Y,Y,F,23,
36,8,548,12,12,11,['k'],['d'],Y,Y,['space'],Y,,,,,Y,Y,F,23,
36,9,549,8,8,11,['d'],['k'],Y,Y,['space'],Y,40,45,24,,Y,Y,F,23,
36,10,550,5,5,12,['d'],['d'],N,,,,,,,,Y,Y,F,23,
36,11,551,7,7,12,['d'],['k'],Y,,,,,,,,Y,Y,F,23,
36,12,552,4,4,12,['d'],['k'],Y,Y,['space'],Y,,,,,Y,Y,F,23,
36,13,553,0,0,12,['k'],['d'],Y,Y,None,N,,,,,Y,Y,F,23,
36,14,554,10,10,12,['d'],['k'],Y,N,None,Y,,,,,Y,Y,F,23,
37,0,555,6,6,12,['d'],['d'],N,Y,None,N,,,,,Y,Y,F,23,
37,1,556,3,3,12,['d'],['d'],N,Y,['space'],Y,,,,,Y,Y,F,23,
37,2,557,10,10,12,['d'],['k'],Y,Y,None,N,,,,,Y,Y,F,23,
37,3,558,9,9,12,['k'],['d'],Y,N,None,Y,,,,,Y,Y,F,23,
37,4,559,3,3,12,['d'],['k'],Y,Y,['space'],Y,,,,,Y,Y,F,23,
37,5,560,5,5,12,['k'],['d'],Y,Y,['space'],Y,,,,,Y,Y,F,23,
37,6,561,1,1,12,['k'],['d'],Y,Y,['space'],Y,,,,,Y,Y,F,23,
37,7,562,8,8,12,['d'],['k'],Y,N,None,Y,,,,,Y,Y,F,23,
37,8,563,1,1,12,['k'],['d'],Y,Y,['space'],Y,,,,,Y,Y,F,23,
37,9,564,13,13,12,['k'],['d'],Y,N,None,Y,,,,,Y,Y,F,23,
37,10,565,3,3,12,['k'],['k'],N,Y,['space'],Y,,,,,Y,Y,F,23,
37,11,566,2,2,12,['d'],['k'],Y,Y,['space'],Y,,,,,Y,Y,F,23,
37,12,567,9,9,12,['d'],['k'],Y,N,None,Y,,,,,Y,Y,F,23,
37,13,568,10,10,12,['k'],['d'],Y,Y,['space'],Y,,,,,Y,Y,F,23,
37,14,569,2,2,12,['k'],['k'],N,Y,['space'],Y,,,,,Y,Y,F,23,
38,0,570,3,3,12,['k'],['d'],Y,N,None,Y,,,,,Y,Y,F,23,
38,1,571,13,13,12,['d'],['k'],Y,Y,['space'],Y,,,,,Y,Y,F,23,
38,2,572,7,7,12,['k'],['d'],Y,N,None,Y,,,,,Y,Y,F,23,
38,3,573,6,6,12,['k'],['d'],Y,Y,['space'],Y,,,,,Y,Y,F,23,
38,4,574,8,8,12,['d'],['k'],Y,Y,['space'],Y,,,,,Y,Y,F,23,
38,5,575,1,1,12,['k'],['d'],Y,Y,['space'],Y,,,,,Y,Y,F,23,
38,6,576,14,14,12,['d'],['k'],Y,N,None,Y,,,,,Y,Y,F,23,
38,7,577,12,12,12,['k'],['d'],Y,Y,['space'],Y,,,,,Y,Y,F,23,
38,8,578,12,12,12,['k'],['k'],N,Y,['space'],Y,,,,,Y,Y,F,23,
38,9,579,7,7,12,['k'],['d'],Y,N,None,Y,,,,,Y,Y,F,23,
38,10,580,10,10,12,['d'],['d'],N,Y,['space'],Y,,,,,Y,Y,F,23,
38,11,581,13,13,12,['k'],['d'],Y,N,None,Y,,,,,Y,Y,F,23,
38,12,582,9,9,12,['d'],['k'],Y,N,None,Y,,,,,Y,Y,F,23,
38,13,583,3,3,12,['d'],['d'],N,Y,['space'],Y,,,,,Y,Y,F,23,
38,14,584,13,13,12,['k'],['d'],Y,N,['space'],N,,,,,Y,Y,F,23,
39,0,585,12,12,12,['d'],['k'],Y,Y,None,N,,,,,Y,Y,F,23,
39,1,586,3,3,12,['k'],['d'],Y,Y,['space'],Y,,,,,Y,Y,F,23,
39,2,587,13,13,12,['d'],['k'],Y,N,None,Y,,,,,Y,Y,F,23,
39,3,588,2,2,12,['d'],['k'],Y,N,None,Y,,,,,Y,Y,F,23,
39,4,589,11,11,12,['d'],['k'],Y,Y,['space'],Y,,,,,Y,Y,F,23,
39,5,590,14,14,12,['d'],['d'],N,N,None,Y,,,,,Y,Y,F,23,
39,6,591,9,9,12,['k'],['d'],Y,Y,['space'],Y,,,,,Y,Y,F,23,
39,7,592,10,10,12,['k'],['d'],Y,N,['space'],N,,,,,Y,Y,F,23,
39,8,593,8,8,12,['k'],['d'],Y,N,None,Y,,,,,Y,Y,F,23,
39,9,594,6,6,12,['d'],['d'],N,N,None,Y,,,,,Y,Y,F,23,
39,10,595,7,7,12,['k'],['d'],Y,N,None,Y,,,,,Y,Y,F,23,
39,11,596,14,14,12,['k'],['d'],Y,N,None,Y,,,,,Y,Y,F,23,
39,12,597,14,14,12,['k'],['d'],Y,N,None,Y,,,,,Y,Y,F,23,
39,13,598,10,10,12,['k'],['d'],Y,N,['space'],N,,,,,Y,Y,F,23,
39,14,599,10,10,12,['d'],['k'],Y,N,['d'],N,40,40,25,,Y,Y,F,23,
