.thisRepN,.thisTrialN,.thisN,.thisIndex,.thisTrial,Block Number,Key pressed,Category,Correct?,Int Match?,Int Response,Int Correct?,Line Accuracy,Interference Accuracy,Matching Interferences,New instruction shown?,Buttons switched?,Fast?,gender,age,
0,0,0,5,5,1,['k'],['k'],Y,,,,,,,,,,m,20,
0,1,1,10,10,1,['d'],['k'],N,,,,,,,,,,m,20,
0,2,2,7,7,1,['k'],['k'],Y,Y,None,N,,,,,,,m,20,
0,3,3,12,12,1,['k'],['d'],N,Y,['space'],Y,,,,,,,m,20,
0,4,4,0,0,1,['k'],['k'],Y,Y,None,N,,,,,,,m,20,
0,5,5,12,12,1,['k'],['k'],Y,Y,None,N,,,,,,,m,20,
0,6,6,5,5,1,['d'],['d'],Y,N,None,Y,,,,,,,m,20,
0,7,7,9,9,1,['k'],['k'],Y,Y,None,N,,,,,,,m,20,
0,8,8,12,12,1,['k'],['d'],N,Y,None,N,,,,,,,m,20,
0,9,9,10,10,1,['k'],['k'],Y,Y,['space'],Y,,,,,,,m,20,
0,10,10,8,8,1,['k'],['k'],Y,Y,None,N,,,,,,,m,20,
0,11,11,1,1,1,['d'],['k'],N,N,None,Y,,,,,,,m,20,
0,12,12,9,9,1,['k'],['k'],Y,N,None,Y,,,,,,,m,20,
0,13,13,13,13,1,['k'],['d'],N,Y,['space'],Y,,,,,,,m,20,
0,14,14,1,1,1,['k'],['d'],N,Y,None,N,,,,,,,m,20,
1,0,15,1,1,1,['k'],['d'],N,Y,None,N,,,,,,,m,20,
1,1,16,11,11,1,['k'],['d'],N,Y,['space'],Y,,,,,,,m,20,
1,2,17,5,5,1,['d'],['d'],Y,N,None,Y,,,,,,,m,20,
1,3,18,7,7,1,['d'],['k'],N,Y,['space'],Y,,,,,,,m,20,
1,4,19,1,1,1,['k'],['d'],N,N,['space'],N,,,,,,,m,20,
1,5,20,7,7,1,['k'],['k'],Y,N,['space'],N,,,,,,,m,20,
1,6,21,2,2,1,['k'],['k'],Y,N,None,Y,,,,,,,m,20,
1,7,22,6,6,1,['d'],['k'],N,Y,None,N,,,,,,,m,20,
1,8,23,0,0,1,['k'],['d'],N,N,None,Y,,,,,,,m,20,
1,9,24,11,11,1,['k'],['k'],Y,N,None,Y,,,,,,,m,20,
1,10,25,8,8,1,['k'],['d'],N,Y,['space'],Y,,,,,,,m,20,
1,11,26,2,2,1,['k'],['d'],N,N,None,Y,,,,,,,m,20,
1,12,27,6,6,1,['k'],['d'],N,Y,['space'],Y,,,,,,,m,20,
1,13,28,12,12,1,['k'],['d'],N,N,None,Y,,,,,,,m,20,
1,14,29,8,8,1,['k'],['k'],Y,Y,['space'],Y,,,,,,,m,20,
2,0,30,6,6,1,['k'],['k'],Y,N,None,Y,,,,,,,m,20,
2,1,31,14,14,1,['d'],['d'],Y,Y,['space'],Y,,,,,,,m,20,
2,2,32,11,11,1,['k'],['d'],N,Y,['space'],Y,,,,,,,m,20,
2,3,33,13,13,1,['k'],['d'],N,N,None,Y,,,,,,,m,20,
2,4,34,0,0,1,['k'],['k'],Y,Y,None,N,,,,,,,m,20,
2,5,35,13,13,1,['d'],['d'],Y,N,['space'],N,,,,,,,m,20,
2,6,36,11,11,1,['k'],['k'],Y,Y,['space'],Y,,,,,,,m,20,
2,7,37,14,14,1,['k'],['k'],Y,Y,['space'],Y,,,,,,,m,20,
2,8,38,13,13,1,['d'],['d'],Y,N,None,Y,,,,,,,m,20,
2,9,39,7,7,1,['d'],['d'],Y,N,None,Y,,,,,,,m,20,
2,10,40,11,11,1,['k'],['d'],N,N,None,Y,,,,,,,m,20,
2,11,41,9,9,1,['k'],['k'],Y,N,['space'],N,,,,,,,m,20,
2,12,42,0,0,1,['k'],['k'],Y,N,['space'],N,,,,,,,m,20,
2,13,43,4,4,1,['k'],['d'],N,N,None,Y,,,,,,,m,20,
2,14,44,7,7,1,['k'],['d'],N,Y,['space'],Y,,,,,,,m,20,
3,0,45,10,10,1,['d'],['d'],Y,Y,['space'],Y,,,,,,,m,20,
3,1,46,10,10,1,['k'],['k'],Y,N,None,Y,,,,,,,m,20,
3,2,47,7,7,1,['d'],['d'],Y,Y,['space'],Y,,,,,,,m,20,
3,3,48,10,10,1,['k'],['d'],N,N,None,Y,,,,,,,m,20,
3,4,49,5,5,1,['k'],['k'],Y,N,None,Y,28,33,25,,,,m,20,
3,5,50,8,8,2,['k'],['k'],Y,,,,,,,,,,m,20,
3,6,51,0,0,2,['d'],['k'],N,,,,,,,,,,m,20,
3,7,52,0,0,2,['d'],['d'],Y,Y,['space'],Y,,,,,,,m,20,
3,8,53,0,0,2,['k'],['k'],Y,Y,['space'],Y,,,,,,,m,20,
3,9,54,1,1,2,['k'],['d'],N,Y,['space'],Y,,,,,,,m,20,
3,10,55,9,9,2,['k'],['d'],N,N,None,Y,,,,,,,m,20,
3,11,56,9,9,2,['d'],['d'],Y,N,None,Y,,,,,,,m,20,
3,12,57,11,11,2,['k'],['d'],N,N,None,Y,,,,,,,m,20,
3,13,58,4,4,2,['k'],['k'],Y,N,None,Y,,,,,,,m,20,
3,14,59,5,5,2,['d'],['d'],Y,Y,['space'],Y,,,,,,,m,20,
4,0,60,10,10,2,['k'],['k'],Y,Y,['space'],Y,,,,,,,m,20,
4,1,61,11,11,2,['k'],['d'],N,Y,['space'],Y,,,,,,,m,20,
4,2,62,4,4,2,['k'],['k'],Y,N,None,Y,,,,,,,m,20,
4,3,63,0,0,2,['k'],['k'],Y,N,['space'],N,,,,,,,m,20,
4,4,64,3,3,2,['k'],['k'],Y,Y,['space'],Y,,,,,,,m,20,
4,5,65,13,13,2,['d'],['d'],Y,Y,['space'],Y,,,,,,,m,20,
4,6,66,3,3,2,['k'],['k'],Y,Y,['space'],Y,,,,,,,m,20,
4,7,67,1,1,2,['k'],['k'],Y,Y,['space'],Y,,,,,,,m,20,
4,8,68,5,5,2,['k'],['k'],Y,N,None,Y,,,,,,,m,20,
4,9,69,6,6,2,['k'],['k'],Y,N,['space'],N,,,,,,,m,20,
4,10,70,1,1,2,['k'],['d'],N,N,None,Y,,,,,,,m,20,
4,11,71,6,6,2,['d'],['k'],N,Y,['space'],Y,,,,,,,m,20,
4,12,72,2,2,2,['k'],['d'],N,Y,['space'],Y,,,,,,,m,20,
4,13,73,1,1,2,['k'],['k'],Y,Y,['space'],Y,,,,,,,m,20,
4,14,74,10,10,2,['k'],['d'],N,N,None,Y,,,,,,,m,20,
5,0,75,14,14,2,['k'],['k'],Y,Y,['space'],Y,,,,,,,m,20,
5,1,76,3,3,2,['k'],['k'],Y,Y,['space'],Y,,,,,,,m,20,
5,2,77,8,8,2,['d'],['d'],Y,N,None,Y,,,,,,,m,20,
5,3,78,14,14,2,['k'],['k'],Y,Y,['space'],Y,,,,,,,m,20,
5,4,79,1,1,2,['k'],['k'],Y,N,None,Y,,,,,,,m,20,
5,5,80,5,5,2,['k'],['k'],Y,N,None,Y,,,,,,,m,20,
5,6,81,6,6,2,['k'],['k'],Y,N,None,Y,,,,,,,m,20,
5,7,82,9,9,2,['k'],['k'],Y,Y,['space'],Y,,,,,,,m,20,
5,8,83,6,6,2,['k'],['k'],Y,N,['d'],N,,,,,,,m,20,
5,9,84,4,4,2,['k'],['d'],N,N,None,Y,,,,,,,m,20,
5,10,85,5,5,2,['k'],['d'],N,Y,['space'],Y,,,,,,,m,20,
5,11,86,0,0,2,['k'],['d'],N,N,None,Y,,,,,,,m,20,
5,12,87,10,10,2,['k'],['d'],N,Y,['space'],Y,,,,,,,m,20,
5,13,88,12,12,2,['k'],['d'],N,N,['space'],N,,,,,,,m,20,
5,14,89,10,10,2,['k'],['k'],Y,Y,['space'],Y,,,,,,,m,20,
6,0,90,7,7,2,['d'],['d'],Y,N,None,Y,,,,,,,m,20,
6,1,91,13,13,2,['k'],['d'],N,N,None,Y,,,,,,,m,20,
6,2,92,7,7,2,['k'],['k'],Y,Y,['space'],Y,,,,,,,m,20,
6,3,93,6,6,2,['k'],['d'],N,Y,['space'],Y,,,,,,,m,20,
6,4,94,4,4,2,['k'],['d'],N,Y,['k'],N,,,,,,,m,20,
6,5,95,8,8,2,['k'],['d'],N,Y,['space'],Y,,,,,,,m,20,
6,6,96,5,5,2,['k'],['d'],N,N,None,Y,,,,,,,m,20,
6,7,97,6,6,2,['k'],['k'],Y,Y,['space'],Y,,,,,,,m,20,
6,8,98,3,3,2,['d'],['d'],Y,N,None,Y,,,,,,,m,20,
6,9,99,6,6,2,['k'],['k'],Y,N,None,Y,31,43,25,,,,m,20,
6,10,100,5,5,3,['k'],['k'],Y,,,,,,,,,,m,20,
6,11,101,0,0,3,['k'],['k'],Y,,,,,,,,,,m,20,
6,12,102,5,5,3,['d'],['d'],Y,Y,['space'],Y,,,,,,,m,20,
6,13,103,4,4,3,['k'],['d'],N,N,None,Y,,,,,,,m,20,
6,14,104,13,13,3,['k'],['d'],N,N,None,Y,,,,,,,m,20,
7,0,105,13,13,3,['k'],['k'],Y,N,None,Y,,,,,,,m,20,
7,1,106,7,7,3,['k'],['k'],Y,Y,['space'],Y,,,,,,,m,20,
7,2,107,10,10,3,['d'],['k'],N,Y,['space'],Y,,,,,,,m,20,
7,3,108,1,1,3,['d'],['d'],Y,Y,['space'],Y,,,,,,,m,20,
7,4,109,0,0,3,['k'],['k'],Y,Y,['space'],Y,,,,,,,m,20,
7,5,110,1,1,3,['d'],['d'],Y,N,None,Y,,,,,,,m,20,
7,6,111,8,8,3,['k'],['k'],Y,N,None,Y,,,,,,,m,20,
7,7,112,12,12,3,['k'],['k'],Y,N,None,Y,,,,,,,m,20,
7,8,113,6,6,3,['k'],['k'],Y,N,None,Y,,,,,,,m,20,
7,9,114,3,3,3,['k'],['d'],N,Y,None,N,,,,,,,m,20,
7,10,115,1,1,3,['k'],['d'],N,N,None,Y,,,,,,,m,20,
7,11,116,3,3,3,['d'],['d'],Y,N,None,Y,,,,,,,m,20,
7,12,117,4,4,3,['k'],['d'],N,N,None,Y,,,,,,,m,20,
7,13,118,2,2,3,['k'],['d'],N,Y,None,N,,,,,,,m,20,
7,14,119,7,7,3,['d'],['k'],N,N,None,Y,,,,,,,m,20,
8,0,120,6,6,3,['k'],['k'],Y,Y,['space'],Y,,,,,,,m,20,
8,1,121,5,5,3,['k'],['k'],Y,Y,['space'],Y,,,,,,,m,20,
8,2,122,9,9,3,['k'],['k'],Y,Y,['space'],Y,,,,,,,m,20,
8,3,123,9,9,3,['k'],['k'],Y,N,None,Y,,,,,,,m,20,
8,4,124,0,0,3,['k'],['k'],Y,N,None,Y,,,,,,,m,20,
8,5,125,0,0,3,['d'],['d'],Y,Y,['space'],Y,,,,,,,m,20,
8,6,126,8,8,3,['d'],['d'],Y,Y,['space'],Y,,,,,,,m,20,
8,7,127,3,3,3,['k'],['k'],Y,N,None,Y,,,,,,,m,20,
8,8,128,5,5,3,['k'],['d'],N,N,None,Y,,,,,,,m,20,
8,9,129,2,2,3,['k'],['k'],Y,N,None,Y,,,,,,,m,20,
8,10,130,14,14,3,['d'],['d'],Y,N,None,Y,,,,,,,m,20,
8,11,131,9,9,3,['d'],['d'],Y,Y,['space'],Y,,,,,,,m,20,
8,12,132,3,3,3,['d'],['d'],Y,Y,['space'],Y,,,,,,,m,20,
8,13,133,14,14,3,['k'],['d'],N,N,['space'],N,,,,,,,m,20,
8,14,134,9,9,3,['k'],['k'],Y,Y,['space'],Y,,,,,,,m,20,
9,0,135,3,3,3,['d'],['d'],Y,Y,['space'],Y,,,,,,,m,20,
9,1,136,13,13,3,['d'],['d'],Y,N,None,Y,,,,,,,m,20,
9,2,137,5,5,3,['k'],['k'],Y,Y,['space'],Y,,,,,,,m,20,
9,3,138,6,6,3,['k'],['k'],Y,Y,['space'],Y,,,,,,,m,20,
9,4,139,6,6,3,['d'],['d'],Y,N,None,Y,,,,,,,m,20,
9,5,140,4,4,3,['d'],['d'],Y,Y,['space'],Y,,,,,,,m,20,
9,6,141,2,2,3,['k'],['k'],Y,Y,['k'],N,,,,,,,m,20,
9,7,142,12,12,3,['d'],['k'],N,N,None,Y,,,,,,,m,20,
9,8,143,13,13,3,['k'],['d'],N,Y,['space'],Y,,,,,,,m,20,
9,9,144,11,11,3,['d'],['d'],Y,Y,['space'],Y,,,,,,,m,20,
9,10,145,6,6,3,['d'],['k'],N,N,None,Y,,,,,,,m,20,
9,11,146,10,10,3,['k'],['d'],N,N,['space'],N,,,,,,,m,20,
9,12,147,14,14,3,['d'],['d'],Y,Y,['space'],Y,,,,,,,m,20,
9,13,148,0,0,3,['k'],['k'],Y,Y,['space'],Y,,,,,,,m,20,
9,14,149,4,4,3,['d'],['d'],Y,Y,['space'],Y,36,43,25,,,,m,20,
10,0,150,1,1,4,['k'],['d'],N,,,,,,,,,,m,20,
10,1,151,0,0,4,['k'],['d'],N,,,,,,,,,,m,20,
10,2,152,6,6,4,['d'],['d'],Y,N,['space'],N,,,,,,,m,20,
10,3,153,3,3,4,['k'],['k'],Y,N,None,Y,,,,,,,m,20,
10,4,154,0,0,4,['d'],['d'],Y,N,['space'],N,,,,,,,m,20,
10,5,155,3,3,4,['k'],['d'],N,Y,['space'],Y,,,,,,,m,20,
10,6,156,9,9,4,['k'],['k'],Y,N,None,Y,,,,,,,m,20,
10,7,157,8,8,4,['k'],['k'],Y,N,None,Y,,,,,,,m,20,
10,8,158,6,6,4,['d'],['d'],Y,Y,['space'],Y,,,,,,,m,20,
10,9,159,13,13,4,['k'],['k'],Y,Y,['space'],Y,,,,,,,m,20,
10,10,160,13,13,4,['d'],['k'],N,N,None,Y,,,,,,,m,20,
10,11,161,13,13,4,['k'],['d'],N,Y,['space'],Y,,,,,,,m,20,
10,12,162,11,11,4,['d'],['k'],N,Y,['space'],Y,,,,,,,m,20,
10,13,163,12,12,4,['k'],['d'],N,Y,['space'],Y,,,,,,,m,20,
10,14,164,9,9,4,['k'],['k'],Y,Y,['space'],Y,,,,,,,m,20,
11,0,165,13,13,4,['k'],['k'],Y,N,None,Y,,,,,,,m,20,
11,1,166,14,14,4,['d'],['d'],Y,N,None,Y,,,,,,,m,20,
11,2,167,14,14,4,['d'],['d'],Y,Y,['space'],Y,,,,,,,m,20,
11,3,168,5,5,4,['d'],['d'],Y,N,None,Y,,,,,,,m,20,
11,4,169,11,11,4,['k'],['d'],N,N,None,Y,,,,,,,m,20,
11,5,170,9,9,4,['k'],['d'],N,N,None,Y,,,,,,,m,20,
11,6,171,11,11,4,['d'],['d'],Y,Y,['space'],Y,,,,,,,m,20,
11,7,172,12,12,4,['d'],['d'],Y,Y,['space'],Y,,,,,,,m,20,
11,8,173,8,8,4,['k'],['k'],Y,N,None,Y,,,,,,,m,20,
11,9,174,11,11,4,['k'],['k'],Y,Y,['space'],Y,,,,,,,m,20,
11,10,175,0,0,4,['d'],['k'],N,N,None,Y,,,,,,,m,20,
11,11,176,5,5,4,['k'],['k'],Y,Y,['space'],Y,,,,,,,m,20,
11,12,177,2,2,4,['d'],['d'],Y,Y,['space'],Y,,,,,,,m,20,
11,13,178,11,11,4,['k'],['k'],Y,Y,['space'],Y,,,,,,,m,20,
11,14,179,9,9,4,['k'],['d'],N,N,None,Y,,,,,,,m,20,
12,0,180,4,4,4,['d'],['k'],N,N,None,Y,,,,,,,m,20,
12,1,181,7,7,4,['d'],['k'],N,N,None,Y,,,,,,,m,20,
12,2,182,8,8,4,['k'],['d'],N,N,['space'],N,,,,,,,m,20,
12,3,183,0,0,4,['d'],['d'],Y,Y,['space'],Y,,,,,,,m,20,
12,4,184,12,12,4,['k'],['k'],Y,N,None,Y,,,,,,,m,20,
12,5,185,3,3,4,['k'],['d'],N,Y,['space'],Y,,,,,,,m,20,
12,6,186,7,7,4,['d'],['d'],Y,N,None,Y,,,,,,,m,20,
12,7,187,0,0,4,['k'],['d'],N,Y,['space'],Y,,,,,,,m,20,
12,8,188,2,2,4,['k'],['k'],Y,N,None,Y,,,,,,,m,20,
12,9,189,3,3,4,['k'],['k'],Y,Y,['space'],Y,,,,,,,m,20,
12,10,190,6,6,4,['k'],['d'],N,Y,['space'],Y,,,,,,,m,20,
12,11,191,13,13,4,['d'],['d'],Y,N,None,Y,,,,,,,m,20,
12,12,192,5,5,4,['k'],['d'],N,N,None,Y,,,,,,,m,20,
12,13,193,4,4,4,['d'],['k'],N,N,None,Y,,,,,,,m,20,
12,14,194,3,3,4,['d'],['d'],Y,Y,['space'],Y,,,,,,,m,20,
13,0,195,8,8,4,['k'],['d'],N,Y,['space'],Y,,,,,,,m,20,
13,1,196,2,2,4,['k'],['d'],N,Y,['space'],Y,,,,,,,m,20,
13,2,197,10,10,4,['d'],['k'],N,N,None,Y,,,,,,,m,20,
13,3,198,1,1,4,['k'],['d'],N,N,None,Y,,,,,,,m,20,
13,4,199,1,1,4,['d'],['k'],N,N,None,Y,26,45,22,,,,m,20,
13,5,200,13,13,5,['d'],['d'],Y,,,,,,,,,,m,20,
13,6,201,10,10,5,['d'],['d'],Y,,,,,,,,,,m,20,
13,7,202,7,7,5,['d'],['k'],N,Y,['space'],Y,,,,,,,m,20,
13,8,203,8,8,5,['k'],['k'],Y,Y,['space'],Y,,,,,,,m,20,
13,9,204,11,11,5,['k'],['k'],Y,Y,['space'],Y,,,,,,,m,20,
13,10,205,2,2,5,['d'],['d'],Y,N,None,Y,,,,,,,m,20,
13,11,206,10,10,5,['k'],['k'],Y,N,None,Y,,,,,,,m,20,
13,12,207,5,5,5,['k'],['k'],Y,N,None,Y,,,,,,,m,20,
13,13,208,2,2,5,['k'],['k'],Y,N,['space'],N,,,,,,,m,20,
13,14,209,1,1,5,['k'],['k'],Y,N,None,Y,,,,,,,m,20,
14,0,210,6,6,5,['d'],['k'],N,Y,['space'],Y,,,,,,,m,20,
14,1,211,5,5,5,['d'],['d'],Y,Y,['space'],Y,,,,,,,m,20,
14,2,212,0,0,5,['k'],['k'],Y,Y,['space'],Y,,,,,,,m,20,
14,3,213,11,11,5,['k'],['d'],N,N,None,Y,,,,,,,m,20,
14,4,214,11,11,5,['d'],['d'],Y,Y,['space'],Y,,,,,,,m,20,
14,5,215,0,0,5,['d'],['d'],Y,Y,['space'],Y,,,,,,,m,20,
14,6,216,4,4,5,['d'],['d'],Y,Y,['space'],Y,,,,,,,m,20,
14,7,217,1,1,5,['d'],['d'],Y,N,None,Y,,,,,,,m,20,
14,8,218,13,13,5,['d'],['d'],Y,Y,['space'],Y,,,,,,,m,20,
14,9,219,0,0,5,['k'],['k'],Y,Y,['space'],Y,,,,,,,m,20,
14,10,220,12,12,5,['k'],['k'],Y,Y,['space'],Y,,,,,,,m,20,
14,11,221,7,7,5,['k'],['k'],Y,Y,['space'],Y,,,,,,,m,20,
14,12,222,11,11,5,['d'],['d'],Y,N,None,Y,,,,,,,m,20,
14,13,223,5,5,5,['k'],['d'],N,Y,['space'],Y,,,,,,,m,20,
14,14,224,8,8,5,['d'],['d'],Y,N,None,Y,,,,,,,m,20,
15,0,225,0,0,5,['k'],['d'],N,Y,None,N,,,,,,,m,20,
15,1,226,12,12,5,['k'],['k'],Y,N,None,Y,,,,,,,m,20,
15,2,227,7,7,5,['d'],['d'],Y,Y,['space'],Y,,,,,,,m,20,
15,3,228,0,0,5,['d'],['k'],N,Y,['space'],Y,,,,,,,m,20,
15,4,229,1,1,5,['d'],['d'],Y,N,None,Y,,,,,,,m,20,
15,5,230,2,2,5,['d'],['k'],N,Y,['space'],Y,,,,,,,m,20,
15,6,231,8,8,5,['d'],['d'],Y,Y,['space'],Y,,,,,,,m,20,
15,7,232,9,9,5,['k'],['k'],Y,Y,['space'],Y,,,,,,,m,20,
15,8,233,8,8,5,['k'],['k'],Y,Y,['space'],Y,,,,,,,m,20,
15,9,234,3,3,5,['k'],['k'],Y,N,None,Y,,,,,,,m,20,
15,10,235,12,12,5,['d'],['d'],Y,Y,['space'],Y,,,,,,,m,20,
15,11,236,3,3,5,['d'],['d'],Y,Y,['space'],Y,,,,,,,m,20,
15,12,237,8,8,5,['d'],['k'],N,Y,['space'],Y,,,,,,,m,20,
15,13,238,2,2,5,['k'],['k'],Y,Y,['space'],Y,,,,,,,m,20,
15,14,239,10,10,5,['d'],['d'],Y,N,None,Y,,,,,,,m,20,
16,0,240,11,11,5,['k'],['d'],N,N,None,Y,,,,,,,m,20,
16,1,241,9,9,5,['k'],['k'],Y,N,None,Y,,,,,,,m,20,
16,2,242,8,8,5,['d'],['k'],N,N,None,Y,,,,,,,m,20,
16,3,243,13,13,5,['k'],['k'],Y,N,None,Y,,,,,,,m,20,
16,4,244,0,0,5,['d'],['d'],Y,N,None,Y,,,,,,,m,20,
16,5,245,12,12,5,['d'],['d'],Y,N,None,Y,,,,,,,m,20,
16,6,246,13,13,5,['d'],['k'],N,N,None,Y,,,,,,,m,20,
16,7,247,1,1,5,['k'],['d'],N,N,None,Y,,,,,,,m,20,
16,8,248,12,12,5,['k'],['k'],Y,N,None,Y,,,,,,,m,20,
16,9,249,4,4,5,['d'],['d'],Y,N,None,Y,38,46,25,,,,m,20,
16,10,250,9,9,6,['k'],['d'],N,,,,,,,,,,m,20,
16,11,251,7,7,6,['d'],['d'],Y,,,,,,,,,,m,20,
16,12,252,13,13,6,['k'],['k'],Y,N,None,Y,,,,,,,m,20,
16,13,253,7,7,6,['d'],['k'],N,N,None,Y,,,,,,,m,20,
16,14,254,10,10,6,['k'],['k'],Y,N,None,Y,,,,,,,m,20,
17,0,255,1,1,6,['k'],['d'],N,Y,['space'],Y,,,,,,,m,20,
17,1,256,14,14,6,['k'],['d'],N,N,['space'],N,,,,,,,m,20,
17,2,257,3,3,6,['k'],['k'],Y,Y,['space'],Y,,,,,,,m,20,
17,3,258,14,14,6,['k'],['d'],N,N,None,Y,,,,,,,m,20,
17,4,259,14,14,6,['k'],['k'],Y,Y,['space'],Y,,,,,,,m,20,
17,5,260,14,14,6,['k'],['k'],Y,Y,['space'],Y,,,,,,,m,20,
17,6,261,9,9,6,['d'],['d'],Y,N,None,Y,,,,,,,m,20,
17,7,262,12,12,6,['k'],['k'],Y,Y,['space'],Y,,,,,,,m,20,
17,8,263,7,7,6,['d'],['d'],Y,Y,['space'],Y,,,,,,,m,20,
17,9,264,10,10,6,['k'],['k'],Y,Y,['space'],Y,,,,,,,m,20,
17,10,265,13,13,6,['d'],['d'],Y,N,None,Y,,,,,,,m,20,
17,11,266,11,11,6,['d'],['d'],Y,Y,['space'],Y,,,,,,,m,20,
17,12,267,2,2,6,['k'],['k'],Y,Y,['space'],Y,,,,,,,m,20,
17,13,268,14,14,6,['d'],['d'],Y,Y,['space'],Y,,,,,,,m,20,
17,14,269,9,9,6,['d'],['d'],Y,N,None,Y,,,,,,,m,20,
18,0,270,4,4,6,['k'],['k'],Y,N,None,Y,,,,,,,m,20,
18,1,271,7,7,6,['k'],['k'],Y,Y,['space'],Y,,,,,,,m,20,
18,2,272,4,4,6,['k'],['k'],Y,N,None,Y,,,,,,,m,20,
18,3,273,4,4,6,['d'],['k'],N,N,None,Y,,,,,,,m,20,
18,4,274,10,10,6,['k'],['d'],N,N,None,Y,,,,,,,m,20,
18,5,275,4,4,6,['k'],['k'],Y,Y,['space'],Y,,,,,,,m,20,
18,6,276,10,10,6,['d'],['d'],Y,N,None,Y,,,,,,,m,20,
18,7,277,0,0,6,['k'],['d'],N,Y,['space'],Y,,,,,,,m,20,
18,8,278,8,8,6,['d'],['d'],Y,N,None,Y,,,,,,,m,20,
18,9,279,13,13,6,['d'],['k'],N,Y,['space'],Y,,,,,,,m,20,
18,10,280,9,9,6,['k'],['d'],N,Y,['space'],Y,,,,,,,m,20,
18,11,281,1,1,6,['k'],['k'],Y,N,None,Y,,,,,,,m,20,
18,12,282,12,12,6,['d'],['k'],N,N,None,Y,,,,,,,m,20,
18,13,283,3,3,6,['d'],['k'],N,N,None,Y,,,,,,,m,20,
18,14,284,1,1,6,['k'],['d'],N,Y,['space'],Y,,,,,,,m,20,
19,0,285,7,7,6,['k'],['k'],Y,Y,['space'],Y,,,,,,,m,20,
19,1,286,3,3,6,['k'],['k'],Y,N,['space'],N,,,,,,,m,20,
19,2,287,1,1,6,['k'],['k'],Y,N,None,Y,,,,,,,m,20,
19,3,288,2,2,6,['k'],['k'],Y,N,None,Y,,,,,,,m,20,
19,4,289,9,9,6,['d'],['d'],Y,N,None,Y,,,,,,,m,20,
19,5,290,7,7,6,['k'],['k'],Y,N,None,Y,,,,,,,m,20,
19,6,291,3,3,6,['d'],['d'],Y,Y,['space'],Y,,,,,,,m,20,
19,7,292,13,13,6,['k'],['k'],Y,N,None,Y,,,,,,,m,20,
19,8,293,8,8,6,['k'],['k'],Y,Y,['space'],Y,,,,,,,m,20,
19,9,294,14,14,6,['d'],['d'],Y,N,None,Y,,,,,,,m,20,
19,10,295,6,6,6,['d'],['d'],Y,N,None,Y,,,,,,,m,20,
19,11,296,13,13,6,['d'],['k'],N,Y,['space'],Y,,,,,,,m,20,
19,12,297,10,10,6,['k'],['k'],Y,N,None,Y,,,,,,,m,20,
19,13,298,14,14,6,['k'],['k'],Y,Y,['space'],Y,,,,,,,m,20,
19,14,299,5,5,6,['d'],['d'],Y,Y,['space'],Y,36,46,22,,,,m,20,
20,0,300,0,0,7,['k'],['d'],N,,,,,,,,,,m,20,
20,1,301,7,7,7,['d'],['k'],N,,,,,,,,,,m,20,
20,2,302,4,4,7,['d'],['k'],N,Y,['space'],Y,,,,,,,m,20,
20,3,303,2,2,7,['k'],['k'],Y,N,None,Y,,,,,,,m,20,
20,4,304,11,11,7,['k'],['k'],Y,N,None,Y,,,,,,,m,20,
20,5,305,6,6,7,['k'],['k'],Y,Y,['space'],Y,,,,,,,m,20,
20,6,306,1,1,7,['k'],['k'],Y,Y,['space'],Y,,,,,,,m,20,
20,7,307,1,1,7,['k'],['k'],Y,N,None,Y,,,,,,,m,20,
20,8,308,13,13,7,['k'],['k'],Y,N,None,Y,,,,,,,m,20,
20,9,309,3,3,7,['d'],['d'],Y,Y,['space'],Y,,,,,,,m,20,
20,10,310,13,13,7,['k'],['k'],Y,N,None,Y,,,,,,,m,20,
20,11,311,3,3,7,['k'],['d'],N,Y,['space'],Y,,,,,,,m,20,
20,12,312,6,6,7,['d'],['d'],Y,N,None,Y,,,,,,,m,20,
20,13,313,4,4,7,['d'],['d'],Y,Y,['space'],Y,,,,,,,m,20,
20,14,314,8,8,7,['k'],['k'],Y,N,None,Y,,,,,,,m,20,
21,0,315,8,8,7,['d'],['d'],Y,N,None,Y,,,,,,,m,20,
21,1,316,9,9,7,['d'],['k'],N,Y,['space'],Y,,,,,,,m,20,
21,2,317,4,4,7,['k'],['k'],Y,Y,['space'],Y,,,,,,,m,20,
21,3,318,13,13,7,['k'],['k'],Y,Y,['space'],Y,,,,,,,m,20,
21,4,319,3,3,7,['k'],['k'],Y,Y,['space'],Y,,,,,,,m,20,
21,5,320,0,0,7,['k'],['k'],Y,N,None,Y,,,,,,,m,20,
21,6,321,8,8,7,['k'],['k'],Y,N,None,Y,,,,,,,m,20,
21,7,322,7,7,7,['d'],['k'],N,N,None,Y,,,,,,,m,20,
21,8,323,0,0,7,['k'],['d'],N,N,['space'],N,,,,,,,m,20,
21,9,324,13,13,7,['d'],['d'],Y,Y,['space'],Y,,,,,,,m,20,
21,10,325,12,12,7,['d'],['d'],Y,Y,['space'],Y,,,,,,,m,20,
21,11,326,6,6,7,['d'],['k'],N,Y,['space'],Y,,,,,,,m,20,
21,12,327,14,14,7,['d'],['d'],Y,Y,['space'],Y,,,,,,,m,20,
21,13,328,10,10,7,['k'],['d'],N,N,None,Y,,,,,,,m,20,
21,14,329,1,1,7,['k'],['d'],N,Y,['space'],Y,,,,,,,m,20,
22,0,330,11,11,7,['k'],['k'],Y,Y,['space'],Y,,,,,,,m,20,
22,1,331,6,6,7,['k'],['k'],Y,N,None,Y,,,,,,,m,20,
22,2,332,9,9,7,['k'],['d'],N,Y,['space'],Y,,,,,,,m,20,
22,3,333,7,7,7,['k'],['k'],Y,Y,['space'],Y,,,,,,,m,20,
22,4,334,2,2,7,['k'],['d'],N,Y,['space'],Y,,,,,,,m,20,
22,5,335,2,2,7,['k'],['d'],N,N,None,Y,,,,,,,m,20,
22,6,336,2,2,7,['d'],['k'],N,Y,['space'],Y,,,,,,,m,20,
22,7,337,14,14,7,['k'],['d'],N,N,None,Y,,,,,,,m,20,
22,8,338,1,1,7,['k'],['k'],Y,Y,['space'],Y,,,,,,,m,20,
22,9,339,2,2,7,['d'],['d'],Y,N,None,Y,,,,,,,m,20,
22,10,340,14,14,7,['k'],['k'],Y,N,['space'],N,,,,,,,m,20,
22,11,341,14,14,7,['k'],['k'],Y,N,None,Y,,,,,,,m,20,
22,12,342,2,2,7,['d'],['d'],Y,Y,['space'],Y,,,,,,,m,20,
22,13,343,12,12,7,['d'],['k'],N,Y,['space'],Y,,,,,,,m,20,
22,14,344,5,5,7,['k'],['k'],Y,Y,['space'],Y,,,,,,,m,20,
23,0,345,6,6,7,['d'],['d'],Y,Y,['space'],Y,,,,,,,m,20,
23,1,346,5,5,7,['k'],['k'],Y,N,None,Y,,,,,,,m,20,
23,2,347,4,4,7,['d'],['k'],N,N,None,Y,,,,,,,m,20,
23,3,348,7,7,7,['k'],['d'],N,N,None,Y,,,,,,,m,20,
23,4,349,9,9,7,['k'],['k'],Y,N,None,Y,32,46,25,,,,m,20,
23,5,350,2,2,8,['k'],['d'],N,,,,,,,,,,m,20,
23,6,351,11,11,8,['d'],['d'],Y,,,,,,,,,,m,20,
23,7,352,7,7,8,['k'],['d'],N,N,None,Y,,,,,,,m,20,
23,8,353,12,12,8,['d'],['d'],Y,N,None,Y,,,,,,,m,20,
23,9,354,12,12,8,['d'],['d'],Y,Y,['space'],Y,,,,,,,m,20,
23,10,355,8,8,8,['k'],['k'],Y,N,None,Y,,,,,,,m,20,
23,11,356,2,2,8,['d'],['d'],Y,N,None,Y,,,,,,,m,20,
23,12,357,13,13,8,['k'],['k'],Y,N,None,Y,,,,,,,m,20,
23,13,358,11,11,8,['k'],['d'],N,Y,['space'],Y,,,,,,,m,20,
23,14,359,11,11,8,['d'],['d'],Y,Y,['space'],Y,,,,,,,m,20,
24,0,360,14,14,8,['k'],['d'],N,N,None,Y,,,,,,,m,20,
24,1,361,5,5,8,['d'],['d'],Y,N,None,Y,,,,,,,m,20,
24,2,362,11,11,8,['k'],['k'],Y,Y,['space'],Y,,,,,,,m,20,
24,3,363,12,12,8,['d'],['d'],Y,Y,['space'],Y,,,,,,,m,20,
24,4,364,4,4,8,['d'],['k'],N,N,None,Y,,,,,,,m,20,
24,5,365,1,1,8,['k'],['d'],N,Y,['space'],Y,,,,,,,m,20,
24,6,366,12,12,8,['k'],['d'],N,Y,['space'],Y,,,,,,,m,20,
24,7,367,14,14,8,['k'],['d'],N,Y,['space'],Y,,,,,,,m,20,
24,8,368,6,6,8,['d'],['d'],Y,N,None,Y,,,,,,,m,20,
24,9,369,8,8,8,['k'],['d'],N,Y,['space'],Y,,,,,,,m,20,
24,10,370,2,2,8,['d'],['d'],Y,Y,['space'],Y,,,,,,,m,20,
24,11,371,12,12,8,['d'],['k'],N,N,None,Y,,,,,,,m,20,
24,12,372,10,10,8,['k'],['d'],N,N,None,Y,,,,,,,m,20,
24,13,373,2,2,8,['d'],['k'],N,N,None,Y,,,,,,,m,20,
24,14,374,10,10,8,['k'],['k'],Y,Y,None,N,,,,,,,m,20,
25,0,375,13,13,8,['k'],['k'],Y,N,None,Y,,,,,,,m,20,
25,1,376,3,3,8,['k'],['k'],Y,Y,['space'],Y,,,,,,,m,20,
25,2,377,11,11,8,['d'],['d'],Y,Y,['space'],Y,,,,,,,m,20,
25,3,378,10,10,8,['k'],['k'],Y,N,None,Y,,,,,,,m,20,
25,4,379,3,3,8,['d'],['d'],Y,N,None,Y,,,,,,,m,20,
25,5,380,1,1,8,['d'],['d'],Y,N,None,Y,,,,,,,m,20,
25,6,381,14,14,8,['k'],['k'],Y,Y,['space'],Y,,,,,,,m,20,
25,7,382,10,10,8,['d'],['d'],Y,N,['space'],N,,,,,,,m,20,
25,8,383,10,10,8,['d'],['d'],Y,N,None,Y,,,,,,,m,20,
25,9,384,3,3,8,['k'],['d'],N,Y,['space'],Y,,,,,,,m,20,
25,10,385,14,14,8,['k'],['k'],Y,Y,['space'],Y,,,,,,,m,20,
25,11,386,2,2,8,['k'],['k'],Y,Y,['space'],Y,,,,,,,m,20,
25,12,387,11,11,8,['k'],['k'],Y,N,None,Y,,,,,,,m,20,
25,13,388,9,9,8,['d'],['d'],Y,Y,['space'],Y,,,,,,,m,20,
25,14,389,14,14,8,['k'],['k'],Y,Y,['space'],Y,,,,,,,m,20,
26,0,390,5,5,8,['d'],['d'],Y,N,None,Y,,,,,,,m,20,
26,1,391,4,4,8,['k'],['k'],Y,N,None,Y,,,,,,,m,20,
26,2,392,1,1,8,['d'],['k'],N,N,None,Y,,,,,,,m,20,
26,3,393,8,8,8,['k'],['k'],Y,Y,['space'],Y,,,,,,,m,20,
26,4,394,12,12,8,['d'],['d'],Y,N,None,Y,,,,,,,m,20,
26,5,395,11,11,8,['d'],['d'],Y,Y,['space'],Y,,,,,,,m,20,
26,6,396,4,4,8,['k'],['k'],Y,N,None,Y,,,,,,,m,20,
26,7,397,6,6,8,['d'],['d'],Y,Y,['space'],Y,,,,,,,m,20,
26,8,398,1,1,8,['d'],['d'],Y,N,None,Y,,,,,,,m,20,
26,9,399,14,14,8,['d'],['k'],N,N,None,Y,35,46,22,,,,m,20,
26,10,400,12,12,9,['k'],['k'],Y,,,,,,,,,,m,20,
26,11,401,4,4,9,['k'],['k'],Y,,,,,,,,,,m,20,
26,12,402,8,8,9,['k'],['k'],Y,Y,['space'],Y,,,,,,,m,20,
26,13,403,14,14,9,['k'],['k'],Y,N,['space'],N,,,,,,,m,20,
26,14,404,7,7,9,['k'],['d'],N,N,None,Y,,,,,,,m,20,
27,0,405,14,14,9,['d'],['d'],Y,Y,None,N,,,,,,,m,20,
27,1,406,2,2,9,['d'],['d'],Y,Y,['space'],Y,,,,,,,m,20,
27,2,407,8,8,9,['d'],['k'],N,N,None,Y,,,,,,,m,20,
27,3,408,9,9,9,['d'],['d'],Y,N,None,Y,,,,,,,m,20,
27,4,409,7,7,9,['d'],['d'],Y,N,['space'],N,,,,,,,m,20,
27,5,410,9,9,9,['k'],['d'],N,Y,['space'],Y,,,,,,,m,20,
27,6,411,12,12,9,['d'],['d'],Y,Y,['space'],Y,,,,,,,m,20,
27,7,412,9,9,9,['d'],['d'],Y,N,['space'],N,,,,,,,m,20,
27,8,413,0,0,9,['d'],['d'],Y,N,None,Y,,,,,,,m,20,
27,9,414,7,7,9,['d'],['d'],Y,N,['space'],N,,,,,,,m,20,
27,10,415,9,9,9,['d'],['d'],Y,Y,['space'],Y,,,,,,,m,20,
27,11,416,7,7,9,['d'],['d'],Y,Y,['space'],Y,,,,,,,m,20,
27,12,417,6,6,9,['d'],['k'],N,Y,['space'],Y,,,,,,,m,20,
27,13,418,6,6,9,['k'],['k'],Y,Y,['space'],Y,,,,,,,m,20,
27,14,419,7,7,9,['k'],['k'],Y,Y,['space'],Y,,,,,,,m,20,
28,0,420,14,14,9,['k'],['k'],Y,N,None,Y,,,,,,,m,20,
28,1,421,3,3,9,['d'],['d'],Y,Y,['space'],Y,,,,,,,m,20,
28,2,422,1,1,9,['d'],['d'],Y,Y,['space'],Y,,,,,,,m,20,
28,3,423,9,9,9,['k'],['k'],Y,N,None,Y,,,,,,,m,20,
28,4,424,1,1,9,['d'],['d'],Y,N,None,Y,,,,,,,m,20,
28,5,425,5,5,9,['k'],['k'],Y,Y,['space'],Y,,,,,,,m,20,
28,6,426,3,3,9,['d'],['d'],Y,Y,['space'],Y,,,,,,,m,20,
28,7,427,9,9,9,['k'],['k'],Y,N,None,Y,,,,,,,m,20,
28,8,428,3,3,9,['k'],['k'],Y,N,None,Y,,,,,,,m,20,
28,9,429,4,4,9,['d'],['d'],Y,Y,['space'],Y,,,,,,,m,20,
28,10,430,12,12,9,['k'],['d'],N,N,None,Y,,,,,,,m,20,
28,11,431,6,6,9,['k'],['d'],N,Y,['space'],Y,,,,,,,m,20,
28,12,432,13,13,9,['d'],['k'],N,N,None,Y,,,,,,,m,20,
28,13,433,11,11,9,['d'],['d'],Y,N,None,Y,,,,,,,m,20,
28,14,434,6,6,9,['k'],['k'],Y,N,None,Y,,,,,,,m,20,
29,0,435,7,7,9,['k'],['d'],N,Y,['space'],Y,,,,,,,m,20,
29,1,436,14,14,9,['d'],['d'],Y,N,None,Y,,,,,,,m,20,
29,2,437,2,2,9,['d'],['d'],Y,Y,['space'],Y,,,,,,,m,20,
29,3,438,8,8,9,['k'],['k'],Y,N,None,Y,,,,,,,m,20,
29,4,439,10,10,9,['d'],['d'],Y,N,None,Y,,,,,,,m,20,
29,5,440,14,14,9,['d'],['k'],N,N,None,Y,,,,,,,m,20,
29,6,441,10,10,9,['k'],['k'],Y,Y,['space'],Y,,,,,,,m,20,
29,7,442,10,10,9,['k'],['k'],Y,Y,['space'],Y,,,,,,,m,20,
29,8,443,14,14,9,['d'],['d'],Y,N,None,Y,,,,,,,m,20,
29,9,444,10,10,9,['k'],['k'],Y,Y,['space'],Y,,,,,,,m,20,
29,10,445,5,5,9,['d'],['d'],Y,Y,['space'],Y,,,,,,,m,20,
29,11,446,2,2,9,['k'],['k'],Y,Y,['k'],N,,,,,,,m,20,
29,12,447,5,5,9,['k'],['k'],Y,N,None,Y,,,,,,,m,20,
29,13,448,9,9,9,['d'],['d'],Y,N,None,Y,,,,,,,m,20,
29,14,449,1,1,9,['k'],['d'],N,Y,['space'],Y,40,42,24,,,,m,20,
30,0,450,6,6,10,['d'],['d'],Y,,,,,,,,,,m,20,
30,1,451,12,12,10,['d'],['d'],Y,,,,,,,,,,m,20,
30,2,452,3,3,10,['k'],['k'],Y,N,None,Y,,,,,,,m,20,
30,3,453,4,4,10,['k'],['k'],Y,Y,['space'],Y,,,,,,,m,20,
30,4,454,8,8,10,['k'],['k'],Y,N,None,Y,,,,,,,m,20,
30,5,455,1,1,10,['d'],['d'],Y,N,None,Y,,,,,,,m,20,
30,6,456,2,2,10,['k'],['d'],N,N,None,Y,,,,,,,m,20,
30,7,457,3,3,10,['k'],['k'],Y,N,None,Y,,,,,,,m,20,
30,8,458,5,5,10,['d'],['d'],Y,N,None,Y,,,,,,,m,20,
30,9,459,0,0,10,['d'],['d'],Y,N,None,Y,,,,,,,m,20,
30,10,460,3,3,10,['d'],['k'],N,N,None,Y,,,,,,,m,20,
30,11,461,0,0,10,['d'],['d'],Y,Y,['space'],Y,,,,,,,m,20,
30,12,462,0,0,10,['d'],['k'],N,Y,['space'],Y,,,,,,,m,20,
30,13,463,4,4,10,['k'],['d'],N,Y,['space'],Y,,,,,,,m,20,
30,14,464,5,5,10,['d'],['d'],Y,Y,['space'],Y,,,,,,,m,20,
31,0,465,8,8,10,['d'],['k'],N,N,None,Y,,,,,,,m,20,
31,1,466,3,3,10,['k'],['k'],Y,Y,['space'],Y,,,,,,,m,20,
31,2,467,6,6,10,['d'],['d'],Y,Y,['space'],Y,,,,,,,m,20,
31,3,468,13,13,10,['k'],['k'],Y,Y,['space'],Y,,,,,,,m,20,
31,4,469,9,9,10,['d'],['k'],N,Y,['space'],Y,,,,,,,m,20,
31,5,470,7,7,10,['k'],['k'],Y,N,None,Y,,,,,,,m,20,
31,6,471,7,7,10,['k'],['k'],Y,Y,['space'],Y,,,,,,,m,20,
31,7,472,2,2,10,['k'],['k'],Y,Y,['space'],Y,,,,,,,m,20,
31,8,473,8,8,10,['d'],['d'],Y,N,None,Y,,,,,,,m,20,
31,9,474,14,14,10,['k'],['k'],Y,N,None,Y,,,,,,,m,20,
31,10,475,2,2,10,['k'],['k'],Y,Y,['space'],Y,,,,,,,m,20,
31,11,476,6,6,10,['d'],['d'],Y,Y,['space'],Y,,,,,,,m,20,
31,12,477,6,6,10,['k'],['d'],N,N,None,Y,,,,,,,m,20,
31,13,478,12,12,10,['d'],['d'],Y,Y,['space'],Y,,,,,,,m,20,
31,14,479,14,14,10,['d'],['d'],Y,N,None,Y,,,,,,,m,20,
32,0,480,1,1,10,['d'],['d'],Y,Y,['space'],Y,,,,,,,m,20,
32,1,481,6,6,10,['k'],['k'],Y,Y,['space'],Y,,,,,,,m,20,
32,2,482,8,8,10,['d'],['k'],N,N,None,Y,,,,,,,m,20,
32,3,483,14,14,10,['k'],['k'],Y,Y,['space'],Y,,,,,,,m,20,
32,4,484,12,12,10,['k'],['d'],N,Y,['space'],Y,,,,,,,m,20,
32,5,485,13,13,10,['d'],['d'],Y,N,None,Y,,,,,,,m,20,
32,6,486,13,13,10,['k'],['k'],Y,N,None,Y,,,,,,,m,20,
32,7,487,5,5,10,['d'],['d'],Y,N,None,Y,,,,,,,m,20,
32,8,488,13,13,10,['d'],['d'],Y,Y,['space'],Y,,,,,,,m,20,
32,9,489,12,12,10,['k'],['k'],Y,Y,['space'],Y,,,,,,,m,20,
32,10,490,9,9,10,['k'],['k'],Y,N,None,Y,,,,,,,m,20,
32,11,491,11,11,10,['k'],['d'],N,Y,['space'],Y,,,,,,,m,20,
32,12,492,14,14,10,['k'],['k'],Y,Y,['space'],Y,,,,,,,m,20,
32,13,493,14,14,10,['k'],['k'],Y,Y,None,N,,,,,,,m,20,
32,14,494,8,8,10,['k'],['k'],Y,Y,['space'],Y,,,,,,,m,20,
33,0,495,11,11,10,['d'],['d'],Y,Y,['space'],Y,,,,,,,m,20,
33,1,496,1,1,10,['k'],['k'],Y,N,None,Y,,,,,,,m,20,
33,2,497,9,9,10,['k'],['k'],Y,N,['space'],N,,,,,,,m,20,
33,3,498,11,11,10,['d'],['d'],Y,N,None,Y,,,,,,,m,20,
33,4,499,13,13,10,['k'],['k'],Y,N,None,Y,40,46,25,,,,m,20,
33,5,500,2,2,11,['d'],['k'],Y,,,,,,,Y,Y,Y,m,20,
33,6,501,3,3,11,['d'],['k'],Y,,,,,,,,Y,Y,m,20,
33,7,502,11,11,11,['d'],['k'],Y,N,None,Y,,,,,Y,Y,m,20,
33,8,503,8,8,11,['d'],['k'],Y,N,None,Y,,,,,Y,Y,m,20,
33,9,504,0,0,11,['d'],['k'],Y,Y,['space'],Y,,,,,Y,Y,m,20,
33,10,505,0,0,11,['k'],['d'],Y,N,None,Y,,,,,Y,Y,m,20,
33,11,506,4,4,11,['k'],['k'],N,N,None,Y,,,,,Y,Y,m,20,
33,12,507,7,7,11,['k'],['k'],N,N,None,Y,,,,,Y,Y,m,20,
33,13,508,7,7,11,['d'],['k'],Y,Y,['space'],Y,,,,,Y,Y,m,20,
33,14,509,2,2,11,['d'],['d'],N,N,None,Y,,,,,Y,Y,m,20,
34,0,510,14,14,11,None,,Timed out,Y,['space'],Y,,,,,Y,Y,m,20,
34,1,511,4,4,11,['d'],['k'],Y,N,['space'],N,,,,,Y,Y,m,20,
34,2,512,7,7,11,['k'],['k'],N,Y,['space'],Y,,,,,Y,Y,m,20,
34,3,513,13,13,11,['d'],['k'],Y,N,None,Y,,,,,Y,Y,m,20,
34,4,514,1,1,11,['d'],['k'],Y,Y,['space'],Y,,,,,Y,Y,m,20,
34,5,515,7,7,11,['k'],['d'],Y,Y,['space'],Y,,,,,Y,Y,m,20,
34,6,516,6,6,11,['d'],['d'],N,N,None,Y,,,,,Y,Y,m,20,
34,7,517,14,14,11,['d'],['k'],Y,Y,['space'],Y,,,,,Y,Y,m,20,
34,8,518,0,0,11,['d'],['d'],N,N,None,Y,,,,,Y,Y,m,20,
34,9,519,11,11,11,['k'],['k'],N,Y,['space'],Y,,,,,Y,Y,m,20,
34,10,520,3,3,11,['d'],['k'],Y,Y,['space'],Y,,,,,Y,Y,m,20,
34,11,521,10,10,11,['k'],['k'],N,N,None,Y,,,,,Y,Y,m,20,
34,12,522,1,1,11,['k'],['d'],Y,Y,['space'],Y,,,,,Y,Y,m,20,
34,13,523,12,12,11,['d'],['d'],N,N,None,Y,,,,,Y,Y,m,20,
34,14,524,10,10,11,['d'],['d'],N,N,None,Y,,,,,Y,Y,m,20,
35,0,525,4,4,11,['d'],['k'],Y,Y,['space'],Y,,,,,Y,Y,m,20,
35,1,526,5,5,11,['d'],['k'],Y,Y,['space'],Y,,,,,Y,Y,m,20,
35,2,527,10,10,11,['k'],['d'],Y,N,['space'],N,,,,,Y,Y,m,20,
35,3,528,9,9,11,['k'],['d'],Y,Y,['space'],Y,,,,,Y,Y,m,20,
35,4,529,12,12,11,['d'],['k'],Y,Y,['space'],Y,,,,,Y,Y,m,20,
35,5,530,13,13,11,['d'],['d'],N,Y,['space'],Y,,,,,Y,Y,m,20,
35,6,531,11,11,11,['k'],['d'],Y,Y,['space'],Y,,,,,Y,Y,m,20,
35,7,532,11,11,11,['k'],['d'],Y,Y,['space'],Y,,,,,Y,Y,m,20,
35,8,533,12,12,11,['k'],['d'],Y,N,None,Y,,,,,Y,Y,m,20,
35,9,534,10,10,11,['d'],['d'],N,Y,['space'],Y,,,,,Y,Y,m,20,
35,10,535,0,0,11,['k'],['k'],N,Y,['space'],Y,,,,,Y,Y,m,20,
35,11,536,5,5,11,['d'],['d'],N,N,None,Y,,,,,Y,Y,m,20,
35,12,537,11,11,11,['d'],['k'],Y,Y,['space'],Y,,,,,Y,Y,m,20,
35,13,538,8,8,11,['k'],['d'],Y,Y,['space'],Y,,,,,Y,Y,m,20,
35,14,539,10,10,11,['k'],['d'],Y,Y,['space'],Y,,,,,Y,Y,m,20,
36,0,540,9,9,11,['d'],['k'],Y,N,None,Y,,,,,Y,Y,m,20,
36,1,541,6,6,11,['d'],['k'],Y,N,None,Y,,,,,Y,Y,m,20,
36,2,542,2,2,11,['k'],['d'],Y,N,None,Y,,,,,Y,Y,m,20,
36,3,543,5,5,11,['d'],['d'],N,N,None,Y,,,,,Y,Y,m,20,
36,4,544,9,9,11,['k'],['d'],Y,Y,['space'],Y,,,,,Y,Y,m,20,
36,5,545,9,9,11,['k'],['d'],Y,N,['space'],N,,,,,Y,Y,m,20,
36,6,546,12,12,11,['d'],['k'],Y,Y,['space'],Y,,,,,Y,Y,m,20,
36,7,547,5,5,11,['d'],['k'],Y,N,['space'],N,,,,,Y,Y,m,20,
36,8,548,5,5,11,['k'],['d'],Y,N,['space'],N,,,,,Y,Y,m,20,
36,9,549,10,10,11,['k'],['k'],N,Y,['space'],Y,33,43,25,,Y,Y,m,20,
36,10,550,3,3,12,['k'],['d'],Y,,,,,,,,Y,Y,m,20,
36,11,551,8,8,12,['d'],['d'],N,,,,,,,,Y,Y,m,20,
36,12,552,4,4,12,['k'],['k'],N,Y,['space'],Y,,,,,Y,Y,m,20,
36,13,553,9,9,12,['k'],['k'],N,Y,['space'],Y,,,,,Y,Y,m,20,
36,14,554,0,0,12,['d'],['d'],N,Y,['space'],Y,,,,,Y,Y,m,20,
37,0,555,5,5,12,['d'],['d'],N,N,None,Y,,,,,Y,Y,m,20,
37,1,556,14,14,12,['k'],['k'],N,Y,['space'],Y,,,,,Y,Y,m,20,
37,2,557,3,3,12,['k'],['d'],Y,Y,['space'],Y,,,,,Y,Y,m,20,
37,3,558,8,8,12,['k'],['d'],Y,Y,['space'],Y,,,,,Y,Y,m,20,
37,4,559,8,8,12,['k'],['k'],N,N,None,Y,,,,,Y,Y,m,20,
37,5,560,11,11,12,['d'],['k'],Y,Y,['space'],Y,,,,,Y,Y,m,20,
37,6,561,8,8,12,['d'],['k'],Y,N,None,Y,,,,,Y,Y,m,20,
37,7,562,11,11,12,['k'],['d'],Y,Y,['space'],Y,,,,,Y,Y,m,20,
37,8,563,2,2,12,['k'],['d'],Y,Y,['space'],Y,,,,,Y,Y,m,20,
37,9,564,5,5,12,['k'],['k'],N,N,None,Y,,,,,Y,Y,m,20,
37,10,565,11,11,12,['d'],['k'],Y,Y,['space'],Y,,,,,Y,Y,m,20,
37,11,566,4,4,12,['k'],['k'],N,Y,['space'],Y,,,,,Y,Y,m,20,
37,12,567,4,4,12,['k'],['k'],N,Y,['space'],Y,,,,,Y,Y,m,20,
37,13,568,1,1,12,['d'],['k'],Y,Y,['space'],Y,,,,,Y,Y,m,20,
37,14,569,3,3,12,['k'],['d'],Y,Y,['space'],Y,,,,,Y,Y,m,20,
38,0,570,13,13,12,['k'],['k'],N,N,None,Y,,,,,Y,Y,m,20,
38,1,571,7,7,12,['d'],['k'],Y,N,None,Y,,,,,Y,Y,m,20,
38,2,572,0,0,12,['k'],['d'],Y,N,None,Y,,,,,Y,Y,m,20,
38,3,573,3,3,12,['d'],['k'],Y,N,None,Y,,,,,Y,Y,m,20,
38,4,574,2,2,12,['k'],['d'],Y,N,None,Y,,,,,Y,Y,m,20,
38,5,575,4,4,12,['d'],['d'],N,N,None,Y,,,,,Y,Y,m,20,
38,6,576,12,12,12,['k'],['d'],Y,N,None,Y,,,,,Y,Y,m,20,
38,7,577,2,2,12,['k'],['d'],Y,Y,['space'],Y,,,,,Y,Y,m,20,
38,8,578,0,0,12,None,,Timed out,Y,['space'],Y,,,,,Y,Y,m,20,
38,9,579,10,10,12,['k'],['d'],Y,N,['space'],N,,,,,Y,Y,m,20,
38,10,580,12,12,12,['k'],['k'],N,N,None,Y,,,,,Y,Y,m,20,
38,11,581,5,5,12,['k'],['k'],N,N,None,Y,,,,,Y,Y,m,20,
38,12,582,13,13,12,['d'],['k'],Y,N,None,Y,,,,,Y,Y,m,20,
38,13,583,6,6,12,['k'],['k'],N,N,None,Y,,,,,Y,Y,m,20,
38,14,584,4,4,12,['d'],['k'],Y,N,None,Y,,,,,Y,Y,m,20,
39,0,585,7,7,12,['d'],['d'],N,Y,['space'],Y,,,,,Y,Y,m,20,
39,1,586,10,10,12,['k'],['d'],Y,N,None,Y,,,,,Y,Y,m,20,
39,2,587,4,4,12,['k'],['d'],Y,Y,['space'],Y,,,,,Y,Y,m,20,
39,3,588,10,10,12,['d'],['k'],Y,Y,['space'],Y,,,,,Y,Y,m,20,
39,4,589,5,5,12,['d'],['d'],N,Y,None,N,,,,,Y,Y,m,20,
39,5,590,3,3,12,['d'],['k'],Y,Y,None,N,,,,,Y,Y,m,20,
39,6,591,6,6,12,['k'],['k'],N,Y,['space'],Y,,,,,Y,Y,m,20,
39,7,592,4,4,12,['k'],['d'],Y,N,None,Y,,,,,Y,Y,m,20,
39,8,593,12,12,12,['d'],['d'],N,N,None,Y,,,,,Y,Y,m,20,
39,9,594,2,2,12,['k'],['d'],Y,N,None,Y,,,,,Y,Y,m,20,
39,10,595,12,12,12,['d'],['d'],N,N,None,Y,,,,,Y,Y,m,20,
39,11,596,4,4,12,['k'],['k'],N,Y,['space'],Y,,,,,Y,Y,m,20,
39,12,597,10,10,12,['d'],['k'],Y,Y,None,N,,,,,Y,Y,m,20,
39,13,598,2,2,12,['d'],['k'],Y,Y,['space'],Y,,,,,Y,Y,m,20,
39,14,599,4,4,12,['d'],['d'],N,N,None,Y,27,44,25,,Y,Y,m,20,
