.thisRepN,.thisTrialN,.thisN,.thisIndex,.thisTrial,Block Number,Key pressed,Category,Correct?,Int Match?,Int Response,Int Correct?,Line Accuracy,Interference Accuracy,Matching Interferences,New instruction shown?,Buttons switched?,Fast?,gender,age,
0,0,0,6,6,1,['k'],['k'],Y,,,,,,,,,,M,20,
0,1,1,5,5,1,['d'],['d'],Y,,,,,,,,,,M,20,
0,2,2,11,11,1,['k'],['k'],Y,Y,['space'],Y,,,,,,,M,20,
0,3,3,12,12,1,['d'],['d'],Y,N,None,Y,,,,,,,M,20,
0,4,4,6,6,1,['d'],['d'],Y,N,None,Y,,,,,,,M,20,
0,5,5,4,4,1,['k'],['k'],Y,Y,None,N,,,,,,,M,20,
0,6,6,14,14,1,['d'],['d'],Y,Y,None,N,,,,,,,M,20,
0,7,7,1,1,1,['d'],['d'],Y,Y,['space'],Y,,,,,,,M,20,
0,8,8,3,3,1,['d'],['k'],N,Y,None,N,,,,,,,M,20,
0,9,9,6,6,1,['k'],['k'],Y,N,None,Y,,,,,,,M,20,
0,10,10,10,10,1,['d'],['d'],Y,Y,None,N,,,,,,,M,20,
0,11,11,3,3,1,['d'],['d'],Y,N,None,Y,,,,,,,M,20,
0,12,12,0,0,1,['k'],['k'],Y,N,None,Y,,,,,,,M,20,
0,13,13,4,4,1,['k'],['k'],Y,N,None,Y,,,,,,,M,20,
0,14,14,7,7,1,['k'],['k'],Y,Y,None,N,,,,,,,M,20,
1,0,15,11,11,1,['d'],['d'],Y,N,None,Y,,,,,,,M,20,
1,1,16,3,3,1,['k'],['d'],N,N,['space'],N,,,,,,,M,20,
1,2,17,10,10,1,['d'],['d'],Y,Y,None,N,,,,,,,M,20,
1,3,18,4,4,1,['k'],['k'],Y,Y,None,N,,,,,,,M,20,
1,4,19,5,5,1,['d'],['d'],Y,N,['space'],N,,,,,,,M,20,
1,5,20,9,9,1,['d'],['d'],Y,Y,['space'],Y,,,,,,,M,20,
1,6,21,14,14,1,['k'],['d'],N,N,['space'],N,,,,,,,M,20,
1,7,22,6,6,1,['d'],['d'],Y,N,None,Y,,,,,,,M,20,
1,8,23,6,6,1,['d'],['d'],Y,N,['space'],N,,,,,,,M,20,
1,9,24,4,4,1,['k'],['k'],Y,Y,['space'],Y,,,,,,,M,20,
1,10,25,0,0,1,['d'],['d'],Y,N,['space'],N,,,,,,,M,20,
1,11,26,2,2,1,['d'],['k'],N,N,None,Y,,,,,,,M,20,
1,12,27,13,13,1,['k'],['k'],Y,N,None,Y,,,,,,,M,20,
1,13,28,5,5,1,['k'],['k'],Y,N,['space'],N,,,,,,,M,20,
1,14,29,10,10,1,['d'],['d'],Y,Y,None,N,,,,,,,M,20,
2,0,30,13,13,1,['d'],['k'],N,Y,['space'],Y,,,,,,,M,20,
2,1,31,9,9,1,['k'],['k'],Y,Y,['space'],Y,,,,,,,M,20,
2,2,32,11,11,1,['k'],['d'],N,Y,['space'],Y,,,,,,,M,20,
2,3,33,6,6,1,['k'],['d'],N,Y,None,N,,,,,,,M,20,
2,4,34,8,8,1,['d'],['d'],Y,Y,['space'],Y,,,,,,,M,20,
2,5,35,14,14,1,['d'],['d'],Y,N,None,Y,,,,,,,M,20,
2,6,36,5,5,1,['k'],['k'],Y,N,['space'],N,,,,,,,M,20,
2,7,37,0,0,1,['k'],['d'],N,Y,None,N,,,,,,,M,20,
2,8,38,2,2,1,['d'],['d'],Y,Y,None,N,,,,,,,M,20,
2,9,39,14,14,1,['k'],['k'],Y,Y,None,N,,,,,,,M,20,
2,10,40,7,7,1,['k'],['d'],N,N,None,Y,,,,,,,M,20,
2,11,41,9,9,1,['d'],['d'],Y,N,None,Y,,,,,,,M,20,
2,12,42,12,12,1,['d'],['d'],Y,Y,['space'],Y,,,,,,,M,20,
2,13,43,2,2,1,['d'],['d'],Y,Y,None,N,,,,,,,M,20,
2,14,44,2,2,1,['d'],['k'],N,Y,['space'],Y,,,,,,,M,20,
3,0,45,7,7,1,['k'],['k'],Y,Y,None,N,,,,,,,M,20,
3,1,46,6,6,1,['d'],['d'],Y,Y,['space'],Y,,,,,,,M,20,
3,2,47,10,10,1,['k'],['k'],Y,N,None,Y,,,,,,,M,20,
3,3,48,12,12,1,['k'],['k'],Y,N,['space'],N,,,,,,,M,20,
3,4,49,9,9,1,['d'],['d'],Y,N,None,Y,40,26,25,,,,M,20,
3,5,50,3,3,2,['d'],['k'],N,,,,,,,,,,M,20,
3,6,51,6,6,2,['k'],['k'],Y,,,,,,,,,,M,20,
3,7,52,1,1,2,['k'],['k'],Y,N,None,Y,,,,,,,M,20,
3,8,53,0,0,2,['d'],['d'],Y,Y,None,N,,,,,,,M,20,
3,9,54,10,10,2,['k'],['k'],Y,N,None,Y,,,,,,,M,20,
3,10,55,5,5,2,['k'],['k'],Y,N,None,Y,,,,,,,M,20,
3,11,56,11,11,2,['k'],['d'],N,N,None,Y,,,,,,,M,20,
3,12,57,7,7,2,['d'],['d'],Y,N,None,Y,,,,,,,M,20,
3,13,58,2,2,2,['k'],['k'],Y,Y,None,N,,,,,,,M,20,
3,14,59,14,14,2,['k'],['k'],Y,N,None,Y,,,,,,,M,20,
4,0,60,6,6,2,['d'],['d'],Y,N,['space'],N,,,,,,,M,20,
4,1,61,12,12,2,['d'],['d'],Y,N,None,Y,,,,,,,M,20,
4,2,62,9,9,2,['d'],['d'],Y,N,None,Y,,,,,,,M,20,
4,3,63,8,8,2,['k'],['k'],Y,Y,['space'],Y,,,,,,,M,20,
4,4,64,11,11,2,['d'],['d'],Y,Y,['space'],Y,,,,,,,M,20,
4,5,65,3,3,2,['d'],['d'],Y,N,['space'],N,,,,,,,M,20,
4,6,66,3,3,2,['k'],['k'],Y,Y,['space'],Y,,,,,,,M,20,
4,7,67,5,5,2,['k'],['k'],Y,Y,['space'],Y,,,,,,,M,20,
4,8,68,13,13,2,['k'],['k'],Y,N,None,Y,,,,,,,M,20,
4,9,69,11,11,2,['k'],['k'],Y,Y,None,N,,,,,,,M,20,
4,10,70,1,1,2,['k'],['d'],N,Y,['space'],Y,,,,,,,M,20,
4,11,71,5,5,2,['k'],['k'],Y,Y,None,N,,,,,,,M,20,
4,12,72,13,13,2,['k'],['k'],Y,Y,None,N,,,,,,,M,20,
4,13,73,14,14,2,['d'],['d'],Y,N,None,Y,,,,,,,M,20,
4,14,74,1,1,2,['k'],['k'],Y,N,None,Y,,,,,,,M,20,
5,0,75,10,10,2,['k'],['d'],N,N,['space'],N,,,,,,,M,20,
5,1,76,6,6,2,['k'],['k'],Y,N,None,Y,,,,,,,M,20,
5,2,77,8,8,2,['k'],['k'],Y,N,None,Y,,,,,,,M,20,
5,3,78,12,12,2,['k'],['k'],Y,N,None,Y,,,,,,,M,20,
5,4,79,9,9,2,['k'],['d'],N,Y,['d'],N,,,,,,,M,20,
5,5,80,13,13,2,['k'],['k'],Y,N,None,Y,,,,,,,M,20,
5,6,81,4,4,2,['k'],['k'],Y,N,None,Y,,,,,,,M,20,
5,7,82,6,6,2,['d'],['d'],Y,N,None,Y,,,,,,,M,20,
5,8,83,0,0,2,['k'],['k'],Y,N,None,Y,,,,,,,M,20,
5,9,84,2,2,2,['k'],['d'],N,Y,['space'],Y,,,,,,,M,20,
5,10,85,3,3,2,['k'],['d'],N,Y,None,N,,,,,,,M,20,
5,11,86,6,6,2,['d'],['k'],N,Y,None,N,,,,,,,M,20,
5,12,87,9,9,2,['d'],['d'],Y,N,None,Y,,,,,,,M,20,
5,13,88,1,1,2,['k'],['d'],N,N,None,Y,,,,,,,M,20,
5,14,89,3,3,2,['k'],['k'],Y,Y,['space'],Y,,,,,,,M,20,
6,0,90,0,0,2,['d'],['d'],Y,N,None,Y,,,,,,,M,20,
6,1,91,2,2,2,['k'],['k'],Y,N,None,Y,,,,,,,M,20,
6,2,92,14,14,2,['d'],['d'],Y,Y,['space'],Y,,,,,,,M,20,
6,3,93,1,1,2,['k'],['k'],Y,N,None,Y,,,,,,,M,20,
6,4,94,13,13,2,['d'],['d'],Y,N,None,Y,,,,,,,M,20,
6,5,95,9,9,2,['k'],['k'],Y,N,None,Y,,,,,,,M,20,
6,6,96,12,12,2,['k'],['d'],N,Y,None,N,,,,,,,M,20,
6,7,97,7,7,2,['d'],['d'],Y,Y,['space'],Y,,,,,,,M,20,
6,8,98,14,14,2,['k'],['k'],Y,Y,['space'],Y,,,,,,,M,20,
6,9,99,13,13,2,['d'],['d'],Y,Y,['space'],Y,40,36,20,,,,M,20,
6,10,100,2,2,3,['k'],['k'],Y,,,,,,,,,,M,20,
6,11,101,14,14,3,['d'],['d'],Y,,,,,,,,,,M,20,
6,12,102,9,9,3,['k'],['d'],N,N,None,Y,,,,,,,M,20,
6,13,103,12,12,3,['k'],['k'],Y,N,None,Y,,,,,,,M,20,
6,14,104,10,10,3,['k'],['k'],Y,Y,['space'],Y,,,,,,,M,20,
7,0,105,7,7,3,['d'],['d'],Y,N,None,Y,,,,,,,M,20,
7,1,106,7,7,3,['k'],['k'],Y,Y,None,N,,,,,,,M,20,
7,2,107,8,8,3,['k'],['k'],Y,N,None,Y,,,,,,,M,20,
7,3,108,4,4,3,['d'],['d'],Y,N,None,Y,,,,,,,M,20,
7,4,109,0,0,3,['d'],['d'],Y,Y,['d'],N,,,,,,,M,20,
7,5,110,5,5,3,['d'],['d'],Y,Y,None,N,,,,,,,M,20,
7,6,111,1,1,3,['d'],['d'],Y,N,None,Y,,,,,,,M,20,
7,7,112,3,3,3,['d'],['d'],Y,Y,['space'],Y,,,,,,,M,20,
7,8,113,10,10,3,['k'],['k'],Y,N,None,Y,,,,,,,M,20,
7,9,114,14,14,3,['d'],['k'],N,N,None,Y,,,,,,,M,20,
7,10,115,3,3,3,['d'],['k'],N,Y,None,N,,,,,,,M,20,
7,11,116,13,13,3,['k'],['k'],Y,N,None,Y,,,,,,,M,20,
7,12,117,11,11,3,['d'],['k'],N,N,None,Y,,,,,,,M,20,
7,13,118,2,2,3,['k'],['d'],N,Y,['space'],Y,,,,,,,M,20,
7,14,119,10,10,3,['k'],['k'],Y,N,['space'],N,,,,,,,M,20,
8,0,120,14,14,3,['k'],['d'],N,Y,None,N,,,,,,,M,20,
8,1,121,8,8,3,['k'],['k'],Y,Y,None,N,,,,,,,M,20,
8,2,122,9,9,3,['k'],['k'],Y,N,None,Y,,,,,,,M,20,
8,3,123,9,9,3,['k'],['k'],Y,N,['space'],N,,,,,,,M,20,
8,4,124,1,1,3,['k'],['k'],Y,N,None,Y,,,,,,,M,20,
8,5,125,3,3,3,['k'],['d'],N,Y,['space'],Y,,,,,,,M,20,
8,6,126,9,9,3,['k'],['d'],N,N,None,Y,,,,,,,M,20,
8,7,127,0,0,3,['d'],['d'],Y,Y,['space'],Y,,,,,,,M,20,
8,8,128,4,4,3,['k'],['k'],Y,Y,['space'],Y,,,,,,,M,20,
8,9,129,13,13,3,['d'],['d'],Y,N,None,Y,,,,,,,M,20,
8,10,130,13,13,3,['d'],['k'],N,Y,None,N,,,,,,,M,20,
8,11,131,8,8,3,['d'],['d'],Y,N,None,Y,,,,,,,M,20,
8,12,132,4,4,3,['k'],['k'],Y,N,None,Y,,,,,,,M,20,
8,13,133,3,3,3,['k'],['k'],Y,N,None,Y,,,,,,,M,20,
8,14,134,4,4,3,['k'],['k'],Y,N,None,Y,,,,,,,M,20,
9,0,135,8,8,3,['k'],['k'],Y,Y,['space'],Y,,,,,,,M,20,
9,1,136,8,8,3,['d'],['d'],Y,Y,['space'],Y,,,,,,,M,20,
9,2,137,8,8,3,['k'],['k'],Y,N,None,Y,,,,,,,M,20,
9,3,138,3,3,3,['k'],['k'],Y,Y,None,N,,,,,,,M,20,
9,4,139,4,4,3,['k'],['k'],Y,Y,None,N,,,,,,,M,20,
9,5,140,10,10,3,['k'],['d'],N,Y,None,N,,,,,,,M,20,
9,6,141,12,12,3,['k'],['k'],Y,N,None,Y,,,,,,,M,20,
9,7,142,5,5,3,['k'],['k'],Y,Y,None,N,,,,,,,M,20,
9,8,143,14,14,3,['k'],['k'],Y,Y,['space'],Y,,,,,,,M,20,
9,9,144,13,13,3,['k'],['d'],N,Y,None,N,,,,,,,M,20,
9,10,145,14,14,3,['k'],['d'],N,N,None,Y,,,,,,,M,20,
9,11,146,13,13,3,['k'],['d'],N,N,None,Y,,,,,,,M,20,
9,12,147,3,3,3,['k'],['d'],N,N,None,Y,,,,,,,M,20,
9,13,148,1,1,3,['d'],['k'],N,Y,None,N,,,,,,,M,20,
9,14,149,11,11,3,['k'],['k'],Y,Y,None,N,35,32,23,,,,M,20,
10,0,150,3,3,4,['k'],['k'],Y,,,,,,,,,,M,20,
10,1,151,2,2,4,['k'],['k'],Y,,,,,,,,,,M,20,
10,2,152,12,12,4,['d'],['d'],Y,N,None,Y,,,,,,,M,20,
10,3,153,13,13,4,['k'],['k'],Y,Y,['space'],Y,,,,,,,M,20,
10,4,154,14,14,4,['d'],['d'],Y,Y,['space'],Y,,,,,,,M,20,
10,5,155,13,13,4,['k'],['k'],Y,Y,['space'],Y,,,,,,,M,20,
10,6,156,6,6,4,['k'],['k'],Y,Y,['space'],Y,,,,,,,M,20,
10,7,157,9,9,4,['k'],['k'],Y,N,None,Y,,,,,,,M,20,
10,8,158,2,2,4,['k'],['d'],N,N,None,Y,,,,,,,M,20,
10,9,159,4,4,4,['k'],['d'],N,N,None,Y,,,,,,,M,20,
10,10,160,11,11,4,['k'],['k'],Y,Y,['space'],Y,,,,,,,M,20,
10,11,161,7,7,4,['d'],['d'],Y,N,None,Y,,,,,,,M,20,
10,12,162,3,3,4,['k'],['k'],Y,Y,['space'],Y,,,,,,,M,20,
10,13,163,4,4,4,['d'],['d'],Y,N,None,Y,,,,,,,M,20,
10,14,164,12,12,4,['d'],['d'],Y,N,None,Y,,,,,,,M,20,
11,0,165,12,12,4,['k'],['k'],Y,N,['space'],N,,,,,,,M,20,
11,1,166,2,2,4,['k'],['k'],Y,Y,['space'],Y,,,,,,,M,20,
11,2,167,9,9,4,['k'],['d'],N,N,None,Y,,,,,,,M,20,
11,3,168,6,6,4,['k'],['k'],Y,N,None,Y,,,,,,,M,20,
11,4,169,1,1,4,['k'],['k'],Y,N,None,Y,,,,,,,M,20,
11,5,170,12,12,4,['k'],['d'],N,Y,None,N,,,,,,,M,20,
11,6,171,14,14,4,['d'],['d'],Y,Y,['space'],Y,,,,,,,M,20,
11,7,172,13,13,4,['k'],['k'],Y,Y,['space'],Y,,,,,,,M,20,
11,8,173,3,3,4,['k'],['k'],Y,N,None,Y,,,,,,,M,20,
11,9,174,10,10,4,['k'],['k'],Y,N,None,Y,,,,,,,M,20,
11,10,175,12,12,4,['k'],['k'],Y,Y,['space'],Y,,,,,,,M,20,
11,11,176,6,6,4,['k'],['d'],N,Y,['space'],Y,,,,,,,M,20,
11,12,177,7,7,4,['k'],['k'],Y,Y,['space'],Y,,,,,,,M,20,
11,13,178,14,14,4,['k'],['k'],Y,N,['space'],N,,,,,,,M,20,
11,14,179,6,6,4,['k'],['d'],N,Y,['space'],Y,,,,,,,M,20,
12,0,180,11,11,4,['d'],['d'],Y,Y,['space'],Y,,,,,,,M,20,
12,1,181,11,11,4,['k'],['d'],N,N,None,Y,,,,,,,M,20,
12,2,182,8,8,4,['k'],['k'],Y,Y,['space'],Y,,,,,,,M,20,
12,3,183,10,10,4,['k'],['k'],Y,N,None,Y,,,,,,,M,20,
12,4,184,9,9,4,['k'],['k'],Y,N,None,Y,,,,,,,M,20,
12,5,185,7,7,4,['d'],['d'],Y,N,None,Y,,,,,,,M,20,
12,6,186,6,6,4,['d'],['d'],Y,Y,['space'],Y,,,,,,,M,20,
12,7,187,1,1,4,['d'],['d'],Y,Y,['space'],Y,,,,,,,M,20,
12,8,188,8,8,4,['d'],['d'],Y,N,None,Y,,,,,,,M,20,
12,9,189,5,5,4,['k'],['k'],Y,Y,['space'],Y,,,,,,,M,20,
12,10,190,4,4,4,['k'],['k'],Y,Y,None,N,,,,,,,M,20,
12,11,191,0,0,4,['k'],['k'],Y,Y,['space'],Y,,,,,,,M,20,
12,12,192,6,6,4,['k'],['k'],Y,Y,['space'],Y,,,,,,,M,20,
12,13,193,12,12,4,['k'],['k'],Y,N,None,Y,,,,,,,M,20,
12,14,194,2,2,4,['k'],['k'],Y,N,None,Y,,,,,,,M,20,
13,0,195,12,12,4,['k'],['d'],N,N,None,Y,,,,,,,M,20,
13,1,196,3,3,4,['k'],['k'],Y,Y,None,N,,,,,,,M,20,
13,2,197,2,2,4,['k'],['k'],Y,N,['space'],N,,,,,,,M,20,
13,3,198,6,6,4,['k'],['k'],Y,N,None,Y,,,,,,,M,20,
13,4,199,9,9,4,['d'],['d'],Y,Y,['space'],Y,42,42,24,,,,M,20,
13,5,200,6,6,5,['k'],['k'],Y,,,,,,,,,,M,20,
13,6,201,7,7,5,['d'],['d'],Y,,,,,,,,,,M,20,
13,7,202,5,5,5,['d'],['d'],Y,N,None,Y,,,,,,,M,20,
13,8,203,10,10,5,['k'],['k'],Y,N,None,Y,,,,,,,M,20,
13,9,204,0,0,5,['d'],['k'],N,Y,['space'],Y,,,,,,,M,20,
13,10,205,4,4,5,['k'],['k'],Y,Y,['space'],Y,,,,,,,M,20,
13,11,206,13,13,5,['k'],['d'],N,Y,['space'],Y,,,,,,,M,20,
13,12,207,6,6,5,['k'],['d'],N,N,None,Y,,,,,,,M,20,
13,13,208,12,12,5,['k'],['d'],N,N,None,Y,,,,,,,M,20,
13,14,209,3,3,5,['d'],['d'],Y,N,None,Y,,,,,,,M,20,
14,0,210,3,3,5,['k'],['k'],Y,Y,['space'],Y,,,,,,,M,20,
14,1,211,3,3,5,['d'],['d'],Y,N,None,Y,,,,,,,M,20,
14,2,212,11,11,5,['d'],['d'],Y,N,None,Y,,,,,,,M,20,
14,3,213,6,6,5,['d'],['d'],Y,N,None,Y,,,,,,,M,20,
14,4,214,10,10,5,['d'],['d'],Y,Y,['space'],Y,,,,,,,M,20,
14,5,215,9,9,5,['d'],['k'],N,N,None,Y,,,,,,,M,20,
14,6,216,2,2,5,['k'],['k'],Y,Y,None,N,,,,,,,M,20,
14,7,217,10,10,5,['d'],['d'],Y,N,None,Y,,,,,,,M,20,
14,8,218,5,5,5,['d'],['d'],Y,N,None,Y,,,,,,,M,20,
14,9,219,11,11,5,['k'],['k'],Y,Y,['space'],Y,,,,,,,M,20,
14,10,220,13,13,5,['k'],['k'],Y,N,None,Y,,,,,,,M,20,
14,11,221,9,9,5,['d'],['d'],Y,Y,['space'],Y,,,,,,,M,20,
14,12,222,11,11,5,['k'],['d'],N,N,None,Y,,,,,,,M,20,
14,13,223,10,10,5,['k'],['d'],N,Y,['space'],Y,,,,,,,M,20,
14,14,224,10,10,5,['d'],['k'],N,N,['space'],N,,,,,,,M,20,
15,0,225,6,6,5,['d'],['d'],Y,Y,['space'],Y,,,,,,,M,20,
15,1,226,1,1,5,['k'],['k'],Y,Y,None,N,,,,,,,M,20,
15,2,227,0,0,5,['d'],['d'],Y,N,None,Y,,,,,,,M,20,
15,3,228,3,3,5,['k'],['d'],N,Y,['space'],Y,,,,,,,M,20,
15,4,229,4,4,5,['k'],['k'],Y,Y,['space'],Y,,,,,,,M,20,
15,5,230,2,2,5,['d'],['d'],Y,Y,['space'],Y,,,,,,,M,20,
15,6,231,8,8,5,['k'],['k'],Y,Y,['space'],Y,,,,,,,M,20,
15,7,232,1,1,5,['d'],['d'],Y,Y,['space'],Y,,,,,,,M,20,
15,8,233,5,5,5,['k'],['k'],Y,N,None,Y,,,,,,,M,20,
15,9,234,1,1,5,['k'],['k'],Y,Y,['space'],Y,,,,,,,M,20,
15,10,235,5,5,5,['d'],['d'],Y,N,None,Y,,,,,,,M,20,
15,11,236,4,4,5,['d'],['d'],Y,N,None,Y,,,,,,,M,20,
15,12,237,4,4,5,['k'],['k'],Y,Y,None,N,,,,,,,M,20,
15,13,238,7,7,5,['d'],['d'],Y,N,None,Y,,,,,,,M,20,
15,14,239,2,2,5,['d'],['d'],Y,Y,None,N,,,,,,,M,20,
16,0,240,4,4,5,['d'],['d'],Y,N,None,Y,,,,,,,M,20,
16,1,241,11,11,5,['d'],['k'],N,Y,None,N,,,,,,,M,20,
16,2,242,2,2,5,['d'],['d'],Y,N,None,Y,,,,,,,M,20,
16,3,243,0,0,5,['k'],['k'],Y,N,None,Y,,,,,,,M,20,
16,4,244,12,12,5,['k'],['k'],Y,N,None,Y,,,,,,,M,20,
16,5,245,5,5,5,['d'],['d'],Y,Y,None,N,,,,,,,M,20,
16,6,246,5,5,5,['k'],['k'],Y,Y,['space'],Y,,,,,,,M,20,
16,7,247,9,9,5,['k'],['k'],Y,Y,['space'],Y,,,,,,,M,20,
16,8,248,12,12,5,['k'],['k'],Y,Y,['space'],Y,,,,,,,M,20,
16,9,249,11,11,5,['k'],['k'],Y,N,None,Y,40,41,24,,,,M,20,
16,10,250,5,5,6,['d'],['d'],Y,,,,,,,,,,M,20,
16,11,251,8,8,6,['k'],['k'],Y,,,,,,,,,,M,20,
16,12,252,2,2,6,['d'],['d'],Y,Y,['space'],Y,,,,,,,M,20,
16,13,253,5,5,6,['k'],['k'],Y,Y,['space'],Y,,,,,,,M,20,
16,14,254,9,9,6,['k'],['k'],Y,Y,['space'],Y,,,,,,,M,20,
17,0,255,11,11,6,['d'],['d'],Y,N,None,Y,,,,,,,M,20,
17,1,256,6,6,6,['d'],['k'],N,Y,['space'],Y,,,,,,,M,20,
17,2,257,8,8,6,['d'],['d'],Y,N,None,Y,,,,,,,M,20,
17,3,258,1,1,6,['k'],['k'],Y,N,None,Y,,,,,,,M,20,
17,4,259,12,12,6,['k'],['k'],Y,N,None,Y,,,,,,,M,20,
17,5,260,5,5,6,['k'],['k'],Y,Y,['space'],Y,,,,,,,M,20,
17,6,261,4,4,6,['d'],['d'],Y,N,None,Y,,,,,,,M,20,
17,7,262,1,1,6,['k'],['k'],Y,N,None,Y,,,,,,,M,20,
17,8,263,8,8,6,['k'],['k'],Y,N,None,Y,,,,,,,M,20,
17,9,264,4,4,6,['k'],['k'],Y,N,['space'],N,,,,,,,M,20,
17,10,265,13,13,6,['d'],['d'],Y,N,None,Y,,,,,,,M,20,
17,11,266,10,10,6,['k'],['k'],Y,Y,['space'],Y,,,,,,,M,20,
17,12,267,10,10,6,['k'],['k'],Y,Y,['space'],Y,,,,,,,M,20,
17,13,268,2,2,6,['k'],['d'],N,N,None,Y,,,,,,,M,20,
17,14,269,14,14,6,['k'],['k'],Y,Y,['space'],Y,,,,,,,M,20,
18,0,270,1,1,6,['k'],['d'],N,N,None,Y,,,,,,,M,20,
18,1,271,1,1,6,['k'],['d'],N,N,['space'],N,,,,,,,M,20,
18,2,272,0,0,6,['k'],['k'],Y,Y,['space'],Y,,,,,,,M,20,
18,3,273,1,1,6,['d'],['d'],Y,N,None,Y,,,,,,,M,20,
18,4,274,3,3,6,['d'],['d'],Y,Y,['space'],Y,,,,,,,M,20,
18,5,275,4,4,6,['k'],['k'],Y,Y,['space'],Y,,,,,,,M,20,
18,6,276,6,6,6,['d'],['d'],Y,Y,['space'],Y,,,,,,,M,20,
18,7,277,5,5,6,['d'],['d'],Y,Y,['space'],Y,,,,,,,M,20,
18,8,278,8,8,6,['d'],['d'],Y,Y,['space'],Y,,,,,,,M,20,
18,9,279,2,2,6,['k'],['k'],Y,N,['space'],N,,,,,,,M,20,
18,10,280,5,5,6,['d'],['k'],N,Y,['space'],Y,,,,,,,M,20,
18,11,281,13,13,6,['d'],['d'],Y,Y,['space'],Y,,,,,,,M,20,
18,12,282,0,0,6,['k'],['k'],Y,Y,['space'],Y,,,,,,,M,20,
18,13,283,8,8,6,['k'],['k'],Y,Y,['space'],Y,,,,,,,M,20,
18,14,284,12,12,6,['k'],['k'],Y,N,None,Y,,,,,,,M,20,
19,0,285,0,0,6,['d'],['d'],Y,Y,['space'],Y,,,,,,,M,20,
19,1,286,0,0,6,['k'],['k'],Y,Y,['space'],Y,,,,,,,M,20,
19,2,287,10,10,6,['d'],['d'],Y,Y,['space'],Y,,,,,,,M,20,
19,3,288,12,12,6,['d'],['d'],Y,N,None,Y,,,,,,,M,20,
19,4,289,5,5,6,['d'],['d'],Y,N,None,Y,,,,,,,M,20,
19,5,290,2,2,6,['d'],['d'],Y,N,['space'],N,,,,,,,M,20,
19,6,291,11,11,6,['d'],['d'],Y,N,None,Y,,,,,,,M,20,
19,7,292,0,0,6,['k'],['k'],Y,Y,['space'],Y,,,,,,,M,20,
19,8,293,2,2,6,['k'],['k'],Y,Y,['space'],Y,,,,,,,M,20,
19,9,294,0,0,6,['d'],['d'],Y,Y,['space'],Y,,,,,,,M,20,
19,10,295,2,2,6,['d'],['d'],Y,Y,['space'],Y,,,,,,,M,20,
19,11,296,2,2,6,['k'],['k'],Y,N,['space'],N,,,,,,,M,20,
19,12,297,8,8,6,['d'],['d'],Y,N,None,Y,,,,,,,M,20,
19,13,298,11,11,6,['k'],['k'],Y,N,None,Y,,,,,,,M,20,
19,14,299,0,0,6,['d'],['d'],Y,N,None,Y,45,43,25,,,,M,20,
20,0,300,14,14,7,['k'],['k'],Y,,,,,,,,,,M,20,
20,1,301,5,5,7,['k'],['d'],N,,,,,,,,,,M,20,
20,2,302,3,3,7,['k'],['k'],Y,N,None,Y,,,,,,,M,20,
20,3,303,13,13,7,['k'],['k'],Y,N,None,Y,,,,,,,M,20,
20,4,304,14,14,7,['k'],['k'],Y,N,None,Y,,,,,,,M,20,
20,5,305,3,3,7,['k'],['d'],N,N,None,Y,,,,,,,M,20,
20,6,306,10,10,7,['k'],['d'],N,N,None,Y,,,,,,,M,20,
20,7,307,2,2,7,['k'],['k'],Y,N,None,Y,,,,,,,M,20,
20,8,308,12,12,7,['k'],['k'],Y,N,None,Y,,,,,,,M,20,
20,9,309,8,8,7,['k'],['k'],Y,Y,['space'],Y,,,,,,,M,20,
20,10,310,1,1,7,['k'],['k'],Y,Y,['space'],Y,,,,,,,M,20,
20,11,311,3,3,7,['k'],['d'],N,Y,['space'],Y,,,,,,,M,20,
20,12,312,4,4,7,['k'],['k'],Y,N,None,Y,,,,,,,M,20,
20,13,313,1,1,7,['d'],['d'],Y,N,None,Y,,,,,,,M,20,
20,14,314,8,8,7,['k'],['k'],Y,N,None,Y,,,,,,,M,20,
21,0,315,0,0,7,['k'],['k'],Y,Y,['space'],Y,,,,,,,M,20,
21,1,316,1,1,7,['d'],['d'],Y,Y,['space'],Y,,,,,,,M,20,
21,2,317,8,8,7,['k'],['k'],Y,N,['space'],N,,,,,,,M,20,
21,3,318,14,14,7,['d'],['k'],N,N,None,Y,,,,,,,M,20,
21,4,319,10,10,7,['d'],['d'],Y,Y,['space'],Y,,,,,,,M,20,
21,5,320,1,1,7,['k'],['d'],N,Y,['space'],Y,,,,,,,M,20,
21,6,321,9,9,7,['k'],['k'],Y,Y,['space'],Y,,,,,,,M,20,
21,7,322,11,11,7,['k'],['k'],Y,N,None,Y,,,,,,,M,20,
21,8,323,2,2,7,['k'],['d'],N,Y,['space'],Y,,,,,,,M,20,
21,9,324,13,13,7,['d'],['d'],Y,Y,None,N,,,,,,,M,20,
21,10,325,1,1,7,['k'],['k'],Y,Y,['space'],Y,,,,,,,M,20,
21,11,326,10,10,7,['k'],['k'],Y,N,None,Y,,,,,,,M,20,
21,12,327,11,11,7,['d'],['d'],Y,N,None,Y,,,,,,,M,20,
21,13,328,8,8,7,['k'],['d'],N,N,None,Y,,,,,,,M,20,
21,14,329,2,2,7,['k'],['k'],Y,N,None,Y,,,,,,,M,20,
22,0,330,3,3,7,['k'],['k'],Y,Y,['space'],Y,,,,,,,M,20,
22,1,331,7,7,7,['d'],['d'],Y,Y,['space'],Y,,,,,,,M,20,
22,2,332,3,3,7,['k'],['k'],Y,Y,['space'],Y,,,,,,,M,20,
22,3,333,6,6,7,['d'],['d'],Y,Y,['space'],Y,,,,,,,M,20,
22,4,334,14,14,7,['d'],['d'],Y,N,None,Y,,,,,,,M,20,
22,5,335,4,4,7,['k'],['k'],Y,N,None,Y,,,,,,,M,20,
22,6,336,8,8,7,['d'],['d'],Y,N,None,Y,,,,,,,M,20,
22,7,337,9,9,7,['k'],['k'],Y,Y,['space'],Y,,,,,,,M,20,
22,8,338,12,12,7,['d'],['d'],Y,N,None,Y,,,,,,,M,20,
22,9,339,14,14,7,['d'],['d'],Y,Y,['space'],Y,,,,,,,M,20,
22,10,340,9,9,7,['d'],['d'],Y,N,None,Y,,,,,,,M,20,
22,11,341,9,9,7,['d'],['d'],Y,N,None,Y,,,,,,,M,20,
22,12,342,3,3,7,['d'],['d'],Y,Y,['space'],Y,,,,,,,M,20,
22,13,343,7,7,7,['k'],['k'],Y,Y,['space'],Y,,,,,,,M,20,
22,14,344,11,11,7,['k'],['k'],Y,Y,['space'],Y,,,,,,,M,20,
23,0,345,12,12,7,['d'],['d'],Y,Y,['space'],Y,,,,,,,M,20,
23,1,346,12,12,7,['k'],['k'],Y,N,None,Y,,,,,,,M,20,
23,2,347,0,0,7,['d'],['d'],Y,Y,['space'],Y,,,,,,,M,20,
23,3,348,5,5,7,['d'],['d'],Y,N,None,Y,,,,,,,M,20,
23,4,349,3,3,7,['k'],['k'],Y,N,None,Y,42,46,22,,,,M,20,
23,5,350,12,12,8,['k'],['k'],Y,,,,,,,,,,M,20,
23,6,351,3,3,8,['d'],['d'],Y,,,,,,,,,,M,20,
23,7,352,4,4,8,['k'],['k'],Y,N,None,Y,,,,,,,M,20,
23,8,353,9,9,8,['k'],['k'],Y,Y,['space'],Y,,,,,,,M,20,
23,9,354,2,2,8,['d'],['d'],Y,N,None,Y,,,,,,,M,20,
23,10,355,6,6,8,['k'],['k'],Y,Y,['space'],Y,,,,,,,M,20,
23,11,356,5,5,8,['k'],['d'],N,N,None,Y,,,,,,,M,20,
23,12,357,6,6,8,['k'],['d'],N,Y,['space'],Y,,,,,,,M,20,
23,13,358,12,12,8,['k'],['k'],Y,Y,['space'],Y,,,,,,,M,20,
23,14,359,0,0,8,['k'],['k'],Y,Y,['space'],Y,,,,,,,M,20,
24,0,360,9,9,8,['k'],['k'],Y,Y,['space'],Y,,,,,,,M,20,
24,1,361,1,1,8,['d'],['d'],Y,Y,['space'],Y,,,,,,,M,20,
24,2,362,1,1,8,['k'],['d'],N,Y,['space'],Y,,,,,,,M,20,
24,3,363,9,9,8,['d'],['d'],Y,Y,['space'],Y,,,,,,,M,20,
24,4,364,11,11,8,['d'],['d'],Y,Y,['space'],Y,,,,,,,M,20,
24,5,365,14,14,8,['d'],['k'],N,Y,None,N,,,,,,,M,20,
24,6,366,0,0,8,['k'],['d'],N,Y,['space'],Y,,,,,,,M,20,
24,7,367,8,8,8,['d'],['d'],Y,N,None,Y,,,,,,,M,20,
24,8,368,13,13,8,['k'],['k'],Y,N,None,Y,,,,,,,M,20,
24,9,369,9,9,8,['d'],['d'],Y,Y,['space'],Y,,,,,,,M,20,
24,10,370,5,5,8,['k'],['k'],Y,N,None,Y,,,,,,,M,20,
24,11,371,3,3,8,['k'],['k'],Y,N,None,Y,,,,,,,M,20,
24,12,372,12,12,8,['k'],['k'],Y,Y,['space'],Y,,,,,,,M,20,
24,13,373,14,14,8,['d'],['d'],Y,Y,['space'],Y,,,,,,,M,20,
24,14,374,13,13,8,['d'],['d'],Y,Y,['space'],Y,,,,,,,M,20,
25,0,375,12,12,8,['d'],['d'],Y,N,None,Y,,,,,,,M,20,
25,1,376,13,13,8,['k'],['k'],Y,Y,['space'],Y,,,,,,,M,20,
25,2,377,1,1,8,['d'],['d'],Y,N,None,Y,,,,,,,M,20,
25,3,378,12,12,8,['d'],['d'],Y,N,['space'],N,,,,,,,M,20,
25,4,379,6,6,8,['k'],['k'],Y,Y,['space'],Y,,,,,,,M,20,
25,5,380,6,6,8,['k'],['k'],Y,Y,['space'],Y,,,,,,,M,20,
25,6,381,1,1,8,['d'],['d'],Y,Y,['space'],Y,,,,,,,M,20,
25,7,382,0,0,8,['d'],['d'],Y,N,None,Y,,,,,,,M,20,
25,8,383,13,13,8,['d'],['d'],Y,Y,['space'],Y,,,,,,,M,20,
25,9,384,10,10,8,['k'],['d'],N,N,None,Y,,,,,,,M,20,
25,10,385,1,1,8,['k'],['k'],Y,N,None,Y,,,,,,,M,20,
25,11,386,0,0,8,['d'],['d'],Y,N,None,Y,,,,,,,M,20,
25,12,387,11,11,8,['k'],['k'],Y,N,None,Y,,,,,,,M,20,
25,13,388,11,11,8,['d'],['d'],Y,N,None,Y,,,,,,,M,20,
25,14,389,14,14,8,['k'],['k'],Y,N,None,Y,,,,,,,M,20,
26,0,390,13,13,8,['d'],['d'],Y,Y,['space'],Y,,,,,,,M,20,
26,1,391,14,14,8,['k'],['k'],Y,Y,['space'],Y,,,,,,,M,20,
26,2,392,1,1,8,['d'],['d'],Y,Y,['space'],Y,,,,,,,M,20,
26,3,393,10,10,8,['d'],['d'],Y,Y,['space'],Y,,,,,,,M,20,
26,4,394,14,14,8,['d'],['d'],Y,N,['d'],N,,,,,,,M,20,
26,5,395,11,11,8,['k'],['k'],Y,N,None,Y,,,,,,,M,20,
26,6,396,0,0,8,['k'],['k'],Y,N,None,Y,,,,,,,M,20,
26,7,397,8,8,8,['d'],['d'],Y,N,None,Y,,,,,,,M,20,
26,8,398,11,11,8,['d'],['d'],Y,N,None,Y,,,,,,,M,20,
26,9,399,7,7,8,['d'],['d'],Y,N,None,Y,44,45,25,,,,M,20,
26,10,400,0,0,9,['k'],['k'],Y,,,,,,,,,,M,20,
26,11,401,5,5,9,['d'],['d'],Y,,,,,,,,,,M,20,
26,12,402,6,6,9,['d'],['k'],N,N,None,Y,,,,,,,M,20,
26,13,403,12,12,9,['k'],['k'],Y,N,None,Y,,,,,,,M,20,
26,14,404,8,8,9,['k'],['d'],N,Y,['space'],Y,,,,,,,M,20,
27,0,405,2,2,9,['d'],['k'],N,Y,['space'],Y,,,,,,,M,20,
27,1,406,4,4,9,['k'],['k'],Y,N,None,Y,,,,,,,M,20,
27,2,407,13,13,9,['d'],['d'],Y,N,None,Y,,,,,,,M,20,
27,3,408,13,13,9,['d'],['k'],N,N,['space'],N,,,,,,,M,20,
27,4,409,7,7,9,['k'],['d'],N,N,None,Y,,,,,,,M,20,
27,5,410,8,8,9,['k'],['k'],Y,N,None,Y,,,,,,,M,20,
27,6,411,5,5,9,['k'],['k'],Y,N,None,Y,,,,,,,M,20,
27,7,412,10,10,9,['d'],['d'],Y,N,None,Y,,,,,,,M,20,
27,8,413,13,13,9,['k'],['k'],Y,Y,None,N,,,,,,,M,20,
27,9,414,2,2,9,['d'],['d'],Y,Y,None,N,,,,,,,M,20,
27,10,415,3,3,9,['k'],['k'],Y,Y,['space'],Y,,,,,,,M,20,
27,11,416,4,4,9,['k'],['k'],Y,N,None,Y,,,,,,,M,20,
27,12,417,1,1,9,['d'],['d'],Y,N,None,Y,,,,,,,M,20,
27,13,418,7,7,9,['k'],['k'],Y,Y,['space'],Y,,,,,,,M,20,
27,14,419,11,11,9,['d'],['d'],Y,Y,['space'],Y,,,,,,,M,20,
28,0,420,0,0,9,['k'],['k'],Y,N,None,Y,,,,,,,M,20,
28,1,421,7,7,9,['d'],['d'],Y,Y,None,N,,,,,,,M,20,
28,2,422,14,14,9,['d'],['d'],Y,N,None,Y,,,,,,,M,20,
28,3,423,10,10,9,['k'],['k'],Y,N,['space'],N,,,,,,,M,20,
28,4,424,0,0,9,['k'],['k'],Y,N,None,Y,,,,,,,M,20,
28,5,425,3,3,9,['d'],['d'],Y,Y,['space'],Y,,,,,,,M,20,
28,6,426,5,5,9,['k'],['k'],Y,Y,['space'],Y,,,,,,,M,20,
28,7,427,5,5,9,['k'],['k'],Y,N,None,Y,,,,,,,M,20,
28,8,428,1,1,9,['d'],['d'],Y,N,None,Y,,,,,,,M,20,
28,9,429,10,10,9,['k'],['k'],Y,Y,['space'],Y,,,,,,,M,20,
28,10,430,12,12,9,['k'],['k'],Y,N,None,Y,,,,,,,M,20,
28,11,431,8,8,9,['d'],['d'],Y,Y,['space'],Y,,,,,,,M,20,
28,12,432,7,7,9,['k'],['d'],N,Y,['space'],Y,,,,,,,M,20,
28,13,433,10,10,9,['k'],['k'],Y,N,None,Y,,,,,,,M,20,
28,14,434,5,5,9,['k'],['k'],Y,N,None,Y,,,,,,,M,20,
29,0,435,0,0,9,['k'],['k'],Y,N,None,Y,,,,,,,M,20,
29,1,436,4,4,9,['k'],['k'],Y,N,None,Y,,,,,,,M,20,
29,2,437,1,1,9,['d'],['d'],Y,N,None,Y,,,,,,,M,20,
29,3,438,8,8,9,['k'],['k'],Y,Y,['space'],Y,,,,,,,M,20,
29,4,439,12,12,9,['k'],['k'],Y,N,None,Y,,,,,,,M,20,
29,5,440,11,11,9,['d'],['d'],Y,N,None,Y,,,,,,,M,20,
29,6,441,9,9,9,['d'],['d'],Y,N,None,Y,,,,,,,M,20,
29,7,442,5,5,9,['k'],['k'],Y,N,None,Y,,,,,,,M,20,
29,8,443,10,10,9,['d'],['k'],N,N,None,Y,,,,,,,M,20,
29,9,444,0,0,9,['d'],['d'],Y,N,None,Y,,,,,,,M,20,
29,10,445,10,10,9,['k'],['k'],Y,Y,['space'],Y,,,,,,,M,20,
29,11,446,9,9,9,['d'],['d'],Y,N,None,Y,,,,,,,M,20,
29,12,447,10,10,9,['d'],['d'],Y,Y,['space'],Y,,,,,,,M,20,
29,13,448,14,14,9,['k'],['d'],N,Y,['space'],Y,,,,,,,M,20,
29,14,449,4,4,9,['d'],['d'],Y,N,None,Y,42,43,17,,,,M,20,
30,0,450,12,12,10,['k'],['k'],Y,,,,,,,,,,M,20,
30,1,451,5,5,10,['d'],['d'],Y,,,,,,,,,,M,20,
30,2,452,13,13,10,['d'],['d'],Y,Y,['space'],Y,,,,,,,M,20,
30,3,453,5,5,10,['k'],['k'],Y,Y,['space'],Y,,,,,,,M,20,
30,4,454,8,8,10,['d'],['d'],Y,Y,['space'],Y,,,,,,,M,20,
30,5,455,4,4,10,['d'],['k'],N,N,None,Y,,,,,,,M,20,
30,6,456,1,1,10,['k'],['k'],Y,N,None,Y,,,,,,,M,20,
30,7,457,2,2,10,['d'],['d'],Y,Y,['space'],Y,,,,,,,M,20,
30,8,458,13,13,10,['k'],['k'],Y,N,None,Y,,,,,,,M,20,
30,9,459,13,13,10,['d'],['d'],Y,Y,['space'],Y,,,,,,,M,20,
30,10,460,10,10,10,['d'],['d'],Y,Y,['d'],N,,,,,,,M,20,
30,11,461,14,14,10,['d'],['d'],Y,N,None,Y,,,,,,,M,20,
30,12,462,5,5,10,['k'],['k'],Y,N,None,Y,,,,,,,M,20,
30,13,463,7,7,10,['k'],['k'],Y,Y,['space'],Y,,,,,,,M,20,
30,14,464,7,7,10,['d'],['d'],Y,N,None,Y,,,,,,,M,20,
31,0,465,3,3,10,['k'],['k'],Y,N,None,Y,,,,,,,M,20,
31,1,466,7,7,10,['d'],['d'],Y,Y,['space'],Y,,,,,,,M,20,
31,2,467,14,14,10,['k'],['k'],Y,Y,['space'],Y,,,,,,,M,20,
31,3,468,13,13,10,['k'],['k'],Y,Y,['space'],Y,,,,,,,M,20,
31,4,469,7,7,10,['d'],['d'],Y,Y,['space'],Y,,,,,,,M,20,
31,5,470,10,10,10,['d'],['d'],Y,Y,['space'],Y,,,,,,,M,20,
31,6,471,9,9,10,['k'],['k'],Y,N,None,Y,,,,,,,M,20,
31,7,472,3,3,10,['k'],['k'],Y,Y,['space'],Y,,,,,,,M,20,
31,8,473,12,12,10,['k'],['k'],Y,N,None,Y,,,,,,,M,20,
31,9,474,2,2,10,['d'],['d'],Y,Y,['space'],Y,,,,,,,M,20,
31,10,475,2,2,10,['d'],['d'],Y,N,None,Y,,,,,,,M,20,
31,11,476,8,8,10,['d'],['k'],N,N,None,Y,,,,,,,M,20,
31,12,477,14,14,10,['k'],['k'],Y,Y,['space'],Y,,,,,,,M,20,
31,13,478,13,13,10,['k'],['d'],N,Y,['space'],Y,,,,,,,M,20,
31,14,479,11,11,10,['k'],['k'],Y,Y,['space'],Y,,,,,,,M,20,
32,0,480,11,11,10,['k'],['k'],Y,Y,['space'],Y,,,,,,,M,20,
32,1,481,6,6,10,['k'],['k'],Y,N,None,Y,,,,,,,M,20,
32,2,482,10,10,10,['d'],['d'],Y,Y,['space'],Y,,,,,,,M,20,
32,3,483,3,3,10,['d'],['d'],Y,N,None,Y,,,,,,,M,20,
32,4,484,2,2,10,['d'],['d'],Y,Y,['space'],Y,,,,,,,M,20,
32,5,485,8,8,10,['d'],['d'],Y,Y,['space'],Y,,,,,,,M,20,
32,6,486,0,0,10,['d'],['d'],Y,N,None,Y,,,,,,,M,20,
32,7,487,7,7,10,['k'],['k'],Y,N,None,Y,,,,,,,M,20,
32,8,488,7,7,10,['d'],['d'],Y,N,['space'],N,,,,,,,M,20,
32,9,489,11,11,10,['k'],['k'],Y,N,None,Y,,,,,,,M,20,
32,10,490,4,4,10,['d'],['d'],Y,N,None,Y,,,,,,,M,20,
32,11,491,4,4,10,['k'],['k'],Y,Y,['space'],Y,,,,,,,M,20,
32,12,492,6,6,10,['k'],['d'],N,Y,['space'],Y,,,,,,,M,20,
32,13,493,7,7,10,['d'],['d'],Y,Y,['space'],Y,,,,,,,M,20,
32,14,494,14,14,10,['d'],['k'],N,N,None,Y,,,,,,,M,20,
33,0,495,7,7,10,['d'],['d'],Y,N,['space'],N,,,,,,,M,20,
33,1,496,9,9,10,['k'],['k'],Y,Y,['space'],Y,,,,,,,M,20,
33,2,497,0,0,10,['d'],['d'],Y,N,None,Y,,,,,,,M,20,
33,3,498,2,2,10,['d'],['d'],Y,N,None,Y,,,,,,,M,20,
33,4,499,9,9,10,['k'],['k'],Y,N,None,Y,45,45,25,,,,M,20,
33,5,500,7,7,11,['d'],['k'],Y,,,,,,,Y,Y,Y,M,20,
33,6,501,10,10,11,['d'],['k'],Y,,,,,,,,Y,Y,M,20,
33,7,502,4,4,11,['d'],['k'],Y,N,None,Y,,,,,Y,Y,M,20,
33,8,503,10,10,11,['k'],['d'],Y,N,None,Y,,,,,Y,Y,M,20,
33,9,504,11,11,11,['k'],['d'],Y,Y,['space'],Y,,,,,Y,Y,M,20,
33,10,505,10,10,11,['d'],['k'],Y,Y,['space'],Y,,,,,Y,Y,M,20,
33,11,506,1,1,11,['d'],['k'],Y,N,None,Y,,,,,Y,Y,M,20,
33,12,507,5,5,11,['k'],['d'],Y,N,None,Y,,,,,Y,Y,M,20,
33,13,508,7,7,11,['k'],['d'],Y,N,None,Y,,,,,Y,Y,M,20,
33,14,509,8,8,11,['d'],['k'],Y,N,None,Y,,,,,Y,Y,M,20,
34,0,510,9,9,11,['d'],['k'],Y,Y,None,N,,,,,Y,Y,M,20,
34,1,511,13,13,11,['k'],['d'],Y,Y,['space'],Y,,,,,Y,Y,M,20,
34,2,512,5,5,11,['d'],['k'],Y,Y,['space'],Y,,,,,Y,Y,M,20,
34,3,513,4,4,11,None,,Timed out,Y,['space'],Y,,,,,Y,Y,M,20,
34,4,514,7,7,11,['d'],['k'],Y,Y,None,N,,,,,Y,Y,M,20,
34,5,515,8,8,11,['k'],['d'],Y,Y,['space'],Y,,,,,Y,Y,M,20,
34,6,516,13,13,11,['k'],['k'],N,N,None,Y,,,,,Y,Y,M,20,
34,7,517,8,8,11,['d'],['k'],Y,N,None,Y,,,,,Y,Y,M,20,
34,8,518,11,11,11,['d'],['k'],Y,N,None,Y,,,,,Y,Y,M,20,
34,9,519,4,4,11,['k'],['k'],N,N,None,Y,,,,,Y,Y,M,20,
34,10,520,13,13,11,['k'],['d'],Y,N,None,Y,,,,,Y,Y,M,20,
34,11,521,7,7,11,None,,Timed out,Y,['space'],Y,,,,,Y,Y,M,20,
34,12,522,13,13,11,['d'],['k'],Y,N,['space'],N,,,,,Y,Y,M,20,
34,13,523,6,6,11,['d'],['k'],Y,N,None,Y,,,,,Y,Y,M,20,
34,14,524,8,8,11,['k'],['d'],Y,N,None,Y,,,,,Y,Y,M,20,
35,0,525,0,0,11,['d'],['k'],Y,N,None,Y,,,,,Y,Y,M,20,
35,1,526,7,7,11,['k'],['d'],Y,N,None,Y,,,,,Y,Y,M,20,
35,2,527,5,5,11,['k'],['d'],Y,Y,['space'],Y,,,,,Y,Y,M,20,
35,3,528,4,4,11,['k'],['d'],Y,N,None,Y,,,,,Y,Y,M,20,
35,4,529,3,3,11,['k'],['d'],Y,N,None,Y,,,,,Y,Y,M,20,
35,5,530,11,11,11,['d'],['k'],Y,N,None,Y,,,,,Y,Y,M,20,
35,6,531,12,12,11,['k'],['d'],Y,Y,['space'],Y,,,,,Y,Y,M,20,
35,7,532,12,12,11,['k'],['d'],Y,Y,['space'],Y,,,,,Y,Y,M,20,
35,8,533,7,7,11,['k'],['d'],Y,N,None,Y,,,,,Y,Y,M,20,
35,9,534,8,8,11,['k'],['k'],N,Y,None,N,,,,,Y,Y,M,20,
35,10,535,14,14,11,['k'],['d'],Y,N,None,Y,,,,,Y,Y,M,20,
35,11,536,1,1,11,['d'],['k'],Y,N,None,Y,,,,,Y,Y,M,20,
35,12,537,7,7,11,['k'],['k'],N,Y,None,N,,,,,Y,Y,M,20,
35,13,538,5,5,11,['d'],['k'],Y,Y,None,N,,,,,Y,Y,M,20,
35,14,539,2,2,11,['k'],['d'],Y,Y,['space'],Y,,,,,Y,Y,M,20,
36,0,540,14,14,11,['k'],['d'],Y,Y,['space'],Y,,,,,Y,Y,M,20,
36,1,541,6,6,11,['d'],['d'],N,N,None,Y,,,,,Y,Y,M,20,
36,2,542,9,9,11,['d'],['k'],Y,Y,None,N,,,,,Y,Y,M,20,
36,3,543,4,4,11,['k'],['d'],Y,N,None,Y,,,,,Y,Y,M,20,
36,4,544,5,5,11,['k'],['d'],Y,N,None,Y,,,,,Y,Y,M,20,
36,5,545,10,10,11,['d'],['k'],Y,Y,['space'],Y,,,,,Y,Y,M,20,
36,6,546,11,11,11,['d'],['k'],Y,Y,['space'],Y,,,,,Y,Y,M,20,
36,7,547,0,0,11,['d'],['k'],Y,N,None,Y,,,,,Y,Y,M,20,
36,8,548,11,11,11,['d'],['k'],Y,Y,None,N,,,,,Y,Y,M,20,
36,9,549,6,6,11,['k'],['k'],N,N,None,Y,42,40,21,,Y,Y,M,20,
36,10,550,9,9,12,['k'],['d'],Y,,,,,,,,Y,Y,M,20,
36,11,551,14,14,12,['k'],['d'],Y,,,,,,,,Y,Y,M,20,
36,12,552,14,14,12,['k'],['d'],Y,N,['space'],N,,,,,Y,Y,M,20,
36,13,553,1,1,12,['d'],['d'],N,Y,['space'],Y,,,,,Y,Y,M,20,
36,14,554,7,7,12,['k'],['d'],Y,Y,['space'],Y,,,,,Y,Y,M,20,
37,0,555,4,4,12,['d'],['k'],Y,Y,['space'],Y,,,,,Y,Y,M,20,
37,1,556,0,0,12,['k'],['d'],Y,Y,['space'],Y,,,,,Y,Y,M,20,
37,2,557,11,11,12,['k'],['d'],Y,N,None,Y,,,,,Y,Y,M,20,
37,3,558,8,8,12,['k'],['k'],N,N,None,Y,,,,,Y,Y,M,20,
37,4,559,1,1,12,['d'],['d'],N,N,None,Y,,,,,Y,Y,M,20,
37,5,560,1,1,12,['k'],['d'],Y,N,['space'],N,,,,,Y,Y,M,20,
37,6,561,0,0,12,['d'],['d'],N,Y,None,N,,,,,Y,Y,M,20,
37,7,562,6,6,12,['d'],['k'],Y,N,None,Y,,,,,Y,Y,M,20,
37,8,563,0,0,12,['k'],['d'],Y,Y,['space'],Y,,,,,Y,Y,M,20,
37,9,564,7,7,12,['k'],['d'],Y,Y,['space'],Y,,,,,Y,Y,M,20,
37,10,565,13,13,12,['k'],['d'],Y,Y,['space'],Y,,,,,Y,Y,M,20,
37,11,566,9,9,12,['k'],['d'],Y,N,None,Y,,,,,Y,Y,M,20,
37,12,567,3,3,12,['d'],['k'],Y,Y,['space'],Y,,,,,Y,Y,M,20,
37,13,568,12,12,12,['k'],['d'],Y,N,None,Y,,,,,Y,Y,M,20,
37,14,569,1,1,12,['k'],['d'],Y,N,None,Y,,,,,Y,Y,M,20,
38,0,570,9,9,12,['d'],['k'],Y,N,None,Y,,,,,Y,Y,M,20,
38,1,571,12,12,12,['d'],['k'],Y,N,None,Y,,,,,Y,Y,M,20,
38,2,572,0,0,12,['d'],['k'],Y,Y,None,N,,,,,Y,Y,M,20,
38,3,573,6,6,12,['d'],['d'],N,N,None,Y,,,,,Y,Y,M,20,
38,4,574,7,7,12,['k'],['d'],Y,N,None,Y,,,,,Y,Y,M,20,
38,5,575,9,9,12,['k'],['d'],Y,Y,None,N,,,,,Y,Y,M,20,
38,6,576,10,10,12,['k'],['d'],Y,Y,['space'],Y,,,,,Y,Y,M,20,
38,7,577,7,7,12,['k'],['d'],Y,Y,['space'],Y,,,,,Y,Y,M,20,
38,8,578,6,6,12,['k'],['d'],Y,N,['space'],N,,,,,Y,Y,M,20,
38,9,579,13,13,12,['k'],['d'],Y,N,None,Y,,,,,Y,Y,M,20,
38,10,580,12,12,12,['k'],['d'],Y,N,None,Y,,,,,Y,Y,M,20,
38,11,581,7,7,12,['d'],['k'],Y,N,None,Y,,,,,Y,Y,M,20,
38,12,582,14,14,12,['k'],['d'],Y,N,None,Y,,,,,Y,Y,M,20,
38,13,583,2,2,12,['d'],['k'],Y,N,None,Y,,,,,Y,Y,M,20,
38,14,584,14,14,12,['k'],['k'],N,N,None,Y,,,,,Y,Y,M,20,
39,0,585,9,9,12,['d'],['k'],Y,Y,['space'],Y,,,,,Y,Y,M,20,
39,1,586,4,4,12,['k'],['d'],Y,N,None,Y,,,,,Y,Y,M,20,
39,2,587,4,4,12,['d'],['k'],Y,Y,['space'],Y,,,,,Y,Y,M,20,
39,3,588,11,11,12,['d'],['k'],Y,Y,['space'],Y,,,,,Y,Y,M,20,
39,4,589,8,8,12,['k'],['d'],Y,Y,['space'],Y,,,,,Y,Y,M,20,
39,5,590,4,4,12,['d'],['k'],Y,N,['space'],N,,,,,Y,Y,M,20,
39,6,591,11,11,12,['k'],['d'],Y,N,None,Y,,,,,Y,Y,M,20,
39,7,592,8,8,12,['k'],['k'],N,N,None,Y,,,,,Y,Y,M,20,
39,8,593,14,14,12,['d'],['k'],Y,N,None,Y,,,,,Y,Y,M,20,
39,9,594,0,0,12,['k'],['d'],Y,Y,['space'],Y,,,,,Y,Y,M,20,
39,10,595,3,3,12,['k'],['k'],N,N,None,Y,,,,,Y,Y,M,20,
39,11,596,2,2,12,['k'],['d'],Y,N,None,Y,,,,,Y,Y,M,20,
39,12,597,2,2,12,['k'],['d'],Y,Y,['space'],Y,,,,,Y,Y,M,20,
39,13,598,6,6,12,['d'],['k'],Y,N,None,Y,,,,,Y,Y,M,20,
39,14,599,7,7,12,['d'],['k'],Y,N,None,Y,42,41,19,,Y,Y,M,20,
