.thisRepN,.thisTrialN,.thisN,.thisIndex,.thisTrial,Block Number,Key pressed,Category,Correct?,Int Match?,Int Response,Int Correct?,Line Accuracy,Interference Accuracy,Matching Interferences,New instruction shown?,Buttons switched?,Fast?,gender,age,
0,0,0,9,9,1,['d'],['k'],N,,,,,,,,,,F,22,
0,1,1,12,12,1,['k'],['k'],Y,,,,,,,,,,F,22,
0,2,2,13,13,1,['k'],['k'],Y,N,None,Y,,,,,,,F,22,
0,3,3,0,0,1,['k'],['k'],Y,N,None,Y,,,,,,,F,22,
0,4,4,5,5,1,['k'],['k'],Y,Y,['space'],Y,,,,,,,F,22,
0,5,5,6,6,1,['k'],['d'],N,N,None,Y,,,,,,,F,22,
0,6,6,2,2,1,['k'],['k'],Y,N,['space'],N,,,,,,,F,22,
0,7,7,12,12,1,['k'],['k'],Y,N,['space'],N,,,,,,,F,22,
0,8,8,13,13,1,['d'],['d'],Y,Y,None,N,,,,,,,F,22,
0,9,9,8,8,1,['k'],['k'],Y,N,None,Y,,,,,,,F,22,
0,10,10,3,3,1,['d'],['d'],Y,N,['space'],N,,,,,,,F,22,
0,11,11,2,2,1,['k'],['k'],Y,N,['space'],N,,,,,,,F,22,
0,12,12,10,10,1,['k'],['k'],Y,Y,None,N,,,,,,,F,22,
0,13,13,14,14,1,['k'],['k'],Y,N,None,Y,,,,,,,F,22,
0,14,14,4,4,1,['k'],['d'],N,Y,['space'],Y,,,,,,,F,22,
1,0,15,12,12,1,['d'],['k'],N,Y,None,N,,,,,,,F,22,
1,1,16,9,9,1,['d'],['d'],Y,Y,['space'],Y,,,,,,,F,22,
1,2,17,10,10,1,['k'],['k'],Y,Y,None,N,,,,,,,F,22,
1,3,18,3,3,1,['d'],['d'],Y,Y,['space'],Y,,,,,,,F,22,
1,4,19,0,0,1,['k'],['k'],Y,Y,None,N,,,,,,,F,22,
1,5,20,3,3,1,['d'],['d'],Y,Y,None,N,,,,,,,F,22,
1,6,21,12,12,1,['k'],['d'],N,N,None,Y,,,,,,,F,22,
1,7,22,2,2,1,['d'],['d'],Y,Y,['d'],N,,,,,,,F,22,
1,8,23,5,5,1,['k'],['k'],Y,Y,None,N,,,,,,,F,22,
1,9,24,12,12,1,['k'],['k'],Y,N,None,Y,,,,,,,F,22,
1,10,25,4,4,1,['d'],['d'],Y,N,None,Y,,,,,,,F,22,
1,11,26,5,5,1,['k'],['k'],Y,Y,['space'],Y,,,,,,,F,22,
1,12,27,5,5,1,['d'],['k'],N,Y,['space'],Y,,,,,,,F,22,
1,13,28,3,3,1,['d'],['d'],Y,Y,None,N,,,,,,,F,22,
1,14,29,1,1,1,['d'],['d'],Y,N,None,Y,,,,,,,F,22,
2,0,30,10,10,1,['d'],['d'],Y,Y,['space'],Y,,,,,,,F,22,
2,1,31,10,10,1,['d'],['d'],Y,Y,None,N,,,,,,,F,22,
2,2,32,0,0,1,['d'],['d'],Y,Y,['space'],Y,,,,,,,F,22,
2,3,33,10,10,1,['k'],['k'],Y,N,['space'],N,,,,,,,F,22,
2,4,34,9,9,1,['d'],['d'],Y,Y,['space'],Y,,,,,,,F,22,
2,5,35,8,8,1,['d'],['k'],N,Y,None,N,,,,,,,F,22,
2,6,36,1,1,1,['k'],['k'],Y,Y,['space'],Y,,,,,,,F,22,
2,7,37,9,9,1,['k'],['k'],Y,Y,None,N,,,,,,,F,22,
2,8,38,6,6,1,['d'],['d'],Y,N,None,Y,,,,,,,F,22,
2,9,39,10,10,1,['d'],['d'],Y,Y,None,N,,,,,,,F,22,
2,10,40,4,4,1,['k'],['k'],Y,Y,None,N,,,,,,,F,22,
2,11,41,3,3,1,['d'],['d'],Y,N,None,Y,,,,,,,F,22,
2,12,42,1,1,1,['k'],['k'],Y,Y,['space'],Y,,,,,,,F,22,
2,13,43,3,3,1,['d'],['d'],Y,N,None,Y,,,,,,,F,22,
2,14,44,9,9,1,['k'],['d'],N,N,None,Y,,,,,,,F,22,
3,0,45,7,7,1,['d'],['d'],Y,N,None,Y,,,,,,,F,22,
3,1,46,8,8,1,['k'],['k'],Y,N,None,Y,,,,,,,F,22,
3,2,47,1,1,1,['k'],['k'],Y,N,None,Y,,,,,,,F,22,
3,3,48,14,14,1,['d'],['d'],Y,N,None,Y,,,,,,,F,22,
3,4,49,1,1,1,['k'],['k'],Y,N,None,Y,42,29,25,,,,F,22,
3,5,50,2,2,2,['d'],['d'],Y,,,,,,,,,,F,22,
3,6,51,1,1,2,['k'],['k'],Y,,,,,,,,,,F,22,
3,7,52,0,0,2,['d'],['d'],Y,N,None,Y,,,,,,,F,22,
3,8,53,0,0,2,['d'],['d'],Y,Y,None,N,,,,,,,F,22,
3,9,54,2,2,2,['d'],['d'],Y,N,None,Y,,,,,,,F,22,
3,10,55,6,6,2,['k'],['k'],Y,Y,None,N,,,,,,,F,22,
3,11,56,1,1,2,['k'],['k'],Y,N,None,Y,,,,,,,F,22,
3,12,57,11,11,2,['d'],['d'],Y,Y,['space'],Y,,,,,,,F,22,
3,13,58,0,0,2,['k'],['k'],Y,N,None,Y,,,,,,,F,22,
3,14,59,1,1,2,['k'],['k'],Y,N,None,Y,,,,,,,F,22,
4,0,60,1,1,2,['k'],['k'],Y,N,None,Y,,,,,,,F,22,
4,1,61,5,5,2,['k'],['k'],Y,Y,['space'],Y,,,,,,,F,22,
4,2,62,0,0,2,['k'],['k'],Y,Y,None,N,,,,,,,F,22,
4,3,63,11,11,2,['d'],['d'],Y,Y,None,N,,,,,,,F,22,
4,4,64,7,7,2,['k'],['d'],N,Y,None,N,,,,,,,F,22,
4,5,65,1,1,2,['k'],['k'],Y,N,['space'],N,,,,,,,F,22,
4,6,66,0,0,2,['d'],['d'],Y,Y,None,N,,,,,,,F,22,
4,7,67,2,2,2,['k'],['k'],Y,N,None,Y,,,,,,,F,22,
4,8,68,6,6,2,['d'],['d'],Y,Y,None,N,,,,,,,F,22,
4,9,69,2,2,2,['k'],['k'],Y,N,None,Y,,,,,,,F,22,
4,10,70,9,9,2,['k'],['k'],Y,Y,['space'],Y,,,,,,,F,22,
4,11,71,2,2,2,['k'],['k'],Y,Y,None,N,,,,,,,F,22,
4,12,72,13,13,2,['k'],['d'],N,Y,['space'],Y,,,,,,,F,22,
4,13,73,6,6,2,['d'],['d'],Y,Y,['space'],Y,,,,,,,F,22,
4,14,74,4,4,2,['d'],['d'],Y,N,None,Y,,,,,,,F,22,
5,0,75,3,3,2,['k'],['k'],Y,N,None,Y,,,,,,,F,22,
5,1,76,6,6,2,['k'],['k'],Y,Y,None,N,,,,,,,F,22,
5,2,77,0,0,2,['k'],['k'],Y,Y,None,N,,,,,,,F,22,
5,3,78,10,10,2,['k'],['k'],Y,Y,None,N,,,,,,,F,22,
5,4,79,10,10,2,['k'],['k'],Y,Y,None,N,,,,,,,F,22,
5,5,80,4,4,2,['d'],['d'],Y,N,None,Y,,,,,,,F,22,
5,6,81,2,2,2,['d'],['k'],N,N,None,Y,,,,,,,F,22,
5,7,82,14,14,2,['d'],['d'],Y,N,None,Y,,,,,,,F,22,
5,8,83,2,2,2,['k'],['k'],Y,Y,None,N,,,,,,,F,22,
5,9,84,3,3,2,['d'],['k'],N,N,None,Y,,,,,,,F,22,
5,10,85,12,12,2,['d'],['d'],Y,N,None,Y,,,,,,,F,22,
5,11,86,10,10,2,['k'],['k'],Y,N,None,Y,,,,,,,F,22,
5,12,87,14,14,2,['d'],['d'],Y,N,None,Y,,,,,,,F,22,
5,13,88,10,10,2,['k'],['k'],Y,Y,None,N,,,,,,,F,22,
5,14,89,13,13,2,['k'],['k'],Y,Y,None,N,,,,,,,F,22,
6,0,90,11,11,2,['k'],['k'],Y,N,None,Y,,,,,,,F,22,
6,1,91,0,0,2,['k'],['k'],Y,N,None,Y,,,,,,,F,22,
6,2,92,1,1,2,['k'],['k'],Y,N,None,Y,,,,,,,F,22,
6,3,93,6,6,2,['k'],['k'],Y,Y,None,N,,,,,,,F,22,
6,4,94,13,13,2,['k'],['k'],Y,Y,None,N,,,,,,,F,22,
6,5,95,14,14,2,['d'],['d'],Y,N,None,Y,,,,,,,F,22,
6,6,96,10,10,2,['d'],['d'],Y,Y,None,N,,,,,,,F,22,
6,7,97,11,11,2,['d'],['d'],Y,Y,None,N,,,,,,,F,22,
6,8,98,4,4,2,['d'],['d'],Y,Y,None,N,,,,,,,F,22,
6,9,99,0,0,2,['k'],['k'],Y,N,['d'],N,46,26,25,,,,F,22,
6,10,100,9,9,3,['k'],['k'],Y,,,,,,,,,,F,22,
6,11,101,6,6,3,['k'],['d'],N,,,,,,,,,,F,22,
6,12,102,2,2,3,['k'],['k'],Y,Y,None,N,,,,,,,F,22,
6,13,103,10,10,3,['d'],['d'],Y,Y,['space'],Y,,,,,,,F,22,
6,14,104,7,7,3,['d'],['d'],Y,Y,None,N,,,,,,,F,22,
7,0,105,0,0,3,['d'],['d'],Y,N,None,Y,,,,,,,F,22,
7,1,106,12,12,3,['k'],['d'],N,N,None,Y,,,,,,,F,22,
7,2,107,3,3,3,['k'],['k'],Y,Y,['space'],Y,,,,,,,F,22,
7,3,108,7,7,3,['k'],['k'],Y,Y,None,N,,,,,,,F,22,
7,4,109,4,4,3,['d'],['d'],Y,N,None,Y,,,,,,,F,22,
7,5,110,14,14,3,['d'],['d'],Y,Y,None,N,,,,,,,F,22,
7,6,111,5,5,3,['d'],['d'],Y,N,None,Y,,,,,,,F,22,
7,7,112,0,0,3,['k'],['k'],Y,N,['space'],N,,,,,,,F,22,
7,8,113,3,3,3,['k'],['k'],Y,N,None,Y,,,,,,,F,22,
7,9,114,0,0,3,['k'],['k'],Y,Y,['space'],Y,,,,,,,F,22,
7,10,115,14,14,3,['k'],['k'],Y,N,None,Y,,,,,,,F,22,
7,11,116,10,10,3,['d'],['d'],Y,Y,['space'],Y,,,,,,,F,22,
7,12,117,7,7,3,['k'],['k'],Y,N,None,Y,,,,,,,F,22,
7,13,118,4,4,3,['k'],['d'],N,N,None,Y,,,,,,,F,22,
7,14,119,2,2,3,['d'],['d'],Y,N,None,Y,,,,,,,F,22,
8,0,120,1,1,3,['d'],['d'],Y,Y,None,N,,,,,,,F,22,
8,1,121,5,5,3,['d'],['d'],Y,N,None,Y,,,,,,,F,22,
8,2,122,1,1,3,['k'],['k'],Y,N,None,Y,,,,,,,F,22,
8,3,123,13,13,3,['k'],['d'],N,N,None,Y,,,,,,,F,22,
8,4,124,1,1,3,['d'],['d'],Y,N,None,Y,,,,,,,F,22,
8,5,125,7,7,3,['d'],['d'],Y,Y,None,N,,,,,,,F,22,
8,6,126,13,13,3,['d'],['k'],N,Y,None,N,,,,,,,F,22,
8,7,127,1,1,3,['d'],['d'],Y,N,None,Y,,,,,,,F,22,
8,8,128,3,3,3,['d'],['d'],Y,N,None,Y,,,,,,,F,22,
8,9,129,6,6,3,['k'],['k'],Y,N,None,Y,,,,,,,F,22,
8,10,130,13,13,3,['d'],['d'],Y,Y,None,N,,,,,,,F,22,
8,11,131,4,4,3,['k'],['k'],Y,N,None,Y,,,,,,,F,22,
8,12,132,4,4,3,['k'],['d'],N,Y,None,N,,,,,,,F,22,
8,13,133,10,10,3,['k'],['d'],N,N,None,Y,,,,,,,F,22,
8,14,134,6,6,3,['k'],['k'],Y,Y,None,N,,,,,,,F,22,
9,0,135,7,7,3,['k'],['k'],Y,Y,None,N,,,,,,,F,22,
9,1,136,8,8,3,['d'],['d'],Y,N,None,Y,,,,,,,F,22,
9,2,137,1,1,3,['k'],['d'],N,N,['space'],N,,,,,,,F,22,
9,3,138,0,0,3,['k'],['k'],Y,Y,None,N,,,,,,,F,22,
9,4,139,2,2,3,['d'],['d'],Y,N,None,Y,,,,,,,F,22,
9,5,140,14,14,3,['k'],['k'],Y,N,None,Y,,,,,,,F,22,
9,6,141,5,5,3,['d'],['d'],Y,Y,['space'],Y,,,,,,,F,22,
9,7,142,12,12,3,['k'],['k'],Y,Y,None,N,,,,,,,F,22,
9,8,143,5,5,3,['d'],['k'],N,N,None,Y,,,,,,,F,22,
9,9,144,14,14,3,['d'],['k'],N,N,None,Y,,,,,,,F,22,
9,10,145,13,13,3,['k'],['k'],Y,N,None,Y,,,,,,,F,22,
9,11,146,11,11,3,['k'],['k'],Y,Y,None,N,,,,,,,F,22,
9,12,147,5,5,3,['k'],['k'],Y,Y,None,N,,,,,,,F,22,
9,13,148,9,9,3,['k'],['k'],Y,N,None,Y,,,,,,,F,22,
9,14,149,1,1,3,['k'],['k'],Y,N,None,Y,40,31,20,,,,F,22,
10,0,150,11,11,4,['d'],['k'],N,,,,,,,,,,F,22,
10,1,151,8,8,4,['k'],['k'],Y,,,,,,,,,,F,22,
10,2,152,14,14,4,['k'],['k'],Y,N,None,Y,,,,,,,F,22,
10,3,153,11,11,4,['k'],['k'],Y,N,None,Y,,,,,,,F,22,
10,4,154,14,14,4,['k'],['k'],Y,N,None,Y,,,,,,,F,22,
10,5,155,8,8,4,['k'],['k'],Y,Y,['space'],Y,,,,,,,F,22,
10,6,156,14,14,4,['d'],['k'],N,N,None,Y,,,,,,,F,22,
10,7,157,13,13,4,['k'],['k'],Y,N,None,Y,,,,,,,F,22,
10,8,158,1,1,4,['k'],['k'],Y,N,None,Y,,,,,,,F,22,
10,9,159,12,12,4,['d'],['d'],Y,Y,None,N,,,,,,,F,22,
10,10,160,3,3,4,['d'],['d'],Y,Y,None,N,,,,,,,F,22,
10,11,161,10,10,4,['d'],['k'],N,Y,None,N,,,,,,,F,22,
10,12,162,3,3,4,['k'],['k'],Y,N,None,Y,,,,,,,F,22,
10,13,163,2,2,4,['d'],['d'],Y,Y,None,N,,,,,,,F,22,
10,14,164,2,2,4,['k'],['k'],Y,N,None,Y,,,,,,,F,22,
11,0,165,1,1,4,['d'],['d'],Y,Y,None,N,,,,,,,F,22,
11,1,166,1,1,4,['k'],['d'],N,Y,['space'],Y,,,,,,,F,22,
11,2,167,4,4,4,['k'],['d'],N,N,None,Y,,,,,,,F,22,
11,3,168,4,4,4,['d'],['d'],Y,N,None,Y,,,,,,,F,22,
11,4,169,12,12,4,['k'],['k'],Y,N,None,Y,,,,,,,F,22,
11,5,170,14,14,4,['k'],['d'],N,Y,None,N,,,,,,,F,22,
11,6,171,12,12,4,['k'],['k'],Y,Y,['space'],Y,,,,,,,F,22,
11,7,172,3,3,4,['k'],['k'],Y,N,None,Y,,,,,,,F,22,
11,8,173,4,4,4,['d'],['d'],Y,N,None,Y,,,,,,,F,22,
11,9,174,4,4,4,['d'],['d'],Y,Y,['space'],Y,,,,,,,F,22,
11,10,175,6,6,4,['k'],['d'],N,Y,None,N,,,,,,,F,22,
11,11,176,0,0,4,['k'],['k'],Y,N,None,Y,,,,,,,F,22,
11,12,177,6,6,4,['k'],['d'],N,Y,None,N,,,,,,,F,22,
11,13,178,0,0,4,['k'],['k'],Y,Y,['space'],Y,,,,,,,F,22,
11,14,179,8,8,4,['d'],['d'],Y,N,None,Y,,,,,,,F,22,
12,0,180,2,2,4,['k'],['k'],Y,Y,None,N,,,,,,,F,22,
12,1,181,14,14,4,['d'],['d'],Y,N,None,Y,,,,,,,F,22,
12,2,182,11,11,4,['d'],['d'],Y,N,None,Y,,,,,,,F,22,
12,3,183,11,11,4,['d'],['d'],Y,Y,['d'],N,,,,,,,F,22,
12,4,184,1,1,4,['d'],['d'],Y,N,None,Y,,,,,,,F,22,
12,5,185,13,13,4,['k'],['d'],N,Y,['space'],Y,,,,,,,F,22,
12,6,186,9,9,4,['k'],['k'],Y,Y,None,N,,,,,,,F,22,
12,7,187,8,8,4,['k'],['k'],Y,Y,None,N,,,,,,,F,22,
12,8,188,8,8,4,['k'],['k'],Y,N,None,Y,,,,,,,F,22,
12,9,189,14,14,4,['k'],['d'],N,Y,None,N,,,,,,,F,22,
12,10,190,9,9,4,['d'],['d'],Y,N,None,Y,,,,,,,F,22,
12,11,191,3,3,4,['d'],['d'],Y,Y,['d'],N,,,,,,,F,22,
12,12,192,14,14,4,['d'],['d'],Y,N,None,Y,,,,,,,F,22,
12,13,193,0,0,4,['d'],['d'],Y,Y,['d'],N,,,,,,,F,22,
12,14,194,9,9,4,['d'],['d'],Y,N,None,Y,,,,,,,F,22,
13,0,195,12,12,4,['d'],['d'],Y,Y,None,N,,,,,,,F,22,
13,1,196,10,10,4,['d'],['d'],Y,Y,None,N,,,,,,,F,22,
13,2,197,8,8,4,['k'],['k'],Y,N,None,Y,,,,,,,F,22,
13,3,198,2,2,4,['d'],['d'],Y,Y,None,N,,,,,,,F,22,
13,4,199,14,14,4,['k'],['k'],Y,Y,['space'],Y,40,30,25,,,,F,22,
13,5,200,8,8,5,['d'],['d'],Y,,,,,,,,,,F,22,
13,6,201,4,4,5,['d'],['d'],Y,,,,,,,,,,F,22,
13,7,202,10,10,5,['d'],['d'],Y,N,None,Y,,,,,,,F,22,
13,8,203,6,6,5,['k'],['d'],N,N,None,Y,,,,,,,F,22,
13,9,204,12,12,5,['d'],['k'],N,Y,['space'],Y,,,,,,,F,22,
13,10,205,5,5,5,['k'],['k'],Y,N,None,Y,,,,,,,F,22,
13,11,206,10,10,5,['d'],['d'],Y,Y,None,N,,,,,,,F,22,
13,12,207,3,3,5,['d'],['d'],Y,Y,None,N,,,,,,,F,22,
13,13,208,11,11,5,['k'],['k'],Y,N,None,Y,,,,,,,F,22,
13,14,209,4,4,5,['d'],['d'],Y,Y,None,N,,,,,,,F,22,
14,0,210,7,7,5,['d'],['d'],Y,N,None,Y,,,,,,,F,22,
14,1,211,11,11,5,['k'],['d'],N,N,None,Y,,,,,,,F,22,
14,2,212,0,0,5,['d'],['k'],N,N,None,Y,,,,,,,F,22,
14,3,213,4,4,5,['d'],['d'],Y,Y,None,N,,,,,,,F,22,
14,4,214,9,9,5,['d'],['d'],Y,N,None,Y,,,,,,,F,22,
14,5,215,12,12,5,['k'],['d'],N,N,None,Y,,,,,,,F,22,
14,6,216,3,3,5,['k'],['k'],Y,N,None,Y,,,,,,,F,22,
14,7,217,8,8,5,['k'],['k'],Y,N,None,Y,,,,,,,F,22,
14,8,218,10,10,5,['d'],['k'],N,Y,None,N,,,,,,,F,22,
14,9,219,0,0,5,['k'],['k'],Y,Y,['space'],Y,,,,,,,F,22,
14,10,220,5,5,5,['k'],['k'],Y,Y,['space'],Y,,,,,,,F,22,
14,11,221,0,0,5,['k'],['d'],N,Y,None,N,,,,,,,F,22,
14,12,222,7,7,5,['k'],['k'],Y,Y,None,N,,,,,,,F,22,
14,13,223,14,14,5,['k'],['d'],N,Y,None,N,,,,,,,F,22,
14,14,224,5,5,5,['k'],['d'],N,N,None,Y,,,,,,,F,22,
15,0,225,10,10,5,['k'],['k'],Y,N,None,Y,,,,,,,F,22,
15,1,226,13,13,5,['d'],['d'],Y,N,None,Y,,,,,,,F,22,
15,2,227,13,13,5,['d'],['d'],Y,N,None,Y,,,,,,,F,22,
15,3,228,14,14,5,['k'],['k'],Y,N,None,Y,,,,,,,F,22,
15,4,229,4,4,5,['d'],['d'],Y,Y,None,N,,,,,,,F,22,
15,5,230,8,8,5,['d'],['d'],Y,Y,['space'],Y,,,,,,,F,22,
15,6,231,14,14,5,['k'],['k'],Y,N,None,Y,,,,,,,F,22,
15,7,232,3,3,5,['d'],['d'],Y,Y,['space'],Y,,,,,,,F,22,
15,8,233,3,3,5,['d'],['d'],Y,Y,None,N,,,,,,,F,22,
15,9,234,12,12,5,['d'],['d'],Y,N,None,Y,,,,,,,F,22,
15,10,235,1,1,5,['d'],['d'],Y,N,None,Y,,,,,,,F,22,
15,11,236,2,2,5,['k'],['d'],N,Y,['space'],Y,,,,,,,F,22,
15,12,237,10,10,5,['k'],['k'],Y,Y,['space'],Y,,,,,,,F,22,
15,13,238,0,0,5,['k'],['k'],Y,N,None,Y,,,,,,,F,22,
15,14,239,8,8,5,['k'],['d'],N,Y,['space'],Y,,,,,,,F,22,
16,0,240,6,6,5,['d'],['d'],Y,N,None,Y,,,,,,,F,22,
16,1,241,9,9,5,['d'],['d'],Y,Y,None,N,,,,,,,F,22,
16,2,242,11,11,5,['d'],['k'],N,N,None,Y,,,,,,,F,22,
16,3,243,7,7,5,['k'],['k'],Y,Y,None,N,,,,,,,F,22,
16,4,244,2,2,5,['k'],['k'],Y,Y,None,N,,,,,,,F,22,
16,5,245,6,6,5,['k'],['d'],N,N,None,Y,,,,,,,F,22,
16,6,246,10,10,5,['k'],['k'],Y,Y,None,N,,,,,,,F,22,
16,7,247,14,14,5,['d'],['k'],N,Y,['space'],Y,,,,,,,F,22,
16,8,248,2,2,5,['d'],['d'],Y,N,None,Y,,,,,,,F,22,
16,9,249,13,13,5,['d'],['d'],Y,Y,None,N,36,33,24,,,,F,22,
16,10,250,11,11,6,['d'],['d'],Y,,,,,,,,,,F,22,
16,11,251,9,9,6,['d'],['k'],N,,,,,,,,,,F,22,
16,12,252,6,6,6,['k'],['k'],Y,N,None,Y,,,,,,,F,22,
16,13,253,0,0,6,['d'],['d'],Y,N,None,Y,,,,,,,F,22,
16,14,254,9,9,6,['d'],['d'],Y,N,None,Y,,,,,,,F,22,
17,0,255,11,11,6,['d'],['d'],Y,N,None,Y,,,,,,,F,22,
17,1,256,12,12,6,['k'],['k'],Y,N,None,Y,,,,,,,F,22,
17,2,257,10,10,6,['d'],['d'],Y,Y,None,N,,,,,,,F,22,
17,3,258,1,1,6,['d'],['k'],N,N,None,Y,,,,,,,F,22,
17,4,259,12,12,6,['k'],['k'],Y,Y,['space'],Y,,,,,,,F,22,
17,5,260,8,8,6,['d'],['d'],Y,Y,None,N,,,,,,,F,22,
17,6,261,8,8,6,['d'],['d'],Y,Y,None,N,,,,,,,F,22,
17,7,262,7,7,6,['k'],['k'],Y,Y,None,N,,,,,,,F,22,
17,8,263,7,7,6,['k'],['k'],Y,Y,['space'],Y,,,,,,,F,22,
17,9,264,13,13,6,['d'],['d'],Y,N,None,Y,,,,,,,F,22,
17,10,265,11,11,6,['k'],['k'],Y,N,None,Y,,,,,,,F,22,
17,11,266,4,4,6,['k'],['k'],Y,N,None,Y,,,,,,,F,22,
17,12,267,12,12,6,['d'],['d'],Y,N,None,Y,,,,,,,F,22,
17,13,268,5,5,6,['k'],['k'],Y,Y,None,N,,,,,,,F,22,
17,14,269,6,6,6,['d'],['d'],Y,Y,None,N,,,,,,,F,22,
18,0,270,10,10,6,['d'],['d'],Y,Y,None,N,,,,,,,F,22,
18,1,271,13,13,6,['d'],['d'],Y,N,None,Y,,,,,,,F,22,
18,2,272,3,3,6,['k'],['k'],Y,Y,None,N,,,,,,,F,22,
18,3,273,6,6,6,['d'],['d'],Y,N,None,Y,,,,,,,F,22,
18,4,274,5,5,6,['d'],['k'],N,Y,None,N,,,,,,,F,22,
18,5,275,6,6,6,['d'],['d'],Y,N,None,Y,,,,,,,F,22,
18,6,276,11,11,6,['k'],['k'],Y,N,None,Y,,,,,,,F,22,
18,7,277,4,4,6,['k'],['d'],N,N,None,Y,,,,,,,F,22,
18,8,278,2,2,6,['k'],['k'],Y,N,None,Y,,,,,,,F,22,
18,9,279,0,0,6,['d'],['d'],Y,N,None,Y,,,,,,,F,22,
18,10,280,1,1,6,['k'],['k'],Y,Y,None,N,,,,,,,F,22,
18,11,281,7,7,6,['d'],['d'],Y,N,None,Y,,,,,,,F,22,
18,12,282,9,9,6,['d'],['k'],N,N,None,Y,,,,,,,F,22,
18,13,283,8,8,6,['k'],['k'],Y,N,None,Y,,,,,,,F,22,
18,14,284,3,3,6,['k'],['d'],N,Y,None,N,,,,,,,F,22,
19,0,285,10,10,6,['d'],['d'],Y,N,None,Y,,,,,,,F,22,
19,1,286,10,10,6,['d'],['d'],Y,N,None,Y,,,,,,,F,22,
19,2,287,5,5,6,['k'],['d'],N,Y,['space'],Y,,,,,,,F,22,
19,3,288,6,6,6,['d'],['d'],Y,Y,None,N,,,,,,,F,22,
19,4,289,9,9,6,['d'],['d'],Y,N,None,Y,,,,,,,F,22,
19,5,290,2,2,6,['d'],['d'],Y,N,None,Y,,,,,,,F,22,
19,6,291,13,13,6,['k'],['k'],Y,N,None,Y,,,,,,,F,22,
19,7,292,10,10,6,['k'],['d'],N,N,None,Y,,,,,,,F,22,
19,8,293,9,9,6,['k'],['k'],Y,Y,None,N,,,,,,,F,22,
19,9,294,2,2,6,['d'],['d'],Y,N,None,Y,,,,,,,F,22,
19,10,295,8,8,6,['k'],['k'],Y,Y,None,N,,,,,,,F,22,
19,11,296,1,1,6,['k'],['k'],Y,Y,None,N,,,,,,,F,22,
19,12,297,9,9,6,['k'],['d'],N,Y,None,N,,,,,,,F,22,
19,13,298,5,5,6,['k'],['k'],Y,Y,['space'],Y,,,,,,,F,22,
19,14,299,7,7,6,['d'],['d'],Y,N,None,Y,41,32,20,,,,F,22,
20,0,300,5,5,7,['k'],['k'],Y,,,,,,,,,,F,22,
20,1,301,4,4,7,['d'],['d'],Y,,,,,,,,,,F,22,
20,2,302,7,7,7,['k'],['k'],Y,Y,None,N,,,,,,,F,22,
20,3,303,8,8,7,['k'],['k'],Y,Y,None,N,,,,,,,F,22,
20,4,304,14,14,7,['d'],['d'],Y,Y,None,N,,,,,,,F,22,
20,5,305,10,10,7,['d'],['k'],N,N,['space'],N,,,,,,,F,22,
20,6,306,14,14,7,['d'],['d'],Y,Y,None,N,,,,,,,F,22,
20,7,307,5,5,7,['k'],['k'],Y,Y,None,N,,,,,,,F,22,
20,8,308,13,13,7,['d'],['d'],Y,N,None,Y,,,,,,,F,22,
20,9,309,9,9,7,['d'],['d'],Y,Y,['space'],Y,,,,,,,F,22,
20,10,310,2,2,7,['d'],['d'],Y,Y,None,N,,,,,,,F,22,
20,11,311,12,12,7,['d'],['d'],Y,Y,['space'],Y,,,,,,,F,22,
20,12,312,11,11,7,['k'],['d'],N,Y,None,N,,,,,,,F,22,
20,13,313,10,10,7,['d'],['d'],Y,N,['space'],N,,,,,,,F,22,
20,14,314,7,7,7,['d'],['d'],Y,Y,None,N,,,,,,,F,22,
21,0,315,10,10,7,['k'],['k'],Y,Y,None,N,,,,,,,F,22,
21,1,316,1,1,7,['d'],['d'],Y,N,None,Y,,,,,,,F,22,
21,2,317,8,8,7,['k'],['d'],N,N,None,Y,,,,,,,F,22,
21,3,318,10,10,7,['k'],['k'],Y,N,None,Y,,,,,,,F,22,
21,4,319,0,0,7,['k'],['k'],Y,Y,None,N,,,,,,,F,22,
21,5,320,12,12,7,['k'],['k'],Y,N,None,Y,,,,,,,F,22,
21,6,321,8,8,7,['d'],['d'],Y,N,None,Y,,,,,,,F,22,
21,7,322,4,4,7,['k'],['k'],Y,Y,None,N,,,,,,,F,22,
21,8,323,8,8,7,['k'],['k'],Y,Y,None,N,,,,,,,F,22,
21,9,324,11,11,7,['d'],['k'],N,Y,None,N,,,,,,,F,22,
21,10,325,11,11,7,['d'],['d'],Y,Y,None,N,,,,,,,F,22,
21,11,326,10,10,7,['k'],['k'],Y,N,None,Y,,,,,,,F,22,
21,12,327,14,14,7,['k'],['d'],N,Y,None,N,,,,,,,F,22,
21,13,328,8,8,7,['k'],['k'],Y,Y,None,N,,,,,,,F,22,
21,14,329,7,7,7,['d'],['k'],N,Y,None,N,,,,,,,F,22,
22,0,330,9,9,7,['k'],['k'],Y,N,None,Y,,,,,,,F,22,
22,1,331,8,8,7,['k'],['k'],Y,Y,None,N,,,,,,,F,22,
22,2,332,8,8,7,['k'],['k'],Y,Y,None,N,,,,,,,F,22,
22,3,333,6,6,7,['k'],['k'],Y,N,None,Y,,,,,,,F,22,
22,4,334,12,12,7,['d'],['k'],N,N,None,Y,,,,,,,F,22,
22,5,335,6,6,7,['k'],['d'],N,Y,None,N,,,,,,,F,22,
22,6,336,2,2,7,['k'],['k'],Y,N,None,Y,,,,,,,F,22,
22,7,337,6,6,7,['d'],['d'],Y,Y,None,N,,,,,,,F,22,
22,8,338,7,7,7,['d'],['k'],N,N,None,Y,,,,,,,F,22,
22,9,339,3,3,7,['k'],['k'],Y,Y,None,N,,,,,,,F,22,
22,10,340,6,6,7,['d'],['d'],Y,N,None,Y,,,,,,,F,22,
22,11,341,6,6,7,['d'],['d'],Y,Y,None,N,,,,,,,F,22,
22,12,342,14,14,7,['k'],['k'],Y,N,None,Y,,,,,,,F,22,
22,13,343,6,6,7,['d'],['k'],N,N,None,Y,,,,,,,F,22,
22,14,344,2,2,7,['k'],['d'],N,N,None,Y,,,,,,,F,22,
23,0,345,2,2,7,['d'],['d'],Y,N,None,Y,,,,,,,F,22,
23,1,346,4,4,7,['k'],['k'],Y,N,None,Y,,,,,,,F,22,
23,2,347,7,7,7,['d'],['d'],Y,N,None,Y,,,,,,,F,22,
23,3,348,3,3,7,['k'],['k'],Y,N,None,Y,,,,,,,F,22,
23,4,349,6,6,7,['k'],['k'],Y,N,None,Y,39,23,25,,,,F,22,
23,5,350,11,11,8,['d'],['d'],Y,,,,,,,,,,F,22,
23,6,351,7,7,8,['d'],['d'],Y,,,,,,,,,,F,22,
23,7,352,7,7,8,['k'],['k'],Y,Y,['space'],Y,,,,,,,F,22,
23,8,353,8,8,8,['k'],['k'],Y,Y,None,N,,,,,,,F,22,
23,9,354,2,2,8,['k'],['d'],N,N,None,Y,,,,,,,F,22,
23,10,355,14,14,8,['k'],['k'],Y,N,None,Y,,,,,,,F,22,
23,11,356,11,11,8,['k'],['k'],Y,N,None,Y,,,,,,,F,22,
23,12,357,13,13,8,['k'],['d'],N,N,None,Y,,,,,,,F,22,
23,13,358,10,10,8,['d'],['d'],Y,Y,None,N,,,,,,,F,22,
23,14,359,0,0,8,['d'],['d'],Y,N,None,Y,,,,,,,F,22,
24,0,360,7,7,8,['k'],['k'],Y,N,None,Y,,,,,,,F,22,
24,1,361,1,1,8,['d'],['d'],Y,N,None,Y,,,,,,,F,22,
24,2,362,7,7,8,['d'],['d'],Y,Y,None,N,,,,,,,F,22,
24,3,363,13,13,8,['k'],['k'],Y,N,None,Y,,,,,,,F,22,
24,4,364,9,9,8,['k'],['k'],Y,Y,None,N,,,,,,,F,22,
24,5,365,11,11,8,['k'],['k'],Y,N,None,Y,,,,,,,F,22,
24,6,366,7,7,8,['k'],['k'],Y,Y,None,N,,,,,,,F,22,
24,7,367,3,3,8,['d'],['d'],Y,N,['space'],N,,,,,,,F,22,
24,8,368,7,7,8,['d'],['d'],Y,Y,None,N,,,,,,,F,22,
24,9,369,0,0,8,['d'],['d'],Y,Y,['space'],Y,,,,,,,F,22,
24,10,370,8,8,8,['d'],['d'],Y,N,None,Y,,,,,,,F,22,
24,11,371,4,4,8,['k'],['k'],Y,N,None,Y,,,,,,,F,22,
24,12,372,0,0,8,['d'],['d'],Y,Y,None,N,,,,,,,F,22,
24,13,373,9,9,8,['k'],['k'],Y,N,None,Y,,,,,,,F,22,
24,14,374,7,7,8,['d'],['d'],Y,N,None,Y,,,,,,,F,22,
25,0,375,3,3,8,['d'],['d'],Y,N,None,Y,,,,,,,F,22,
25,1,376,14,14,8,['d'],['d'],Y,N,None,Y,,,,,,,F,22,
25,2,377,1,1,8,['d'],['d'],Y,N,None,Y,,,,,,,F,22,
25,3,378,9,9,8,['k'],['k'],Y,Y,None,N,,,,,,,F,22,
25,4,379,7,7,8,['d'],['d'],Y,N,None,Y,,,,,,,F,22,
25,5,380,8,8,8,['d'],['d'],Y,Y,None,N,,,,,,,F,22,
25,6,381,1,1,8,['d'],['k'],N,N,None,Y,,,,,,,F,22,
25,7,382,1,1,8,['k'],['k'],Y,N,None,Y,,,,,,,F,22,
25,8,383,10,10,8,['k'],['k'],Y,Y,None,N,,,,,,,F,22,
25,9,384,7,7,8,['k'],['k'],Y,N,None,Y,,,,,,,F,22,
25,10,385,0,0,8,['d'],['k'],N,Y,None,N,,,,,,,F,22,
25,11,386,0,0,8,['k'],['k'],Y,N,None,Y,,,,,,,F,22,
25,12,387,13,13,8,['d'],['k'],N,Y,None,N,,,,,,,F,22,
25,13,388,0,0,8,['k'],['k'],Y,N,None,Y,,,,,,,F,22,
25,14,389,9,9,8,['k'],['d'],N,N,None,Y,,,,,,,F,22,
26,0,390,11,11,8,['d'],['d'],Y,Y,None,N,,,,,,,F,22,
26,1,391,6,6,8,['d'],['d'],Y,Y,['space'],Y,,,,,,,F,22,
26,2,392,12,12,8,['k'],['k'],Y,N,None,Y,,,,,,,F,22,
26,3,393,12,12,8,['k'],['k'],Y,N,['space'],N,,,,,,,F,22,
26,4,394,9,9,8,['k'],['k'],Y,N,None,Y,,,,,,,F,22,
26,5,395,11,11,8,['d'],['d'],Y,N,None,Y,,,,,,,F,22,
26,6,396,7,7,8,['k'],['k'],Y,Y,None,N,,,,,,,F,22,
26,7,397,13,13,8,['k'],['k'],Y,N,None,Y,,,,,,,F,22,
26,8,398,2,2,8,['d'],['d'],Y,N,None,Y,,,,,,,F,22,
26,9,399,9,9,8,['d'],['d'],Y,N,None,Y,44,32,17,,,,F,22,
26,10,400,7,7,9,['k'],['k'],Y,,,,,,,,,,F,22,
26,11,401,5,5,9,['d'],['d'],Y,,,,,,,,,,F,22,
26,12,402,5,5,9,['d'],['d'],Y,N,None,Y,,,,,,,F,22,
26,13,403,13,13,9,['k'],['k'],Y,N,None,Y,,,,,,,F,22,
26,14,404,5,5,9,['k'],['d'],N,N,None,Y,,,,,,,F,22,
27,0,405,4,4,9,['d'],['k'],N,Y,['space'],Y,,,,,,,F,22,
27,1,406,10,10,9,['k'],['k'],Y,N,['space'],N,,,,,,,F,22,
27,2,407,2,2,9,['k'],['d'],N,N,None,Y,,,,,,,F,22,
27,3,408,10,10,9,['d'],['k'],N,N,None,Y,,,,,,,F,22,
27,4,409,5,5,9,['d'],['d'],Y,N,None,Y,,,,,,,F,22,
27,5,410,11,11,9,['k'],['k'],Y,N,None,Y,,,,,,,F,22,
27,6,411,3,3,9,['d'],['d'],Y,Y,None,N,,,,,,,F,22,
27,7,412,14,14,9,['d'],['k'],N,N,None,Y,,,,,,,F,22,
27,8,413,3,3,9,['k'],['k'],Y,N,None,Y,,,,,,,F,22,
27,9,414,5,5,9,['d'],['d'],Y,Y,None,N,,,,,,,F,22,
27,10,415,1,1,9,['d'],['d'],Y,Y,None,N,,,,,,,F,22,
27,11,416,1,1,9,['k'],['k'],Y,N,None,Y,,,,,,,F,22,
27,12,417,11,11,9,['d'],['d'],Y,N,None,Y,,,,,,,F,22,
27,13,418,0,0,9,['k'],['k'],Y,N,None,Y,,,,,,,F,22,
27,14,419,2,2,9,['d'],['k'],N,Y,None,N,,,,,,,F,22,
28,0,420,9,9,9,['d'],['d'],Y,Y,['k'],N,,,,,,,F,22,
28,1,421,5,5,9,['d'],['k'],N,Y,None,N,,,,,,,F,22,
28,2,422,4,4,9,['d'],['k'],N,N,None,Y,,,,,,,F,22,
28,3,423,1,1,9,['d'],['d'],Y,Y,None,N,,,,,,,F,22,
28,4,424,4,4,9,['d'],['d'],Y,N,None,Y,,,,,,,F,22,
28,5,425,7,7,9,['k'],['k'],Y,N,None,Y,,,,,,,F,22,
28,6,426,7,7,9,['d'],['d'],Y,N,None,Y,,,,,,,F,22,
28,7,427,4,4,9,['k'],['d'],N,Y,None,N,,,,,,,F,22,
28,8,428,7,7,9,['k'],['k'],Y,Y,None,N,,,,,,,F,22,
28,9,429,14,14,9,['k'],['k'],Y,Y,None,N,,,,,,,F,22,
28,10,430,0,0,9,['k'],['k'],Y,Y,None,N,,,,,,,F,22,
28,11,431,0,0,9,['d'],['k'],N,Y,['space'],Y,,,,,,,F,22,
28,12,432,12,12,9,['d'],['d'],Y,Y,None,N,,,,,,,F,22,
28,13,433,8,8,9,['d'],['d'],Y,N,None,Y,,,,,,,F,22,
28,14,434,4,4,9,['k'],['k'],Y,Y,['space'],Y,,,,,,,F,22,
29,0,435,13,13,9,['k'],['k'],Y,Y,None,N,,,,,,,F,22,
29,1,436,9,9,9,['k'],['k'],Y,N,None,Y,,,,,,,F,22,
29,2,437,11,11,9,['k'],['k'],Y,Y,['d'],N,,,,,,,F,22,
29,3,438,11,11,9,['k'],['k'],Y,N,None,Y,,,,,,,F,22,
29,4,439,6,6,9,['k'],['k'],Y,N,None,Y,,,,,,,F,22,
29,5,440,14,14,9,['d'],['d'],Y,Y,None,N,,,,,,,F,22,
29,6,441,12,12,9,['k'],['k'],Y,N,None,Y,,,,,,,F,22,
29,7,442,9,9,9,['d'],['d'],Y,N,None,Y,,,,,,,F,22,
29,8,443,2,2,9,['d'],['d'],Y,Y,['k'],N,,,,,,,F,22,
29,9,444,1,1,9,['d'],['d'],Y,Y,None,N,,,,,,,F,22,
29,10,445,3,3,9,['d'],['d'],Y,Y,['space'],Y,,,,,,,F,22,
29,11,446,2,2,9,['d'],['d'],Y,Y,['space'],Y,,,,,,,F,22,
29,12,447,7,7,9,['k'],['k'],Y,Y,None,N,,,,,,,F,22,
29,13,448,13,13,9,['k'],['k'],Y,N,['space'],N,,,,,,,F,22,
29,14,449,11,11,9,['k'],['d'],N,N,None,Y,39,28,23,,,,F,22,
30,0,450,4,4,10,['d'],['d'],Y,,,,,,,,,,F,22,
30,1,451,4,4,10,['d'],['d'],Y,,,,,,,,,,F,22,
30,2,452,6,6,10,['d'],['d'],Y,N,None,Y,,,,,,,F,22,
30,3,453,6,6,10,['k'],['k'],Y,Y,None,N,,,,,,,F,22,
30,4,454,5,5,10,['k'],['d'],N,Y,None,N,,,,,,,F,22,
30,5,455,13,13,10,['d'],['d'],Y,N,None,Y,,,,,,,F,22,
30,6,456,5,5,10,['d'],['d'],Y,Y,None,N,,,,,,,F,22,
30,7,457,5,5,10,None,,Timed out,N,None,Y,,,,,,,F,22,
30,8,458,2,2,10,['d'],['d'],Y,Y,['space'],Y,,,,,,,F,22,
30,9,459,2,2,10,['k'],['k'],Y,N,None,Y,,,,,,,F,22,
30,10,460,9,9,10,['d'],['d'],Y,N,None,Y,,,,,,,F,22,
30,11,461,3,3,10,['d'],['d'],Y,N,None,Y,,,,,,,F,22,
30,12,462,11,11,10,['k'],['d'],N,Y,None,N,,,,,,,F,22,
30,13,463,0,0,10,['k'],['k'],Y,Y,['d'],N,,,,,,,F,22,
30,14,464,5,5,10,['d'],['d'],Y,N,None,Y,,,,,,,F,22,
31,0,465,12,12,10,['d'],['k'],N,Y,None,N,,,,,,,F,22,
31,1,466,7,7,10,['d'],['d'],Y,Y,['space'],Y,,,,,,,F,22,
31,2,467,13,13,10,['k'],['k'],Y,Y,['space'],Y,,,,,,,F,22,
31,3,468,10,10,10,['k'],['k'],Y,N,None,Y,,,,,,,F,22,
31,4,469,14,14,10,['k'],['k'],Y,N,None,Y,,,,,,,F,22,
31,5,470,14,14,10,['k'],['d'],N,Y,['space'],Y,,,,,,,F,22,
31,6,471,13,13,10,['k'],['k'],Y,Y,None,N,,,,,,,F,22,
31,7,472,9,9,10,['d'],['d'],Y,Y,['space'],Y,,,,,,,F,22,
31,8,473,12,12,10,['k'],['k'],Y,N,None,Y,,,,,,,F,22,
31,9,474,4,4,10,['d'],['d'],Y,N,None,Y,,,,,,,F,22,
31,10,475,6,6,10,['k'],['k'],Y,Y,None,N,,,,,,,F,22,
31,11,476,8,8,10,['k'],['k'],Y,Y,['space'],Y,,,,,,,F,22,
31,12,477,2,2,10,['d'],['k'],N,N,None,Y,,,,,,,F,22,
31,13,478,1,1,10,['d'],['d'],Y,N,None,Y,,,,,,,F,22,
31,14,479,12,12,10,['k'],['k'],Y,Y,None,N,,,,,,,F,22,
32,0,480,5,5,10,['d'],['d'],Y,N,None,Y,,,,,,,F,22,
32,1,481,5,5,10,['d'],['d'],Y,N,None,Y,,,,,,,F,22,
32,2,482,1,1,10,['d'],['d'],Y,Y,['space'],Y,,,,,,,F,22,
32,3,483,11,11,10,['d'],['d'],Y,N,None,Y,,,,,,,F,22,
32,4,484,6,6,10,['d'],['d'],Y,N,None,Y,,,,,,,F,22,
32,5,485,12,12,10,['d'],['d'],Y,Y,['space'],Y,,,,,,,F,22,
32,6,486,13,13,10,['d'],['d'],Y,N,None,Y,,,,,,,F,22,
32,7,487,5,5,10,['d'],['d'],Y,Y,['space'],Y,,,,,,,F,22,
32,8,488,13,13,10,['d'],['d'],Y,N,None,Y,,,,,,,F,22,
32,9,489,7,7,10,['d'],['d'],Y,Y,None,N,,,,,,,F,22,
32,10,490,4,4,10,['d'],['d'],Y,Y,None,N,,,,,,,F,22,
32,11,491,3,3,10,['d'],['d'],Y,Y,None,N,,,,,,,F,22,
32,12,492,9,9,10,['d'],['d'],Y,N,None,Y,,,,,,,F,22,
32,13,493,11,11,10,['d'],['k'],N,Y,None,N,,,,,,,F,22,
32,14,494,13,13,10,['d'],['k'],N,N,None,Y,,,,,,,F,22,
33,0,495,6,6,10,['k'],['k'],Y,N,None,Y,,,,,,,F,22,
33,1,496,8,8,10,['k'],['d'],N,N,None,Y,,,,,,,F,22,
33,2,497,13,13,10,['d'],['d'],Y,N,None,Y,,,,,,,F,22,
33,3,498,13,13,10,['d'],['k'],N,N,None,Y,,,,,,,F,22,
33,4,499,14,14,10,['d'],['d'],Y,Y,None,N,40,34,23,,,,F,22,
33,5,500,8,8,11,['d'],['k'],Y,,,,,,,Y,Y,Y,F,22,
33,6,501,0,0,11,['d'],['k'],Y,,,,,,,,Y,Y,F,22,
33,7,502,6,6,11,['d'],['k'],Y,Y,['space'],Y,,,,,Y,Y,F,22,
33,8,503,7,7,11,['d'],['k'],Y,N,None,Y,,,,,Y,Y,F,22,
33,9,504,8,8,11,['k'],['d'],Y,N,None,Y,,,,,Y,Y,F,22,
33,10,505,10,10,11,['k'],['k'],N,Y,None,N,,,,,Y,Y,F,22,
33,11,506,12,12,11,['d'],['k'],Y,N,None,Y,,,,,Y,Y,F,22,
33,12,507,14,14,11,['d'],['k'],Y,N,None,Y,,,,,Y,Y,F,22,
33,13,508,4,4,11,['d'],['k'],Y,N,None,Y,,,,,Y,Y,F,22,
33,14,509,8,8,11,['d'],['k'],Y,N,None,Y,,,,,Y,Y,F,22,
34,0,510,5,5,11,['d'],['k'],Y,Y,None,N,,,,,Y,Y,F,22,
34,1,511,3,3,11,['k'],['d'],Y,N,None,Y,,,,,Y,Y,F,22,
34,2,512,14,14,11,['d'],['d'],N,N,None,Y,,,,,Y,Y,F,22,
34,3,513,5,5,11,['d'],['d'],N,N,None,Y,,,,,Y,Y,F,22,
34,4,514,8,8,11,['k'],['d'],Y,N,None,Y,,,,,Y,Y,F,22,
34,5,515,11,11,11,['k'],['d'],Y,N,None,Y,,,,,Y,Y,F,22,
34,6,516,8,8,11,['d'],['k'],Y,Y,None,N,,,,,Y,Y,F,22,
34,7,517,2,2,11,['d'],['k'],Y,N,None,Y,,,,,Y,Y,F,22,
34,8,518,12,12,11,['d'],['d'],N,Y,None,N,,,,,Y,Y,F,22,
34,9,519,12,12,11,['k'],['d'],Y,N,None,Y,,,,,Y,Y,F,22,
34,10,520,13,13,11,['d'],['k'],Y,Y,['space'],Y,,,,,Y,Y,F,22,
34,11,521,12,12,11,['d'],['k'],Y,N,None,Y,,,,,Y,Y,F,22,
34,12,522,3,3,11,['d'],['d'],N,Y,None,N,,,,,Y,Y,F,22,
34,13,523,11,11,11,['d'],['k'],Y,Y,['space'],Y,,,,,Y,Y,F,22,
34,14,524,6,6,11,['d'],['k'],Y,N,None,Y,,,,,Y,Y,F,22,
35,0,525,14,14,11,['d'],['d'],N,Y,None,N,,,,,Y,Y,F,22,
35,1,526,2,2,11,['d'],['k'],Y,N,None,Y,,,,,Y,Y,F,22,
35,2,527,7,7,11,['k'],['d'],Y,N,None,Y,,,,,Y,Y,F,22,
35,3,528,5,5,11,['d'],['d'],N,Y,None,N,,,,,Y,Y,F,22,
35,4,529,14,14,11,['k'],['d'],Y,Y,None,N,,,,,Y,Y,F,22,
35,5,530,8,8,11,['k'],['d'],Y,Y,None,N,,,,,Y,Y,F,22,
35,6,531,9,9,11,['d'],['k'],Y,Y,None,N,,,,,Y,Y,F,22,
35,7,532,1,1,11,['k'],['d'],Y,Y,None,N,,,,,Y,Y,F,22,
35,8,533,12,12,11,['k'],['d'],Y,N,None,Y,,,,,Y,Y,F,22,
35,9,534,11,11,11,['k'],['d'],Y,N,None,Y,,,,,Y,Y,F,22,
35,10,535,12,12,11,['k'],['d'],Y,N,None,Y,,,,,Y,Y,F,22,
35,11,536,9,9,11,['d'],['k'],Y,N,None,Y,,,,,Y,Y,F,22,
35,12,537,2,2,11,['d'],['k'],Y,Y,None,N,,,,,Y,Y,F,22,
35,13,538,4,4,11,['d'],['d'],N,Y,None,N,,,,,Y,Y,F,22,
35,14,539,5,5,11,['d'],['k'],Y,N,None,Y,,,,,Y,Y,F,22,
36,0,540,1,1,11,['d'],['k'],Y,N,None,Y,,,,,Y,Y,F,22,
36,1,541,9,9,11,['d'],['k'],Y,Y,None,N,,,,,Y,Y,F,22,
36,2,542,8,8,11,['d'],['d'],N,Y,None,N,,,,,Y,Y,F,22,
36,3,543,3,3,11,['k'],['d'],Y,N,None,Y,,,,,Y,Y,F,22,
36,4,544,2,2,11,['d'],['k'],Y,Y,None,N,,,,,Y,Y,F,22,
36,5,545,10,10,11,['d'],['k'],Y,N,None,Y,,,,,Y,Y,F,22,
36,6,546,8,8,11,['k'],['d'],Y,Y,['space'],Y,,,,,Y,Y,F,22,
36,7,547,5,5,11,['d'],['k'],Y,N,None,Y,,,,,Y,Y,F,22,
36,8,548,3,3,11,['d'],['k'],Y,N,None,Y,,,,,Y,Y,F,22,
36,9,549,6,6,11,['d'],['d'],N,N,None,Y,40,32,20,,Y,Y,F,22,
36,10,550,12,12,12,['d'],['k'],Y,,,,,,,,Y,Y,F,22,
36,11,551,11,11,12,['d'],['k'],Y,,,,,,,,Y,Y,F,22,
36,12,552,12,12,12,['d'],['k'],Y,N,None,Y,,,,,Y,Y,F,22,
36,13,553,13,13,12,['d'],['k'],Y,Y,None,N,,,,,Y,Y,F,22,
36,14,554,9,9,12,['d'],['k'],Y,N,None,Y,,,,,Y,Y,F,22,
37,0,555,3,3,12,['d'],['k'],Y,Y,['space'],Y,,,,,Y,Y,F,22,
37,1,556,11,11,12,['k'],['k'],N,Y,['space'],Y,,,,,Y,Y,F,22,
37,2,557,9,9,12,['d'],['k'],Y,Y,['space'],Y,,,,,Y,Y,F,22,
37,3,558,5,5,12,['k'],['k'],N,N,None,Y,,,,,Y,Y,F,22,
37,4,559,4,4,12,['k'],['d'],Y,Y,['d'],N,,,,,Y,Y,F,22,
37,5,560,4,4,12,['d'],['k'],Y,N,None,Y,,,,,Y,Y,F,22,
37,6,561,13,13,12,['d'],['k'],Y,N,None,Y,,,,,Y,Y,F,22,
37,7,562,5,5,12,['k'],['d'],Y,Y,None,N,,,,,Y,Y,F,22,
37,8,563,4,4,12,['k'],['d'],Y,Y,None,N,,,,,Y,Y,F,22,
37,9,564,11,11,12,['d'],['k'],Y,N,None,Y,,,,,Y,Y,F,22,
37,10,565,9,9,12,['d'],['k'],Y,N,None,Y,,,,,Y,Y,F,22,
37,11,566,7,7,12,['d'],['d'],N,N,None,Y,,,,,Y,Y,F,22,
37,12,567,13,13,12,['k'],['d'],Y,Y,None,N,,,,,Y,Y,F,22,
37,13,568,4,4,12,['d'],['k'],Y,N,None,Y,,,,,Y,Y,F,22,
37,14,569,11,11,12,['d'],['k'],Y,Y,None,N,,,,,Y,Y,F,22,
38,0,570,14,14,12,['d'],['d'],N,Y,None,N,,,,,Y,Y,F,22,
38,1,571,14,14,12,['k'],['k'],N,N,None,Y,,,,,Y,Y,F,22,
38,2,572,1,1,12,['d'],['k'],Y,N,None,Y,,,,,Y,Y,F,22,
38,3,573,12,12,12,['k'],['d'],Y,Y,['space'],Y,,,,,Y,Y,F,22,
38,4,574,13,13,12,['d'],['k'],Y,N,None,Y,,,,,Y,Y,F,22,
38,5,575,10,10,12,['d'],['k'],Y,Y,['space'],Y,,,,,Y,Y,F,22,
38,6,576,13,13,12,['d'],['d'],N,Y,['space'],Y,,,,,Y,Y,F,22,
38,7,577,5,5,12,['k'],['d'],Y,Y,['space'],Y,,,,,Y,Y,F,22,
38,8,578,3,3,12,['d'],['k'],Y,N,None,Y,,,,,Y,Y,F,22,
38,9,579,0,0,12,['d'],['k'],Y,Y,['space'],Y,,,,,Y,Y,F,22,
38,10,580,12,12,12,['d'],['k'],Y,N,None,Y,,,,,Y,Y,F,22,
38,11,581,6,6,12,['k'],['d'],Y,N,None,Y,,,,,Y,Y,F,22,
38,12,582,4,4,12,['k'],['k'],N,Y,None,N,,,,,Y,Y,F,22,
38,13,583,1,1,12,['k'],['d'],Y,N,None,Y,,,,,Y,Y,F,22,
38,14,584,3,3,12,['d'],['k'],Y,Y,None,N,,,,,Y,Y,F,22,
39,0,585,11,11,12,['d'],['k'],Y,Y,None,N,,,,,Y,Y,F,22,
39,1,586,0,0,12,['k'],['d'],Y,Y,None,N,,,,,Y,Y,F,22,
39,2,587,12,12,12,['k'],['d'],Y,N,['space'],N,,,,,Y,Y,F,22,
39,3,588,7,7,12,['k'],['d'],Y,N,None,Y,,,,,Y,Y,F,22,
39,4,589,14,14,12,['k'],['d'],Y,N,None,Y,,,,,Y,Y,F,22,
39,5,590,0,0,12,['d'],['k'],Y,N,None,Y,,,,,Y,Y,F,22,
39,6,591,3,3,12,['d'],['k'],Y,N,None,Y,,,,,Y,Y,F,22,
39,7,592,3,3,12,['d'],['k'],Y,N,None,Y,,,,,Y,Y,F,22,
39,8,593,8,8,12,['k'],['k'],N,Y,['d'],N,,,,,Y,Y,F,22,
39,9,594,0,0,12,['d'],['d'],N,N,['space'],N,,,,,Y,Y,F,22,
39,10,595,9,9,12,['k'],['d'],Y,N,None,Y,,,,,Y,Y,F,22,
39,11,596,13,13,12,['k'],['d'],Y,Y,None,N,,,,,Y,Y,F,22,
39,12,597,6,6,12,['k'],['d'],Y,N,None,Y,,,,,Y,Y,F,22,
39,13,598,6,6,12,['k'],['d'],Y,Y,None,N,,,,,Y,Y,F,22,
39,14,599,3,3,12,['k'],['d'],Y,Y,['space'],Y,41,32,23,,Y,Y,F,22,
