.thisRepN,.thisTrialN,.thisN,.thisIndex,Block Number,Key pressed,Correct?,Category,Button switch shown?,Actually switched?,Fast?,gender,age
0,0,0,244,1,None,Timed out,,,,,f,21
0,1,1,574,1,None,Timed out,,,,,f,21
0,2,2,499,1,['d'],N,['k'],,,,f,21
0,3,3,579,1,['d'],N,['k'],,,,f,21
0,4,4,162,1,['d'],Y,['d'],,,,f,21
0,5,5,322,1,['d'],N,['k'],,,,f,21
0,6,6,501,1,['k'],Y,['k'],,,,f,21
0,7,7,537,1,['d'],N,['k'],,,,f,21
0,8,8,202,1,['k'],N,['d'],,,,f,21
0,9,9,595,1,['k'],Y,['k'],,,,f,21
0,10,10,561,1,['k'],Y,['k'],,,,f,21
0,11,11,566,1,['k'],Y,['k'],,,,f,21
0,12,12,19,1,['d'],Y,['d'],,,,f,21
0,13,13,60,1,['k'],N,['d'],,,,f,21
0,14,14,391,1,['k'],Y,['k'],,,,f,21
0,15,15,250,1,['d'],Y,['d'],,,,f,21
0,16,16,558,1,['k'],Y,['k'],,,,f,21
0,17,17,67,1,['d'],Y,['d'],,,,f,21
0,18,18,38,1,['d'],Y,['d'],,,,f,21
0,19,19,352,1,['k'],Y,['k'],,,,f,21
0,20,20,270,1,['d'],Y,['d'],,,,f,21
0,21,21,300,1,['k'],Y,['k'],,,,f,21
0,22,22,44,1,['d'],Y,['d'],,,,f,21
0,23,23,400,1,['k'],Y,['k'],,,,f,21
0,24,24,173,1,['d'],Y,['d'],,,,f,21
0,25,25,301,1,['k'],Y,['k'],,,,f,21
0,26,26,166,1,['d'],Y,['d'],,,,f,21
0,27,27,334,1,['k'],Y,['k'],,,,f,21
0,28,28,382,1,['k'],Y,['k'],,,,f,21
0,29,29,394,1,['k'],Y,['k'],,,,f,21
0,30,30,153,1,['d'],Y,['d'],,,,f,21
0,31,31,403,1,['k'],Y,['k'],,,,f,21
0,32,32,303,1,['k'],Y,['k'],,,,f,21
0,33,33,462,1,['k'],Y,['k'],,,,f,21
0,34,34,556,1,['k'],Y,['k'],,,,f,21
0,35,35,355,1,['k'],Y,['k'],,,,f,21
0,36,36,149,1,['d'],Y,['d'],,,,f,21
0,37,37,25,1,['d'],Y,['d'],,,,f,21
0,38,38,340,1,['k'],Y,['k'],,,,f,21
0,39,39,215,1,['d'],Y,['d'],,,,f,21
0,40,40,528,1,['k'],Y,['k'],,,,f,21
0,41,41,61,1,['d'],Y,['d'],,,,f,21
0,42,42,346,1,['k'],Y,['k'],,,,f,21
0,43,43,277,1,['d'],Y,['d'],,,,f,21
0,44,44,276,1,['d'],Y,['d'],,,,f,21
0,45,45,548,1,['k'],Y,['k'],,,,f,21
0,46,46,208,1,['k'],N,['d'],,,,f,21
0,47,47,442,1,['k'],Y,['k'],,,,f,21
0,48,48,232,1,['d'],Y,['d'],,,,f,21
0,49,49,42,1,['d'],Y,['d'],,,,f,21
,,,,,,"41 correct, 7 wrong, 2 timed out",,,,,,
0,50,50,227,2,['d'],Y,['d'],,,,f,21
0,51,51,78,2,['d'],Y,['d'],,,,f,21
0,52,52,151,2,['d'],Y,['d'],,,,f,21
0,53,53,171,2,['d'],Y,['d'],,,,f,21
0,54,54,222,2,['d'],Y,['d'],,,,f,21
0,55,55,154,2,['d'],Y,['d'],,,,f,21
0,56,56,380,2,['k'],Y,['k'],,,,f,21
0,57,57,369,2,['k'],Y,['k'],,,,f,21
0,58,58,326,2,['d'],N,['k'],,,,f,21
0,59,59,229,2,['d'],Y,['d'],,,,f,21
0,60,60,126,2,['d'],Y,['d'],,,,f,21
0,61,61,348,2,['k'],Y,['k'],,,,f,21
0,62,62,35,2,['d'],Y,['d'],,,,f,21
0,63,63,362,2,['k'],Y,['k'],,,,f,21
0,64,64,328,2,['k'],Y,['k'],,,,f,21
0,65,65,66,2,['d'],Y,['d'],,,,f,21
0,66,66,8,2,['d'],Y,['d'],,,,f,21
0,67,67,231,2,['d'],Y,['d'],,,,f,21
0,68,68,195,2,['d'],Y,['d'],,,,f,21
0,69,69,288,2,['d'],Y,['d'],,,,f,21
0,70,70,481,2,['k'],Y,['k'],,,,f,21
0,71,71,596,2,['k'],Y,['k'],,,,f,21
0,72,72,199,2,['d'],Y,['d'],,,,f,21
0,73,73,414,2,['k'],Y,['k'],,,,f,21
0,74,74,559,2,['d'],N,['k'],,,,f,21
0,75,75,404,2,['d'],N,['k'],,,,f,21
0,76,76,524,2,['k'],Y,['k'],,,,f,21
0,77,77,17,2,['d'],Y,['d'],,,,f,21
0,78,78,477,2,['k'],Y,['k'],,,,f,21
0,79,79,571,2,['k'],Y,['k'],,,,f,21
0,80,80,113,2,['k'],N,['d'],,,,f,21
0,81,81,282,2,['d'],Y,['d'],,,,f,21
0,82,82,317,2,['k'],Y,['k'],,,,f,21
0,83,83,424,2,['k'],Y,['k'],,,,f,21
0,84,84,472,2,['k'],Y,['k'],,,,f,21
0,85,85,522,2,['k'],Y,['k'],,,,f,21
0,86,86,271,2,['d'],Y,['d'],,,,f,21
0,87,87,497,2,['k'],Y,['k'],,,,f,21
0,88,88,562,2,['k'],Y,['k'],,,,f,21
0,89,89,544,2,['k'],Y,['k'],,,,f,21
0,90,90,287,2,['d'],Y,['d'],,,,f,21
0,91,91,81,2,['d'],Y,['d'],,,,f,21
0,92,92,336,2,['k'],Y,['k'],,,,f,21
0,93,93,214,2,['d'],Y,['d'],,,,f,21
0,94,94,476,2,['k'],Y,['k'],,,,f,21
0,95,95,79,2,['d'],Y,['d'],,,,f,21
0,96,96,138,2,['d'],Y,['d'],,,,f,21
0,97,97,468,2,['k'],Y,['k'],,,,f,21
0,98,98,118,2,['d'],Y,['d'],,,,f,21
0,99,99,141,2,['d'],Y,['d'],,,,f,21
,,,,,,"46 correcct, 4 wrong",,,,,,
0,100,100,306,3,['k'],Y,['k'],,,,f,21
0,101,101,331,3,['k'],Y,['k'],,,,f,21
0,102,102,302,3,['k'],Y,['k'],,,,f,21
0,103,103,108,3,['d'],Y,['d'],,,,f,21
0,104,104,338,3,['k'],Y,['k'],,,,f,21
0,105,105,465,3,['k'],Y,['k'],,,,f,21
0,106,106,568,3,['k'],Y,['k'],,,,f,21
0,107,107,136,3,['d'],Y,['d'],,,,f,21
0,108,108,102,3,['d'],Y,['d'],,,,f,21
0,109,109,323,3,['k'],Y,['k'],,,,f,21
0,110,110,69,3,['d'],Y,['d'],,,,f,21
0,111,111,27,3,['k'],N,['d'],,,,f,21
0,112,112,428,3,['k'],Y,['k'],,,,f,21
0,113,113,94,3,['k'],N,['d'],,,,f,21
0,114,114,419,3,['k'],Y,['k'],,,,f,21
0,115,115,530,3,['k'],Y,['k'],,,,f,21
0,116,116,89,3,['d'],Y,['d'],,,,f,21
0,117,117,50,3,['d'],Y,['d'],,,,f,21
0,118,118,516,3,['k'],Y,['k'],,,,f,21
0,119,119,384,3,['k'],Y,['k'],,,,f,21
0,120,120,460,3,['k'],Y,['k'],,,,f,21
0,121,121,356,3,['k'],Y,['k'],,,,f,21
0,122,122,313,3,['k'],Y,['k'],,,,f,21
0,123,123,493,3,['k'],Y,['k'],,,,f,21
0,124,124,46,3,['d'],Y,['d'],,,,f,21
0,125,125,21,3,['d'],Y,['d'],,,,f,21
0,126,126,18,3,['d'],Y,['d'],,,,f,21
0,127,127,452,3,['k'],Y,['k'],,,,f,21
0,128,128,381,3,['k'],Y,['k'],,,,f,21
0,129,129,175,3,['d'],Y,['d'],,,,f,21
0,130,130,438,3,['k'],Y,['k'],,,,f,21
0,131,131,492,3,['k'],Y,['k'],,,,f,21
0,132,132,283,3,['k'],N,['d'],,,,f,21
0,133,133,439,3,['k'],Y,['k'],,,,f,21
0,134,134,570,3,['k'],Y,['k'],,,,f,21
0,135,135,486,3,['k'],Y,['k'],,,,f,21
0,136,136,393,3,['k'],Y,['k'],,,,f,21
0,137,137,115,3,['d'],Y,['d'],,,,f,21
0,138,138,436,3,['k'],Y,['k'],,,,f,21
0,139,139,155,3,['d'],Y,['d'],,,,f,21
0,140,140,86,3,['d'],Y,['d'],,,,f,21
0,141,141,467,3,['k'],Y,['k'],,,,f,21
0,142,142,101,3,['d'],Y,['d'],,,,f,21
0,143,143,324,3,['k'],Y,['k'],,,,f,21
0,144,144,598,3,['k'],Y,['k'],,,,f,21
0,145,145,197,3,['k'],N,['d'],,,,f,21
0,146,146,416,3,['k'],Y,['k'],,,,f,21
0,147,147,116,3,['d'],Y,['d'],,,,f,21
0,148,148,0,3,['d'],Y,['d'],,,,f,21
0,149,149,247,3,['d'],Y,['d'],,,,f,21
,,,,,,"46 correct, 4 wrong",,,,,,
0,150,150,292,4,['d'],Y,['d'],,,,f,21
0,151,151,107,4,['d'],Y,['d'],,,,f,21
0,152,152,513,4,['k'],Y,['k'],,,,f,21
0,153,153,71,4,['d'],Y,['d'],,,,f,21
0,154,154,519,4,['k'],Y,['k'],,,,f,21
0,155,155,16,4,['d'],Y,['d'],,,,f,21
0,156,156,148,4,['d'],Y,['d'],,,,f,21
0,157,157,80,4,['d'],Y,['d'],,,,f,21
0,158,158,169,4,['d'],Y,['d'],,,,f,21
0,159,159,388,4,['k'],Y,['k'],,,,f,21
0,160,160,309,4,['k'],Y,['k'],,,,f,21
0,161,161,505,4,['k'],Y,['k'],,,,f,21
0,162,162,539,4,['k'],Y,['k'],,,,f,21
0,163,163,13,4,['d'],Y,['d'],,,,f,21
0,164,164,161,4,['d'],Y,['d'],,,,f,21
0,165,165,298,4,['k'],N,['d'],,,,f,21
0,166,166,37,4,['d'],Y,['d'],,,,f,21
0,167,167,297,4,['k'],N,['d'],,,,f,21
0,168,168,144,4,['d'],Y,['d'],,,,f,21
0,169,169,163,4,['d'],Y,['d'],,,,f,21
0,170,170,423,4,['k'],Y,['k'],,,,f,21
0,171,171,54,4,['d'],Y,['d'],,,,f,21
0,172,172,412,4,['k'],Y,['k'],,,,f,21
0,173,173,112,4,['d'],Y,['d'],,,,f,21
0,174,174,186,4,['d'],Y,['d'],,,,f,21
0,175,175,56,4,['d'],Y,['d'],,,,f,21
0,176,176,451,4,['k'],Y,['k'],,,,f,21
0,177,177,167,4,['d'],Y,['d'],,,,f,21
0,178,178,172,4,['k'],N,['d'],,,,f,21
0,179,179,437,4,['k'],Y,['k'],,,,f,21
0,180,180,234,4,['d'],Y,['d'],,,,f,21
0,181,181,249,4,['d'],Y,['d'],,,,f,21
0,182,182,316,4,['k'],Y,['k'],,,,f,21
0,183,183,263,4,['d'],Y,['d'],,,,f,21
0,184,184,581,4,['k'],Y,['k'],,,,f,21
0,185,185,9,4,['k'],N,['d'],,,,f,21
0,186,186,599,4,['k'],Y,['k'],,,,f,21
0,187,187,584,4,['d'],N,['k'],,,,f,21
0,188,188,488,4,['k'],Y,['k'],,,,f,21
0,189,189,180,4,['d'],Y,['d'],,,,f,21
0,190,190,174,4,['d'],Y,['d'],,,,f,21
0,191,191,258,4,['d'],Y,['d'],,,,f,21
0,192,192,458,4,['k'],Y,['k'],,,,f,21
0,193,193,99,4,['d'],Y,['d'],,,,f,21
0,194,194,194,4,['k'],N,['d'],,,,f,21
0,195,195,164,4,['d'],Y,['d'],,,,f,21
0,196,196,193,4,['d'],Y,['d'],,,,f,21
0,197,197,411,4,['k'],Y,['k'],,,,f,21
0,198,198,209,4,['d'],Y,['d'],,,,f,21
0,199,199,351,4,['k'],Y,['k'],,,,f,21
,,,,,,"44 correct, 6 wrong",,,,,,
0,200,200,156,5,['d'],Y,['d'],,,,f,21
0,201,201,377,5,['k'],Y,['k'],,,,f,21
0,202,202,572,5,['k'],Y,['k'],,,,f,21
0,203,203,496,5,['k'],Y,['k'],,,,f,21
0,204,204,427,5,['k'],Y,['k'],,,,f,21
0,205,205,557,5,['k'],Y,['k'],,,,f,21
0,206,206,563,5,['k'],Y,['k'],,,,f,21
0,207,207,72,5,['d'],Y,['d'],,,,f,21
0,208,208,471,5,['d'],N,['k'],,,,f,21
0,209,209,220,5,['d'],Y,['d'],,,,f,21
0,210,210,121,5,['k'],N,['d'],,,,f,21
0,211,211,425,5,['k'],Y,['k'],,,,f,21
0,212,212,26,5,['d'],Y,['d'],,,,f,21
0,213,213,196,5,['k'],N,['d'],,,,f,21
0,214,214,238,5,['d'],Y,['d'],,,,f,21
0,215,215,421,5,['k'],Y,['k'],,,,f,21
0,216,216,191,5,['d'],Y,['d'],,,,f,21
0,217,217,281,5,['d'],Y,['d'],,,,f,21
0,218,218,389,5,['k'],Y,['k'],,,,f,21
0,219,219,413,5,['k'],Y,['k'],,,,f,21
0,220,220,409,5,['k'],Y,['k'],,,,f,21
0,221,221,507,5,['k'],Y,['k'],,,,f,21
0,222,222,342,5,['k'],Y,['k'],,,,f,21
0,223,223,454,5,['k'],Y,['k'],,,,f,21
0,224,224,93,5,['d'],Y,['d'],,,,f,21
0,225,225,503,5,['k'],Y,['k'],,,,f,21
0,226,226,182,5,['k'],N,['d'],,,,f,21
0,227,227,85,5,['k'],N,['d'],,,,f,21
0,228,228,150,5,['d'],Y,['d'],,,,f,21
0,229,229,257,5,['d'],Y,['d'],,,,f,21
0,230,230,485,5,['k'],Y,['k'],,,,f,21
0,231,231,360,5,['k'],Y,['k'],,,,f,21
0,232,232,372,5,['k'],Y,['k'],,,,f,21
0,233,233,237,5,['d'],Y,['d'],,,,f,21
0,234,234,294,5,['d'],Y,['d'],,,,f,21
0,235,235,7,5,['d'],Y,['d'],,,,f,21
0,236,236,264,5,['d'],Y,['d'],,,,f,21
0,237,237,219,5,['d'],Y,['d'],,,,f,21
0,238,238,567,5,['d'],N,['k'],,,,f,21
0,239,239,242,5,['d'],Y,['d'],,,,f,21
0,240,240,114,5,['d'],Y,['d'],,,,f,21
0,241,241,469,5,['k'],Y,['k'],,,,f,21
0,242,242,185,5,['k'],N,['d'],,,,f,21
0,243,243,527,5,['k'],Y,['k'],,,,f,21
0,244,244,261,5,['d'],Y,['d'],,,,f,21
0,245,245,397,5,['k'],Y,['k'],,,,f,21
0,246,246,248,5,['d'],Y,['d'],,,,f,21
0,247,247,201,5,['k'],N,['d'],,,,f,21
0,248,248,542,5,['k'],Y,['k'],,,,f,21
0,249,249,129,5,['k'],N,['d'],,,,f,21
,,,,,,"41 correct, 9 wrong",,,,,,
0,250,250,365,6,['k'],Y,['k'],,,,f,21
0,251,251,333,6,['k'],Y,['k'],,,,f,21
0,252,252,504,6,['k'],Y,['k'],,,,f,21
0,253,253,63,6,['k'],N,['d'],,,,f,21
0,254,254,160,6,['d'],Y,['d'],,,,f,21
0,255,255,147,6,['d'],Y,['d'],,,,f,21
0,256,256,62,6,['d'],Y,['d'],,,,f,21
0,257,257,128,6,['d'],Y,['d'],,,,f,21
0,258,258,484,6,['k'],Y,['k'],,,,f,21
0,259,259,134,6,['k'],N,['d'],,,,f,21
0,260,260,213,6,['k'],N,['d'],,,,f,21
0,261,261,573,6,['k'],Y,['k'],,,,f,21
0,262,262,65,6,['d'],Y,['d'],,,,f,21
0,263,263,327,6,['k'],Y,['k'],,,,f,21
0,264,264,4,6,['d'],Y,['d'],,,,f,21
0,265,265,363,6,['k'],Y,['k'],,,,f,21
0,266,266,212,6,['k'],N,['d'],,,,f,21
0,267,267,405,6,['k'],Y,['k'],,,,f,21
0,268,268,420,6,['k'],Y,['k'],,,,f,21
0,269,269,502,6,['k'],Y,['k'],,,,f,21
0,270,270,314,6,['k'],Y,['k'],,,,f,21
0,271,271,587,6,['k'],Y,['k'],,,,f,21
0,272,272,228,6,['d'],Y,['d'],,,,f,21
0,273,273,265,6,['d'],Y,['d'],,,,f,21
0,274,274,580,6,['k'],Y,['k'],,,,f,21
0,275,275,594,6,['k'],Y,['k'],,,,f,21
0,276,276,490,6,['k'],Y,['k'],,,,f,21
0,277,277,514,6,['k'],Y,['k'],,,,f,21
0,278,278,353,6,['k'],Y,['k'],,,,f,21
0,279,279,329,6,['k'],Y,['k'],,,,f,21
0,280,280,127,6,['d'],Y,['d'],,,,f,21
0,281,281,541,6,['k'],Y,['k'],,,,f,21
0,282,282,546,6,['k'],Y,['k'],,,,f,21
0,283,283,443,6,['k'],Y,['k'],,,,f,21
0,284,284,20,6,['d'],Y,['d'],,,,f,21
0,285,285,84,6,['k'],N,['d'],,,,f,21
0,286,286,395,6,['k'],Y,['k'],,,,f,21
0,287,287,426,6,['k'],Y,['k'],,,,f,21
0,288,288,165,6,['k'],N,['d'],,,,f,21
0,289,289,33,6,['d'],Y,['d'],,,,f,21
0,290,290,318,6,['k'],Y,['k'],,,,f,21
0,291,291,448,6,['k'],Y,['k'],,,,f,21
0,292,292,158,6,['d'],Y,['d'],,,,f,21
0,293,293,586,6,['k'],Y,['k'],,,,f,21
0,294,294,494,6,['k'],Y,['k'],,,,f,21
0,295,295,449,6,['d'],N,['k'],,,,f,21
0,296,296,390,6,['k'],Y,['k'],,,,f,21
0,297,297,526,6,['k'],Y,['k'],,,,f,21
0,298,298,550,6,['k'],Y,['k'],,,,f,21
0,299,299,289,6,['d'],Y,['d'],,,,f,21
,,,,,,"43 correct, 7 wrong",,,,,,
0,300,300,560,7,['k'],Y,['k'],,,,f,21
0,301,301,97,7,['d'],Y,['d'],,,,f,21
0,302,302,320,7,['k'],Y,['k'],,,,f,21
0,303,303,296,7,['d'],Y,['d'],,,,f,21
0,304,304,140,7,['d'],Y,['d'],,,,f,21
0,305,305,28,7,['d'],Y,['d'],,,,f,21
0,306,306,279,7,['d'],Y,['d'],,,,f,21
0,307,307,593,7,['k'],Y,['k'],,,,f,21
0,308,308,335,7,['k'],Y,['k'],,,,f,21
0,309,309,104,7,['d'],Y,['d'],,,,f,21
0,310,310,82,7,['d'],Y,['d'],,,,f,21
0,311,311,12,7,['d'],Y,['d'],,,,f,21
0,312,312,40,7,['d'],Y,['d'],,,,f,21
0,313,313,111,7,['d'],Y,['d'],,,,f,21
0,314,314,441,7,['k'],Y,['k'],,,,f,21
0,315,315,76,7,['d'],Y,['d'],,,,f,21
0,316,316,583,7,['k'],Y,['k'],,,,f,21
0,317,317,83,7,['d'],Y,['d'],,,,f,21
0,318,318,152,7,['d'],Y,['d'],,,,f,21
0,319,319,445,7,['k'],Y,['k'],,,,f,21
0,320,320,515,7,['k'],Y,['k'],,,,f,21
0,321,321,489,7,['k'],Y,['k'],,,,f,21
0,322,322,225,7,['k'],N,['d'],,,,f,21
0,323,323,49,7,['d'],Y,['d'],,,,f,21
0,324,324,523,7,['k'],Y,['k'],,,,f,21
0,325,325,109,7,['d'],Y,['d'],,,,f,21
0,326,326,98,7,['d'],Y,['d'],,,,f,21
0,327,327,181,7,['k'],N,['d'],,,,f,21
0,328,328,383,7,['k'],Y,['k'],,,,f,21
0,329,329,52,7,['d'],Y,['d'],,,,f,21
0,330,330,239,7,['d'],Y,['d'],,,,f,21
0,331,331,95,7,['d'],Y,['d'],,,,f,21
0,332,332,555,7,['k'],Y,['k'],,,,f,21
0,333,333,520,7,['k'],Y,['k'],,,,f,21
0,334,334,358,7,['d'],N,['k'],,,,f,21
0,335,335,103,7,['k'],N,['d'],,,,f,21
0,336,336,293,7,['d'],Y,['d'],,,,f,21
0,337,337,565,7,['k'],Y,['k'],,,,f,21
0,338,338,190,7,['d'],Y,['d'],,,,f,21
0,339,339,198,7,['d'],Y,['d'],,,,f,21
0,340,340,434,7,['k'],Y,['k'],,,,f,21
0,341,341,408,7,['k'],Y,['k'],,,,f,21
0,342,342,267,7,['d'],Y,['d'],,,,f,21
0,343,343,243,7,['d'],Y,['d'],,,,f,21
0,344,344,367,7,['d'],N,['k'],,,,f,21
0,345,345,284,7,['d'],Y,['d'],,,,f,21
0,346,346,266,7,['d'],Y,['d'],,,,f,21
0,347,347,564,7,['d'],N,['k'],,,,f,21
0,348,348,431,7,['k'],Y,['k'],,,,f,21
0,349,349,385,7,['d'],N,['k'],,,,f,21
,,,,,,"43 correct, 7 wrong",,,,,,
0,350,350,512,8,['k'],Y,['k'],,,,f,21
0,351,351,330,8,['k'],Y,['k'],,,,f,21
0,352,352,470,8,['k'],Y,['k'],,,,f,21
0,353,353,304,8,['k'],Y,['k'],,,,f,21
0,354,354,123,8,['d'],Y,['d'],,,,f,21
0,355,355,290,8,['k'],N,['d'],,,,f,21
0,356,356,311,8,['k'],Y,['k'],,,,f,21
0,357,357,575,8,['k'],Y,['k'],,,,f,21
0,358,358,518,8,['k'],Y,['k'],,,,f,21
0,359,359,551,8,['k'],Y,['k'],,,,f,21
0,360,360,319,8,['k'],Y,['k'],,,,f,21
0,361,361,39,8,['k'],N,['d'],,,,f,21
0,362,362,207,8,['d'],Y,['d'],,,,f,21
0,363,363,137,8,['d'],Y,['d'],,,,f,21
0,364,364,307,8,['k'],Y,['k'],,,,f,21
0,365,365,145,8,['d'],Y,['d'],,,,f,21
0,366,366,418,8,['k'],Y,['k'],,,,f,21
0,367,367,192,8,['d'],Y,['d'],,,,f,21
0,368,368,73,8,['d'],Y,['d'],,,,f,21
0,369,369,321,8,['k'],Y,['k'],,,,f,21
0,370,370,122,8,['k'],N,['d'],,,,f,21
0,371,371,508,8,['k'],Y,['k'],,,,f,21
0,372,372,57,8,['d'],Y,['d'],,,,f,21
0,373,373,386,8,['k'],Y,['k'],,,,f,21
0,374,374,204,8,['d'],Y,['d'],,,,f,21
0,375,375,269,8,['d'],Y,['d'],,,,f,21
0,376,376,473,8,['d'],N,['k'],,,,f,21
0,377,377,117,8,['d'],Y,['d'],,,,f,21
0,378,378,88,8,['d'],Y,['d'],,,,f,21
0,379,379,189,8,['d'],Y,['d'],,,,f,21
0,380,380,455,8,['k'],Y,['k'],,,,f,21
0,381,381,315,8,['k'],Y,['k'],,,,f,21
0,382,382,387,8,['k'],Y,['k'],,,,f,21
0,383,383,299,8,['d'],Y,['d'],,,,f,21
0,384,384,529,8,['k'],Y,['k'],,,,f,21
0,385,385,168,8,['d'],Y,['d'],,,,f,21
0,386,386,200,8,['k'],N,['d'],,,,f,21
0,387,387,521,8,['k'],Y,['k'],,,,f,21
0,388,388,532,8,['k'],Y,['k'],,,,f,21
0,389,389,105,8,['k'],N,['d'],,,,f,21
0,390,390,241,8,['d'],Y,['d'],,,,f,21
0,391,391,364,8,['k'],Y,['k'],,,,f,21
0,392,392,274,8,['d'],Y,['d'],,,,f,21
0,393,393,74,8,['d'],Y,['d'],,,,f,21
0,394,394,479,8,['d'],N,['k'],,,,f,21
0,395,395,474,8,['k'],Y,['k'],,,,f,21
0,396,396,24,8,['d'],Y,['d'],,,,f,21
0,397,397,478,8,['k'],Y,['k'],,,,f,21
0,398,398,211,8,['d'],Y,['d'],,,,f,21
0,399,399,398,8,['k'],Y,['k'],,,,f,21
,,,,,,"43 correct, 7 wrong",,,,,,
0,400,400,96,9,['d'],Y,['d'],,,,f,21
0,401,401,506,9,['k'],Y,['k'],,,,f,21
0,402,402,143,9,['d'],Y,['d'],,,,f,21
0,403,403,236,9,['d'],Y,['d'],,,,f,21
0,404,404,592,9,['k'],Y,['k'],,,,f,21
0,405,405,36,9,['d'],Y,['d'],,,,f,21
0,406,406,357,9,['d'],N,['k'],,,,f,21
0,407,407,456,9,['k'],Y,['k'],,,,f,21
0,408,408,569,9,['k'],Y,['k'],,,,f,21
0,409,409,187,9,['k'],N,['d'],,,,f,21
0,410,410,341,9,['k'],Y,['k'],,,,f,21
0,411,411,350,9,['k'],Y,['k'],,,,f,21
0,412,412,11,9,['d'],Y,['d'],,,,f,21
0,413,413,591,9,['d'],N,['k'],,,,f,21
0,414,414,466,9,['k'],Y,['k'],,,,f,21
0,415,415,590,9,['k'],Y,['k'],,,,f,21
0,416,416,517,9,['k'],Y,['k'],,,,f,21
0,417,417,246,9,['d'],Y,['d'],,,,f,21
0,418,418,53,9,['d'],Y,['d'],,,,f,21
0,419,419,92,9,['d'],Y,['d'],,,,f,21
0,420,420,308,9,['k'],Y,['k'],,,,f,21
0,421,421,295,9,['d'],Y,['d'],,,,f,21
0,422,422,495,9,['k'],Y,['k'],,,,f,21
0,423,423,396,9,['k'],Y,['k'],,,,f,21
0,424,424,286,9,['d'],Y,['d'],,,,f,21
0,425,425,554,9,['k'],Y,['k'],,,,f,21
0,426,426,3,9,['k'],N,['d'],,,,f,21
0,427,427,205,9,['d'],Y,['d'],,,,f,21
0,428,428,487,9,['k'],Y,['k'],,,,f,21
0,429,429,373,9,['d'],N,['k'],,,,f,21
0,430,430,34,9,['d'],Y,['d'],,,,f,21
0,431,431,285,9,['d'],Y,['d'],,,,f,21
0,432,432,525,9,['d'],N,['k'],,,,f,21
0,433,433,510,9,['k'],Y,['k'],,,,f,21
0,434,434,354,9,['k'],Y,['k'],,,,f,21
0,435,435,176,9,['k'],N,['d'],,,,f,21
0,436,436,31,9,['d'],Y,['d'],,,,f,21
0,437,437,498,9,['k'],Y,['k'],,,,f,21
0,438,438,218,9,['d'],Y,['d'],,,,f,21
0,439,439,210,9,['d'],Y,['d'],,,,f,21
0,440,440,597,9,['k'],Y,['k'],,,,f,21
0,441,441,130,9,['d'],Y,['d'],,,,f,21
0,442,442,576,9,['k'],Y,['k'],,,,f,21
0,443,443,41,9,['d'],Y,['d'],,,,f,21
0,444,444,259,9,['d'],Y,['d'],,,,f,21
0,445,445,538,9,['k'],Y,['k'],,,,f,21
0,446,446,47,9,['d'],Y,['d'],,,,f,21
0,447,447,253,9,['k'],N,['d'],,,,f,21
0,448,448,106,9,['d'],Y,['d'],,,,f,21
0,449,449,51,9,['k'],N,['d'],,,,f,21
,,,,,,"41 correct, 9 wrong",,,,,,
0,450,450,429,10,['k'],Y,['k'],,,,f,21
0,451,451,509,10,['k'],Y,['k'],,,,f,21
0,452,452,280,10,['d'],Y,['d'],,,,f,21
0,453,453,589,10,['d'],N,['k'],,,,f,21
0,454,454,432,10,['k'],Y,['k'],,,,f,21
0,455,455,58,10,['d'],Y,['d'],,,,f,21
0,456,456,230,10,['d'],Y,['d'],,,,f,21
0,457,457,547,10,['k'],Y,['k'],,,,f,21
0,458,458,125,10,['d'],Y,['d'],,,,f,21
0,459,459,368,10,['k'],Y,['k'],,,,f,21
0,460,460,399,10,['k'],Y,['k'],,,,f,21
0,461,461,157,10,['d'],Y,['d'],,,,f,21
0,462,462,203,10,['d'],Y,['d'],,,,f,21
0,463,463,179,10,['d'],Y,['d'],,,,f,21
0,464,464,450,10,['k'],Y,['k'],,,,f,21
0,465,465,325,10,['k'],Y,['k'],,,,f,21
0,466,466,447,10,['k'],Y,['k'],,,,f,21
0,467,467,453,10,['k'],Y,['k'],,,,f,21
0,468,468,87,10,['d'],Y,['d'],,,,f,21
0,469,469,262,10,['d'],Y,['d'],,,,f,21
0,470,470,273,10,['d'],Y,['d'],,,,f,21
0,471,471,376,10,['k'],Y,['k'],,,,f,21
0,472,472,30,10,['d'],Y,['d'],,,,f,21
0,473,473,254,10,['d'],Y,['d'],,,,f,21
0,474,474,32,10,['d'],Y,['d'],,,,f,21
0,475,475,132,10,['d'],Y,['d'],,,,f,21
0,476,476,275,10,['d'],Y,['d'],,,,f,21
0,477,477,223,10,['d'],Y,['d'],,,,f,21
0,478,478,177,10,['d'],Y,['d'],,,,f,21
0,479,479,406,10,['k'],Y,['k'],,,,f,21
0,480,480,251,10,['d'],Y,['d'],,,,f,21
0,481,481,217,10,['d'],Y,['d'],,,,f,21
0,482,482,233,10,['k'],N,['d'],,,,f,21
0,483,483,252,10,['d'],Y,['d'],,,,f,21
0,484,484,23,10,['d'],Y,['d'],,,,f,21
0,485,485,534,10,['k'],Y,['k'],,,,f,21
0,486,486,119,10,['d'],Y,['d'],,,,f,21
0,487,487,272,10,['k'],N,['d'],,,,f,21
0,488,488,461,10,['k'],Y,['k'],,,,f,21
0,489,489,552,10,['k'],Y,['k'],,,,f,21
0,490,490,480,10,['k'],Y,['k'],,,,f,21
0,491,491,29,10,['d'],Y,['d'],,,,f,21
0,492,492,90,10,['d'],Y,['d'],,,,f,21
0,493,493,374,10,['d'],N,['k'],,,,f,21
0,494,494,59,10,['d'],Y,['d'],,,,f,21
0,495,495,511,10,['k'],Y,['k'],,,,f,21
0,496,496,226,10,['d'],Y,['d'],,,,f,21
0,497,497,110,10,['d'],Y,['d'],,,,f,21
0,498,498,457,10,['k'],Y,['k'],,,,f,21
0,499,499,278,10,['d'],Y,['d'],,,,f,21
,,,,,,"46 correct, 4 wrong",,,,,,
0,500,500,345,11,['d'],Y,['k'],Y,Y,Y,f,21
0,501,501,146,11,['k'],Y,['d'],,Y,Y,f,21
0,502,502,124,11,['d'],N,['d'],,Y,Y,f,21
0,503,503,578,11,['d'],Y,['k'],,Y,Y,f,21
0,504,504,433,11,['d'],Y,['k'],,Y,Y,f,21
0,505,505,483,11,['k'],N,['k'],,Y,Y,f,21
0,506,506,170,11,['k'],Y,['d'],,Y,Y,f,21
0,507,507,142,11,['k'],Y,['d'],,Y,Y,f,21
0,508,508,133,11,['k'],Y,['d'],,Y,Y,f,21
0,509,509,536,11,['d'],Y,['k'],,Y,Y,f,21
0,510,510,224,11,['d'],N,['d'],,Y,Y,f,21
0,511,511,339,11,['d'],Y,['k'],,Y,Y,f,21
0,512,512,549,11,['d'],Y,['k'],,Y,Y,f,21
0,513,513,533,11,['d'],Y,['k'],,Y,Y,f,21
0,514,514,120,11,['k'],Y,['d'],,Y,Y,f,21
0,515,515,402,11,['d'],Y,['k'],,Y,Y,f,21
0,516,516,221,11,['k'],Y,['d'],,Y,Y,f,21
0,517,517,178,11,['d'],N,['d'],,Y,Y,f,21
0,518,518,410,11,['d'],Y,['k'],,Y,Y,f,21
0,519,519,5,11,['d'],N,['d'],,Y,Y,f,21
0,520,520,582,11,['d'],Y,['k'],,Y,Y,f,21
0,521,521,482,11,['d'],Y,['k'],,Y,Y,f,21
0,522,522,407,11,['d'],Y,['k'],,Y,Y,f,21
0,523,523,337,11,['d'],Y,['k'],,Y,Y,f,21
0,524,524,585,11,['d'],Y,['k'],,Y,Y,f,21
0,525,525,131,11,['k'],Y,['d'],,Y,Y,f,21
0,526,526,401,11,['d'],Y,['k'],,Y,Y,f,21
0,527,527,417,11,['d'],Y,['k'],,Y,Y,f,21
0,528,528,531,11,['d'],Y,['k'],,Y,Y,f,21
0,529,529,577,11,['d'],Y,['k'],,Y,Y,f,21
0,530,530,435,11,['d'],Y,['k'],,Y,Y,f,21
0,531,531,310,11,['d'],Y,['k'],,Y,Y,f,21
0,532,532,235,11,['k'],Y,['d'],,Y,Y,f,21
0,533,533,440,11,['d'],Y,['k'],,Y,Y,f,21
0,534,534,48,11,['k'],Y,['d'],,Y,Y,f,21
0,535,535,64,11,['d'],N,['d'],,Y,Y,f,21
0,536,536,1,11,['k'],Y,['d'],,Y,Y,f,21
0,537,537,359,11,['d'],Y,['k'],,Y,Y,f,21
0,538,538,68,11,['k'],Y,['d'],,Y,Y,f,21
0,539,539,361,11,['d'],Y,['k'],,Y,Y,f,21
0,540,540,45,11,['k'],Y,['d'],,Y,Y,f,21
0,541,541,159,11,['d'],N,['d'],,Y,Y,f,21
0,542,542,260,11,['k'],Y,['d'],,Y,Y,f,21
0,543,543,135,11,None,Timed out,,,Y,Y,f,21
0,544,544,446,11,None,Timed out,,,Y,Y,f,21
0,545,545,2,11,['k'],Y,['d'],,Y,Y,f,21
0,546,546,444,11,['d'],Y,['k'],,Y,Y,f,21
0,547,547,139,11,['k'],Y,['d'],,Y,Y,f,21
0,548,548,255,11,['k'],Y,['d'],,Y,Y,f,21
0,549,549,540,11,['d'],Y,['k'],,Y,Y,f,21
,,,,,,"41 correct, 7 wrong, 2 timed out",,,,,,
0,550,550,430,12,['k'],N,['k'],,Y,Y,f,21
0,551,551,375,12,['d'],Y,['k'],,Y,Y,f,21
0,552,552,268,12,['k'],Y,['d'],,Y,Y,f,21
0,553,553,343,12,['d'],Y,['k'],,Y,Y,f,21
0,554,554,366,12,['d'],Y,['k'],,Y,Y,f,21
0,555,555,91,12,['k'],Y,['d'],,Y,Y,f,21
0,556,556,70,12,['k'],Y,['d'],,Y,Y,f,21
0,557,557,371,12,['d'],Y,['k'],,Y,Y,f,21
0,558,558,379,12,['d'],Y,['k'],,Y,Y,f,21
0,559,559,291,12,['k'],Y,['d'],,Y,Y,f,21
0,560,560,553,12,['d'],Y,['k'],,Y,Y,f,21
0,561,561,14,12,['k'],Y,['d'],,Y,Y,f,21
0,562,562,475,12,['d'],Y,['k'],,Y,Y,f,21
0,563,563,100,12,['k'],Y,['d'],,Y,Y,f,21
0,564,564,392,12,None,Timed out,,,Y,Y,f,21
0,565,565,459,12,['d'],Y,['k'],,Y,Y,f,21
0,566,566,256,12,['k'],Y,['d'],,Y,Y,f,21
0,567,567,43,12,['d'],N,['d'],,Y,Y,f,21
0,568,568,535,12,['d'],Y,['k'],,Y,Y,f,21
0,569,569,15,12,['k'],Y,['d'],,Y,Y,f,21
0,570,570,184,12,['k'],Y,['d'],,Y,Y,f,21
0,571,571,77,12,['k'],Y,['d'],,Y,Y,f,21
0,572,572,75,12,['k'],Y,['d'],,Y,Y,f,21
0,573,573,543,12,['d'],Y,['k'],,Y,Y,f,21
0,574,574,240,12,['k'],Y,['d'],,Y,Y,f,21
0,575,575,332,12,['k'],N,['k'],,Y,Y,f,21
0,576,576,349,12,['k'],N,['k'],,Y,Y,f,21
0,577,577,347,12,['d'],Y,['k'],,Y,Y,f,21
0,578,578,370,12,['d'],Y,['k'],,Y,Y,f,21
0,579,579,545,12,['d'],Y,['k'],,Y,Y,f,21
0,580,580,216,12,['k'],Y,['d'],,Y,Y,f,21
0,581,581,312,12,['d'],Y,['k'],,Y,Y,f,21
0,582,582,22,12,['k'],Y,['d'],,Y,Y,f,21
0,583,583,305,12,['d'],Y,['k'],,Y,Y,f,21
0,584,584,344,12,['d'],Y,['k'],,Y,Y,f,21
0,585,585,245,12,['k'],Y,['d'],,Y,Y,f,21
0,586,586,55,12,['d'],N,['d'],,Y,Y,f,21
0,587,587,463,12,['d'],Y,['k'],,Y,Y,f,21
0,588,588,588,12,['d'],Y,['k'],,Y,Y,f,21
0,589,589,206,12,['k'],Y,['d'],,Y,Y,f,21
0,590,590,6,12,['d'],N,['d'],,Y,Y,f,21
0,591,591,491,12,['d'],Y,['k'],,Y,Y,f,21
0,592,592,378,12,['d'],Y,['k'],,Y,Y,f,21
0,593,593,183,12,['k'],Y,['d'],,Y,Y,f,21
0,594,594,10,12,['k'],Y,['d'],,Y,Y,f,21
0,595,595,500,12,['d'],Y,['k'],,Y,Y,f,21
0,596,596,188,12,['k'],Y,['d'],,Y,Y,f,21
0,597,597,415,12,['d'],Y,['k'],,Y,Y,f,21
0,598,598,422,12,['d'],Y,['k'],,Y,Y,f,21
0,599,599,464,12,['d'],Y,['k'],,Y,Y,f,21
,,,,,,"43 correct, 6 wrong, 1 timed out",,,,,,
