.thisRepN,.thisTrialN,.thisN,.thisIndex,Block Number,Key pressed,Category,Correct?,Total correct,Percent correct,Button switch shown?,Fast?,gender,age
0,0,0,571,1,['k'],['k'],Y,,,,,Female,20
0,1,1,107,1,['d'],['d'],Y,,,,,Female,20
0,2,2,182,1,['k'],['d'],N,,,,,Female,20
0,3,3,189,1,['k'],['d'],N,,,,,Female,20
0,4,4,578,1,['d'],['k'],N,,,,,Female,20
0,5,5,417,1,['d'],['k'],N,,,,,Female,20
0,6,6,319,1,['k'],['k'],Y,,,,,Female,20
0,7,7,14,1,['k'],['d'],N,,,,,Female,20
0,8,8,86,1,['k'],['d'],N,,,,,Female,20
0,9,9,556,1,['d'],['k'],N,,,,,Female,20
0,10,10,565,1,['k'],['k'],Y,,,,,Female,20
0,11,11,31,1,['k'],['d'],N,,,,,Female,20
0,12,12,72,1,['d'],['d'],Y,,,,,Female,20
0,13,13,186,1,['k'],['d'],N,,,,,Female,20
0,14,14,476,1,['d'],['k'],N,,,,,Female,20
0,15,15,191,1,['k'],['d'],N,,,,,Female,20
0,16,16,371,1,['d'],['k'],N,,,,,Female,20
0,17,17,376,1,['k'],['k'],Y,,,,,Female,20
0,18,18,517,1,['k'],['k'],Y,,,,,Female,20
0,19,19,323,1,['k'],['k'],Y,,,,,Female,20
0,20,20,180,1,['d'],['d'],Y,,,,,Female,20
0,21,21,5,1,['k'],['d'],N,,,,,Female,20
0,22,22,540,1,['k'],['k'],Y,,,,,Female,20
0,23,23,50,1,['d'],['d'],Y,,,,,Female,20
0,24,24,581,1,['d'],['k'],N,,,,,Female,20
0,25,25,481,1,['k'],['k'],Y,,,,,Female,20
0,26,26,399,1,['d'],['k'],N,,,,,Female,20
0,27,27,135,1,['k'],['d'],N,,,,,Female,20
0,28,28,451,1,['d'],['k'],N,,,,,Female,20
0,29,29,307,1,['k'],['k'],Y,,,,,Female,20
0,30,30,490,1,['k'],['k'],Y,,,,,Female,20
0,31,31,243,1,['k'],['d'],N,,,,,Female,20
0,32,32,134,1,['k'],['d'],N,,,,,Female,20
0,33,33,357,1,['d'],['k'],N,,,,,Female,20
0,34,34,229,1,['k'],['d'],N,,,,,Female,20
0,35,35,145,1,['k'],['d'],N,,,,,Female,20
0,36,36,270,1,['d'],['d'],Y,,,,,Female,20
0,37,37,41,1,['d'],['d'],Y,,,,,Female,20
0,38,38,154,1,['d'],['d'],Y,,,,,Female,20
0,39,39,9,1,['k'],['d'],N,,,,,Female,20
0,40,40,132,1,['d'],['d'],Y,,,,,Female,20
0,41,41,563,1,['k'],['k'],Y,,,,,Female,20
0,42,42,125,1,['d'],['d'],Y,,,,,Female,20
0,43,43,208,1,['d'],['d'],Y,,,,,Female,20
0,44,44,149,1,['d'],['d'],Y,,,,,Female,20
0,45,45,16,1,['d'],['d'],Y,,,,,Female,20
0,46,46,274,1,['d'],['d'],Y,,,,,Female,20
0,47,47,11,1,['d'],['d'],Y,,,,,Female,20
0,48,48,273,1,['k'],['d'],N,,,,,Female,20
0,49,49,583,1,['k'],['k'],Y,26,0,,,Female,20
0,50,50,66,2,['k'],['d'],N,,,,,Female,20
0,51,51,291,2,['d'],['d'],Y,,,,,Female,20
0,52,52,597,2,['k'],['k'],Y,,,,,Female,20
0,53,53,153,2,['d'],['d'],Y,,,,,Female,20
0,54,54,232,2,['d'],['d'],Y,,,,,Female,20
0,55,55,377,2,['k'],['k'],Y,,,,,Female,20
0,56,56,374,2,['k'],['k'],Y,,,,,Female,20
0,57,57,378,2,['k'],['k'],Y,,,,,Female,20
0,58,58,204,2,['d'],['d'],Y,,,,,Female,20
0,59,59,502,2,['k'],['k'],Y,,,,,Female,20
0,60,60,209,2,['d'],['d'],Y,,,,,Female,20
0,61,61,275,2,['d'],['d'],Y,,,,,Female,20
0,62,62,474,2,['k'],['k'],Y,,,,,Female,20
0,63,63,439,2,['k'],['k'],Y,,,,,Female,20
0,64,64,368,2,['k'],['k'],Y,,,,,Female,20
0,65,65,449,2,['k'],['k'],Y,,,,,Female,20
0,66,66,32,2,['d'],['d'],Y,,,,,Female,20
0,67,67,413,2,['k'],['k'],Y,,,,,Female,20
0,68,68,290,2,['d'],['d'],Y,,,,,Female,20
0,69,69,576,2,['k'],['k'],Y,,,,,Female,20
0,70,70,389,2,['k'],['k'],Y,,,,,Female,20
0,71,71,2,2,['k'],['d'],N,,,,,Female,20
0,72,72,269,2,['d'],['d'],Y,,,,,Female,20
0,73,73,292,2,['d'],['d'],Y,,,,,Female,20
0,74,74,534,2,['k'],['k'],Y,,,,,Female,20
0,75,75,585,2,['k'],['k'],Y,,,,,Female,20
0,76,76,85,2,['d'],['d'],Y,,,,,Female,20
0,77,77,538,2,['k'],['k'],Y,,,,,Female,20
0,78,78,548,2,['k'],['k'],Y,,,,,Female,20
0,79,79,559,2,['k'],['k'],Y,,,,,Female,20
0,80,80,148,2,['d'],['d'],Y,,,,,Female,20
0,81,81,351,2,['k'],['k'],Y,,,,,Female,20
0,82,82,352,2,['k'],['k'],Y,,,,,Female,20
0,83,83,236,2,['d'],['d'],Y,,,,,Female,20
0,84,84,278,2,['d'],['d'],Y,,,,,Female,20
0,85,85,305,2,['k'],['k'],Y,,,,,Female,20
0,86,86,117,2,['d'],['d'],Y,,,,,Female,20
0,87,87,436,2,['d'],['k'],N,,,,,Female,20
0,88,88,83,2,['d'],['d'],Y,,,,,Female,20
0,89,89,22,2,['d'],['d'],Y,,,,,Female,20
0,90,90,293,2,['d'],['d'],Y,,,,,Female,20
0,91,91,589,2,['k'],['k'],Y,,,,,Female,20
0,92,92,482,2,['k'],['k'],Y,,,,,Female,20
0,93,93,327,2,['k'],['k'],Y,,,,,Female,20
0,94,94,238,2,['d'],['d'],Y,,,,,Female,20
0,95,95,164,2,['d'],['d'],Y,,,,,Female,20
0,96,96,430,2,['k'],['k'],Y,,,,,Female,20
0,97,97,412,2,['k'],['k'],Y,,,,,Female,20
0,98,98,4,2,['k'],['d'],N,,,,,Female,20
0,99,99,137,2,['d'],['d'],Y,46,0,,,Female,20
0,100,100,163,3,['d'],['d'],Y,,,,,Female,20
0,101,101,39,3,['d'],['d'],Y,,,,,Female,20
0,102,102,253,3,['d'],['d'],Y,,,,,Female,20
0,103,103,568,3,['k'],['k'],Y,,,,,Female,20
0,104,104,457,3,['k'],['k'],Y,,,,,Female,20
0,105,105,426,3,['k'],['k'],Y,,,,,Female,20
0,106,106,289,3,['d'],['d'],Y,,,,,Female,20
0,107,107,475,3,['k'],['k'],Y,,,,,Female,20
0,108,108,174,3,['d'],['d'],Y,,,,,Female,20
0,109,109,596,3,['k'],['k'],Y,,,,,Female,20
0,110,110,331,3,['k'],['k'],Y,,,,,Female,20
0,111,111,349,3,['k'],['k'],Y,,,,,Female,20
0,112,112,427,3,['k'],['k'],Y,,,,,Female,20
0,113,113,460,3,['k'],['k'],Y,,,,,Female,20
0,114,114,216,3,['d'],['d'],Y,,,,,Female,20
0,115,115,75,3,['d'],['d'],Y,,,,,Female,20
0,116,116,448,3,['k'],['k'],Y,,,,,Female,20
0,117,117,366,3,['k'],['k'],Y,,,,,Female,20
0,118,118,514,3,['d'],['k'],N,,,,,Female,20
0,119,119,55,3,['k'],['d'],N,,,,,Female,20
0,120,120,213,3,['d'],['d'],Y,,,,,Female,20
0,121,121,261,3,['d'],['d'],Y,,,,,Female,20
0,122,122,259,3,['d'],['d'],Y,,,,,Female,20
0,123,123,61,3,['d'],['d'],Y,,,,,Female,20
0,124,124,591,3,['k'],['k'],Y,,,,,Female,20
0,125,125,81,3,['d'],['d'],Y,,,,,Female,20
0,126,126,511,3,['k'],['k'],Y,,,,,Female,20
0,127,127,470,3,['k'],['k'],Y,,,,,Female,20
0,128,128,173,3,['d'],['d'],Y,,,,,Female,20
0,129,129,277,3,['d'],['d'],Y,,,,,Female,20
0,130,130,489,3,['k'],['k'],Y,,,,,Female,20
0,131,131,36,3,['d'],['d'],Y,,,,,Female,20
0,132,132,241,3,['d'],['d'],Y,,,,,Female,20
0,133,133,334,3,['k'],['k'],Y,,,,,Female,20
0,134,134,146,3,['d'],['d'],Y,,,,,Female,20
0,135,135,262,3,['d'],['d'],Y,,,,,Female,20
0,136,136,179,3,['d'],['d'],Y,,,,,Female,20
0,137,137,260,3,['d'],['d'],Y,,,,,Female,20
0,138,138,313,3,['k'],['k'],Y,,,,,Female,20
0,139,139,123,3,['d'],['d'],Y,,,,,Female,20
0,140,140,529,3,['k'],['k'],Y,,,,,Female,20
0,141,141,501,3,['k'],['k'],Y,,,,,Female,20
0,142,142,122,3,['d'],['d'],Y,,,,,Female,20
0,143,143,355,3,['k'],['k'],Y,,,,,Female,20
0,144,144,348,3,['k'],['k'],Y,,,,,Female,20
0,145,145,599,3,['k'],['k'],Y,,,,,Female,20
0,146,146,47,3,['d'],['d'],Y,,,,,Female,20
0,147,147,586,3,['k'],['k'],Y,,,,,Female,20
0,148,148,71,3,['d'],['d'],Y,,,,,Female,20
0,149,149,104,3,['d'],['d'],Y,48,0,,,Female,20
0,150,150,312,4,['k'],['k'],Y,,,,,Female,20
0,151,151,391,4,['k'],['k'],Y,,,,,Female,20
0,152,152,549,4,['k'],['k'],Y,,,,,Female,20
0,153,153,564,4,['k'],['k'],Y,,,,,Female,20
0,154,154,361,4,['k'],['k'],Y,,,,,Female,20
0,155,155,362,4,['k'],['k'],Y,,,,,Female,20
0,156,156,566,4,['k'],['k'],Y,,,,,Female,20
0,157,157,573,4,['k'],['k'],Y,,,,,Female,20
0,158,158,203,4,['d'],['d'],Y,,,,,Female,20
0,159,159,192,4,['d'],['d'],Y,,,,,Female,20
0,160,160,249,4,['d'],['d'],Y,,,,,Female,20
0,161,161,124,4,['d'],['d'],Y,,,,,Female,20
0,162,162,113,4,['d'],['d'],Y,,,,,Female,20
0,163,163,78,4,['d'],['d'],Y,,,,,Female,20
0,164,164,184,4,['d'],['d'],Y,,,,,Female,20
0,165,165,381,4,['k'],['k'],Y,,,,,Female,20
0,166,166,95,4,['d'],['d'],Y,,,,,Female,20
0,167,167,370,4,['k'],['k'],Y,,,,,Female,20
0,168,168,575,4,['k'],['k'],Y,,,,,Female,20
0,169,169,459,4,['k'],['k'],Y,,,,,Female,20
0,170,170,384,4,['k'],['k'],Y,,,,,Female,20
0,171,171,106,4,['d'],['d'],Y,,,,,Female,20
0,172,172,509,4,['k'],['k'],Y,,,,,Female,20
0,173,173,7,4,['d'],['d'],Y,,,,,Female,20
0,174,174,595,4,['k'],['k'],Y,,,,,Female,20
0,175,175,503,4,['k'],['k'],Y,,,,,Female,20
0,176,176,235,4,['d'],['d'],Y,,,,,Female,20
0,177,177,284,4,['d'],['d'],Y,,,,,Female,20
0,178,178,526,4,['k'],['k'],Y,,,,,Female,20
0,179,179,43,4,['d'],['d'],Y,,,,,Female,20
0,180,180,287,4,['d'],['d'],Y,,,,,Female,20
0,181,181,400,4,None,,Timed out,,,,,Female,20
0,182,182,495,4,['k'],['k'],Y,,,,,Female,20
0,183,183,272,4,['d'],['d'],Y,,,,,Female,20
0,184,184,44,4,['d'],['d'],Y,,,,,Female,20
0,185,185,218,4,['d'],['d'],Y,,,,,Female,20
0,186,186,214,4,['d'],['d'],Y,,,,,Female,20
0,187,187,333,4,['k'],['k'],Y,,,,,Female,20
0,188,188,518,4,['k'],['k'],Y,,,,,Female,20
0,189,189,130,4,['d'],['d'],Y,,,,,Female,20
0,190,190,245,4,['d'],['d'],Y,,,,,Female,20
0,191,191,110,4,['d'],['d'],Y,,,,,Female,20
0,192,192,587,4,['k'],['k'],Y,,,,,Female,20
0,193,193,26,4,['d'],['d'],Y,,,,,Female,20
0,194,194,10,4,['d'],['d'],Y,,,,,Female,20
0,195,195,198,4,['d'],['d'],Y,,,,,Female,20
0,196,196,373,4,['k'],['k'],Y,,,,,Female,20
0,197,197,57,4,['d'],['d'],Y,,,,,Female,20
0,198,198,80,4,['d'],['d'],Y,,,,,Female,20
0,199,199,103,4,['d'],['d'],Y,49,0,,,Female,20
0,200,200,335,5,['k'],['k'],Y,,,,,Female,20
0,201,201,90,5,['d'],['d'],Y,,,,,Female,20
0,202,202,561,5,['k'],['k'],Y,,,,,Female,20
0,203,203,525,5,['k'],['k'],Y,,,,,Female,20
0,204,204,485,5,['k'],['k'],Y,,,,,Female,20
0,205,205,390,5,['k'],['k'],Y,,,,,Female,20
0,206,206,396,5,['k'],['k'],Y,,,,,Female,20
0,207,207,461,5,['k'],['k'],Y,,,,,Female,20
0,208,208,227,5,['d'],['d'],Y,,,,,Female,20
0,209,209,264,5,['d'],['d'],Y,,,,,Female,20
0,210,210,302,5,['k'],['k'],Y,,,,,Female,20
0,211,211,175,5,['k'],['d'],N,,,,,Female,20
0,212,212,444,5,['k'],['k'],Y,,,,,Female,20
0,213,213,539,5,['k'],['k'],Y,,,,,Female,20
0,214,214,119,5,['d'],['d'],Y,,,,,Female,20
0,215,215,363,5,['k'],['k'],Y,,,,,Female,20
0,216,216,23,5,['d'],['d'],Y,,,,,Female,20
0,217,217,190,5,['d'],['d'],Y,,,,,Female,20
0,218,218,202,5,['d'],['d'],Y,,,,,Female,20
0,219,219,521,5,['k'],['k'],Y,,,,,Female,20
0,220,220,403,5,['d'],['k'],N,,,,,Female,20
0,221,221,237,5,['d'],['d'],Y,,,,,Female,20
0,222,222,147,5,['d'],['d'],Y,,,,,Female,20
0,223,223,486,5,['k'],['k'],Y,,,,,Female,20
0,224,224,480,5,['k'],['k'],Y,,,,,Female,20
0,225,225,294,5,['d'],['d'],Y,,,,,Female,20
0,226,226,219,5,['d'],['d'],Y,,,,,Female,20
0,227,227,263,5,['d'],['d'],Y,,,,,Female,20
0,228,228,429,5,['k'],['k'],Y,,,,,Female,20
0,229,229,131,5,['d'],['d'],Y,,,,,Female,20
0,230,230,207,5,['d'],['d'],Y,,,,,Female,20
0,231,231,554,5,['k'],['k'],Y,,,,,Female,20
0,232,232,226,5,['d'],['d'],Y,,,,,Female,20
0,233,233,487,5,['k'],['k'],Y,,,,,Female,20
0,234,234,324,5,['d'],['k'],N,,,,,Female,20
0,235,235,394,5,['k'],['k'],Y,,,,,Female,20
0,236,236,165,5,['d'],['d'],Y,,,,,Female,20
0,237,237,405,5,['k'],['k'],Y,,,,,Female,20
0,238,238,77,5,['d'],['d'],Y,,,,,Female,20
0,239,239,223,5,['d'],['d'],Y,,,,,Female,20
0,240,240,176,5,['d'],['d'],Y,,,,,Female,20
0,241,241,299,5,['d'],['d'],Y,,,,,Female,20
0,242,242,199,5,['d'],['d'],Y,,,,,Female,20
0,243,243,382,5,['k'],['k'],Y,,,,,Female,20
0,244,244,569,5,['k'],['k'],Y,,,,,Female,20
0,245,245,169,5,['d'],['d'],Y,,,,,Female,20
0,246,246,240,5,['d'],['d'],Y,,,,,Female,20
0,247,247,168,5,['d'],['d'],Y,,,,,Female,20
0,248,248,477,5,['k'],['k'],Y,,,,,Female,20
0,249,249,562,5,['k'],['k'],Y,47,0,,,Female,20
0,250,250,515,6,['k'],['k'],Y,,,,,Female,20
0,251,251,364,6,['k'],['k'],Y,,,,,Female,20
0,252,252,172,6,['d'],['d'],Y,,,,,Female,20
0,253,253,423,6,['k'],['k'],Y,,,,,Female,20
0,254,254,112,6,['d'],['d'],Y,,,,,Female,20
0,255,255,508,6,['k'],['k'],Y,,,,,Female,20
0,256,256,519,6,['k'],['k'],Y,,,,,Female,20
0,257,257,298,6,['d'],['d'],Y,,,,,Female,20
0,258,258,76,6,['d'],['d'],Y,,,,,Female,20
0,259,259,584,6,['k'],['k'],Y,,,,,Female,20
0,260,260,435,6,['k'],['k'],Y,,,,,Female,20
0,261,261,491,6,['d'],['k'],N,,,,,Female,20
0,262,262,20,6,['d'],['d'],Y,,,,,Female,20
0,263,263,88,6,['d'],['d'],Y,,,,,Female,20
0,264,264,574,6,['k'],['k'],Y,,,,,Female,20
0,265,265,271,6,['d'],['d'],Y,,,,,Female,20
0,266,266,328,6,['k'],['k'],Y,,,,,Female,20
0,267,267,252,6,['k'],['d'],N,,,,,Female,20
0,268,268,410,6,['k'],['k'],Y,,,,,Female,20
0,269,269,541,6,['k'],['k'],Y,,,,,Female,20
0,270,270,297,6,['d'],['d'],Y,,,,,Female,20
0,271,271,336,6,['k'],['k'],Y,,,,,Female,20
0,272,272,338,6,['k'],['k'],Y,,,,,Female,20
0,273,273,155,6,['d'],['d'],Y,,,,,Female,20
0,274,274,344,6,['k'],['k'],Y,,,,,Female,20
0,275,275,258,6,['d'],['d'],Y,,,,,Female,20
0,276,276,442,6,['k'],['k'],Y,,,,,Female,20
0,277,277,234,6,None,,Timed out,,,,,Female,20
0,278,278,217,6,None,,Timed out,,,,,Female,20
0,279,279,415,6,['k'],['k'],Y,,,,,Female,20
0,280,280,133,6,['d'],['d'],Y,,,,,Female,20
0,281,281,56,6,['d'],['d'],Y,,,,,Female,20
0,282,282,419,6,['k'],['k'],Y,,,,,Female,20
0,283,283,178,6,['d'],['d'],Y,,,,,Female,20
0,284,284,343,6,['k'],['k'],Y,,,,,Female,20
0,285,285,82,6,['d'],['d'],Y,,,,,Female,20
0,286,286,171,6,['d'],['d'],Y,,,,,Female,20
0,287,287,414,6,['k'],['k'],Y,,,,,Female,20
0,288,288,156,6,['d'],['d'],Y,,,,,Female,20
0,289,289,89,6,['d'],['d'],Y,,,,,Female,20
0,290,290,450,6,['k'],['k'],Y,,,,,Female,20
0,291,291,537,6,['k'],['k'],Y,,,,,Female,20
0,292,292,221,6,['d'],['d'],Y,,,,,Female,20
0,293,293,325,6,['k'],['k'],Y,,,,,Female,20
0,294,294,128,6,['d'],['d'],Y,,,,,Female,20
0,295,295,359,6,['k'],['k'],Y,,,,,Female,20
0,296,296,572,6,['k'],['k'],Y,,,,,Female,20
0,297,297,528,6,['k'],['k'],Y,,,,,Female,20
0,298,298,267,6,['d'],['d'],Y,,,,,Female,20
0,299,299,467,6,['k'],['k'],Y,46,0,,,Female,20
0,300,300,211,7,['d'],['d'],Y,,,,,Female,20
0,301,301,256,7,['d'],['d'],Y,,,,,Female,20
0,302,302,365,7,['k'],['k'],Y,,,,,Female,20
0,303,303,60,7,['d'],['d'],Y,,,,,Female,20
0,304,304,310,7,['k'],['k'],Y,,,,,Female,20
0,305,305,455,7,['k'],['k'],Y,,,,,Female,20
0,306,306,188,7,['d'],['d'],Y,,,,,Female,20
0,307,307,150,7,['d'],['d'],Y,,,,,Female,20
0,308,308,144,7,['d'],['d'],Y,,,,,Female,20
0,309,309,588,7,['k'],['k'],Y,,,,,Female,20
0,310,310,53,7,['d'],['d'],Y,,,,,Female,20
0,311,311,242,7,['d'],['d'],Y,,,,,Female,20
0,312,312,353,7,['k'],['k'],Y,,,,,Female,20
0,313,313,136,7,['d'],['d'],Y,,,,,Female,20
0,314,314,445,7,['k'],['k'],Y,,,,,Female,20
0,315,315,311,7,['k'],['k'],Y,,,,,Female,20
0,316,316,166,7,['d'],['d'],Y,,,,,Female,20
0,317,317,40,7,['d'],['d'],Y,,,,,Female,20
0,318,318,309,7,['k'],['k'],Y,,,,,Female,20
0,319,319,6,7,['k'],['d'],N,,,,,Female,20
0,320,320,228,7,['d'],['d'],Y,,,,,Female,20
0,321,321,48,7,['d'],['d'],Y,,,,,Female,20
0,322,322,383,7,['k'],['k'],Y,,,,,Female,20
0,323,323,385,7,['k'],['k'],Y,,,,,Female,20
0,324,324,558,7,['k'],['k'],Y,,,,,Female,20
0,325,325,437,7,['k'],['k'],Y,,,,,Female,20
0,326,326,387,7,['k'],['k'],Y,,,,,Female,20
0,327,327,516,7,['k'],['k'],Y,,,,,Female,20
0,328,328,555,7,['k'],['k'],Y,,,,,Female,20
0,329,329,492,7,['k'],['k'],Y,,,,,Female,20
0,330,330,257,7,['d'],['d'],Y,,,,,Female,20
0,331,331,37,7,['d'],['d'],Y,,,,,Female,20
0,332,332,247,7,['d'],['d'],Y,,,,,Female,20
0,333,333,248,7,['d'],['d'],Y,,,,,Female,20
0,334,334,151,7,['d'],['d'],Y,,,,,Female,20
0,335,335,498,7,['k'],['k'],Y,,,,,Female,20
0,336,336,167,7,['d'],['d'],Y,,,,,Female,20
0,337,337,469,7,['k'],['k'],Y,,,,,Female,20
0,338,338,440,7,['k'],['k'],Y,,,,,Female,20
0,339,339,220,7,['d'],['d'],Y,,,,,Female,20
0,340,340,35,7,['d'],['d'],Y,,,,,Female,20
0,341,341,388,7,['k'],['k'],Y,,,,,Female,20
0,342,342,18,7,['d'],['d'],Y,,,,,Female,20
0,343,343,140,7,['d'],['d'],Y,,,,,Female,20
0,344,344,560,7,['k'],['k'],Y,,,,,Female,20
0,345,345,456,7,['k'],['k'],Y,,,,,Female,20
0,346,346,87,7,['d'],['d'],Y,,,,,Female,20
0,347,347,301,7,['k'],['k'],Y,,,,,Female,20
0,348,348,504,7,['k'],['k'],Y,,,,,Female,20
0,349,349,350,7,['k'],['k'],Y,49,0,,,Female,20
0,350,350,401,8,['k'],['k'],Y,,,,,Female,20
0,351,351,360,8,['k'],['k'],Y,,,,,Female,20
0,352,352,315,8,['k'],['k'],Y,,,,,Female,20
0,353,353,447,8,['k'],['k'],Y,,,,,Female,20
0,354,354,527,8,['k'],['k'],Y,,,,,Female,20
0,355,355,158,8,['d'],['d'],Y,,,,,Female,20
0,356,356,329,8,['k'],['k'],Y,,,,,Female,20
0,357,357,17,8,['d'],['d'],Y,,,,,Female,20
0,358,358,254,8,['d'],['d'],Y,,,,,Female,20
0,359,359,438,8,['k'],['k'],Y,,,,,Female,20
0,360,360,506,8,['k'],['k'],Y,,,,,Female,20
0,361,361,395,8,['k'],['k'],Y,,,,,Female,20
0,362,362,288,8,['d'],['d'],Y,,,,,Female,20
0,363,363,27,8,['d'],['d'],Y,,,,,Female,20
0,364,364,500,8,['k'],['k'],Y,,,,,Female,20
0,365,365,303,8,['k'],['k'],Y,,,,,Female,20
0,366,366,94,8,['d'],['d'],Y,,,,,Female,20
0,367,367,142,8,['d'],['d'],Y,,,,,Female,20
0,368,368,224,8,['d'],['d'],Y,,,,,Female,20
0,369,369,38,8,['d'],['d'],Y,,,,,Female,20
0,370,370,109,8,['d'],['d'],Y,,,,,Female,20
0,371,371,200,8,['d'],['d'],Y,,,,,Female,20
0,372,372,181,8,['d'],['d'],Y,,,,,Female,20
0,373,373,70,8,['d'],['d'],Y,,,,,Female,20
0,374,374,543,8,['k'],['k'],Y,,,,,Female,20
0,375,375,420,8,['k'],['k'],Y,,,,,Female,20
0,376,376,84,8,['d'],['d'],Y,,,,,Female,20
0,377,377,65,8,['d'],['d'],Y,,,,,Female,20
0,378,378,183,8,['d'],['d'],Y,,,,,Female,20
0,379,379,424,8,['k'],['k'],Y,,,,,Female,20
0,380,380,46,8,['d'],['d'],Y,,,,,Female,20
0,381,381,29,8,['d'],['d'],Y,,,,,Female,20
0,382,382,443,8,['k'],['k'],Y,,,,,Female,20
0,383,383,115,8,['d'],['d'],Y,,,,,Female,20
0,384,384,59,8,['d'],['d'],Y,,,,,Female,20
0,385,385,356,8,['k'],['k'],Y,,,,,Female,20
0,386,386,473,8,['d'],['k'],N,,,,,Female,20
0,387,387,458,8,['k'],['k'],Y,,,,,Female,20
0,388,388,580,8,['k'],['k'],Y,,,,,Female,20
0,389,389,499,8,['k'],['k'],Y,,,,,Female,20
0,390,390,91,8,['d'],['d'],Y,,,,,Female,20
0,391,391,428,8,['k'],['k'],Y,,,,,Female,20
0,392,392,453,8,['k'],['k'],Y,,,,,Female,20
0,393,393,332,8,['k'],['k'],Y,,,,,Female,20
0,394,394,346,8,['k'],['k'],Y,,,,,Female,20
0,395,395,93,8,['d'],['d'],Y,,,,,Female,20
0,396,396,409,8,['k'],['k'],Y,,,,,Female,20
0,397,397,286,8,['d'],['d'],Y,,,,,Female,20
0,398,398,231,8,['d'],['d'],Y,,,,,Female,20
0,399,399,418,8,['k'],['k'],Y,49,0,,,Female,20
0,400,400,79,9,['d'],['d'],Y,,,,,Female,20
0,401,401,372,9,['k'],['k'],Y,,,,,Female,20
0,402,402,510,9,['k'],['k'],Y,,,,,Female,20
0,403,403,367,9,['k'],['k'],Y,,,,,Female,20
0,404,404,30,9,['d'],['d'],Y,,,,,Female,20
0,405,405,397,9,['k'],['k'],Y,,,,,Female,20
0,406,406,194,9,['d'],['d'],Y,,,,,Female,20
0,407,407,432,9,['k'],['k'],Y,,,,,Female,20
0,408,408,19,9,['d'],['d'],Y,,,,,Female,20
0,409,409,42,9,['d'],['d'],Y,,,,,Female,20
0,410,410,479,9,['k'],['k'],Y,,,,,Female,20
0,411,411,246,9,['d'],['d'],Y,,,,,Female,20
0,412,412,308,9,['k'],['k'],Y,,,,,Female,20
0,413,413,159,9,['d'],['d'],Y,,,,,Female,20
0,414,414,74,9,['d'],['d'],Y,,,,,Female,20
0,415,415,523,9,['k'],['k'],Y,,,,,Female,20
0,416,416,488,9,['k'],['k'],Y,,,,,Female,20
0,417,417,530,9,['k'],['k'],Y,,,,,Female,20
0,418,418,15,9,['d'],['d'],Y,,,,,Female,20
0,419,419,100,9,['d'],['d'],Y,,,,,Female,20
0,420,420,244,9,['d'],['d'],Y,,,,,Female,20
0,421,421,547,9,['k'],['k'],Y,,,,,Female,20
0,422,422,152,9,['d'],['d'],Y,,,,,Female,20
0,423,423,567,9,['k'],['k'],Y,,,,,Female,20
0,424,424,318,9,None,,Timed out,,,,,Female,20
0,425,425,422,9,['k'],['k'],Y,,,,,Female,20
0,426,426,187,9,['d'],['d'],Y,,,,,Female,20
0,427,427,121,9,['d'],['d'],Y,,,,,Female,20
0,428,428,496,9,['k'],['k'],Y,,,,,Female,20
0,429,429,582,9,['k'],['k'],Y,,,,,Female,20
0,430,430,342,9,['k'],['k'],Y,,,,,Female,20
0,431,431,557,9,['k'],['k'],Y,,,,,Female,20
0,432,432,114,9,['d'],['d'],Y,,,,,Female,20
0,433,433,512,9,['k'],['k'],Y,,,,,Female,20
0,434,434,314,9,['k'],['k'],Y,,,,,Female,20
0,435,435,553,9,['k'],['k'],Y,,,,,Female,20
0,436,436,494,9,['k'],['k'],Y,,,,,Female,20
0,437,437,406,9,['k'],['k'],Y,,,,,Female,20
0,438,438,283,9,['d'],['d'],Y,,,,,Female,20
0,439,439,255,9,['d'],['d'],Y,,,,,Female,20
0,440,440,379,9,['k'],['k'],Y,,,,,Female,20
0,441,441,304,9,['k'],['k'],Y,,,,,Female,20
0,442,442,1,9,['d'],['d'],Y,,,,,Female,20
0,443,443,295,9,['d'],['d'],Y,,,,,Female,20
0,444,444,282,9,['d'],['d'],Y,,,,,Female,20
0,445,445,465,9,['k'],['k'],Y,,,,,Female,20
0,446,446,462,9,['k'],['k'],Y,,,,,Female,20
0,447,447,339,9,['k'],['k'],Y,,,,,Female,20
0,448,448,34,9,['d'],['d'],Y,,,,,Female,20
0,449,449,49,9,['d'],['d'],Y,49,0,,,Female,20
0,450,450,102,10,['d'],['d'],Y,,,,,Female,20
0,451,451,369,10,['k'],['k'],Y,,,,,Female,20
0,452,452,590,10,['k'],['k'],Y,,,,,Female,20
0,453,453,69,10,['d'],['d'],Y,,,,,Female,20
0,454,454,73,10,['d'],['d'],Y,,,,,Female,20
0,455,455,380,10,['k'],['k'],Y,,,,,Female,20
0,456,456,425,10,['k'],['k'],Y,,,,,Female,20
0,457,457,483,10,['k'],['k'],Y,,,,,Female,20
0,458,458,185,10,['d'],['d'],Y,,,,,Female,20
0,459,459,33,10,['d'],['d'],Y,,,,,Female,20
0,460,460,570,10,['k'],['k'],Y,,,,,Female,20
0,461,461,411,10,['k'],['k'],Y,,,,,Female,20
0,462,462,161,10,['d'],['d'],Y,,,,,Female,20
0,463,463,108,10,['d'],['d'],Y,,,,,Female,20
0,464,464,524,10,['k'],['k'],Y,,,,,Female,20
0,465,465,594,10,['k'],['k'],Y,,,,,Female,20
0,466,466,592,10,['k'],['k'],Y,,,,,Female,20
0,467,467,13,10,['d'],['d'],Y,,,,,Female,20
0,468,468,162,10,['d'],['d'],Y,,,,,Female,20
0,469,469,446,10,['k'],['k'],Y,,,,,Female,20
0,470,470,225,10,['d'],['d'],Y,,,,,Female,20
0,471,471,531,10,['k'],['k'],Y,,,,,Female,20
0,472,472,143,10,['d'],['d'],Y,,,,,Female,20
0,473,473,536,10,['k'],['k'],Y,,,,,Female,20
0,474,474,347,10,['k'],['k'],Y,,,,,Female,20
0,475,475,497,10,['k'],['k'],Y,,,,,Female,20
0,476,476,111,10,['d'],['d'],Y,,,,,Female,20
0,477,477,24,10,['d'],['d'],Y,,,,,Female,20
0,478,478,63,10,['d'],['d'],Y,,,,,Female,20
0,479,479,408,10,['k'],['k'],Y,,,,,Female,20
0,480,480,345,10,['k'],['k'],Y,,,,,Female,20
0,481,481,535,10,['k'],['k'],Y,,,,,Female,20
0,482,482,98,10,['d'],['d'],Y,,,,,Female,20
0,483,483,484,10,['k'],['k'],Y,,,,,Female,20
0,484,484,505,10,['k'],['k'],Y,,,,,Female,20
0,485,485,51,10,['d'],['d'],Y,,,,,Female,20
0,486,486,330,10,['k'],['k'],Y,,,,,Female,20
0,487,487,160,10,['d'],['d'],Y,,,,,Female,20
0,488,488,92,10,['d'],['d'],Y,,,,,Female,20
0,489,489,21,10,['k'],['d'],N,,,,,Female,20
0,490,490,52,10,['d'],['d'],Y,,,,,Female,20
0,491,491,197,10,['d'],['d'],Y,,,,,Female,20
0,492,492,268,10,['d'],['d'],Y,,,,,Female,20
0,493,493,322,10,['k'],['k'],Y,,,,,Female,20
0,494,494,354,10,['k'],['k'],Y,,,,,Female,20
0,495,495,233,10,['d'],['d'],Y,,,,,Female,20
0,496,496,58,10,['d'],['d'],Y,,,,,Female,20
0,497,497,468,10,['k'],['k'],Y,,,,,Female,20
0,498,498,552,10,['k'],['k'],Y,,,,,Female,20
0,499,499,206,10,['d'],['d'],Y,49,0,,,Female,20
0,500,500,416,11,['d'],['k'],N,,,Y,Y,Female,20
0,501,501,54,11,['k'],['d'],N,,,,,Female,20
0,502,502,222,11,['d'],['d'],Y,,,,,Female,20
0,503,503,579,11,['k'],['k'],Y,,,,,Female,20
0,504,504,212,11,['d'],['d'],Y,,,,,Female,20
0,505,505,126,11,['d'],['d'],Y,,,,,Female,20
0,506,506,250,11,['d'],['d'],Y,,,,,Female,20
0,507,507,598,11,['k'],['k'],Y,,,,,Female,20
0,508,508,12,11,['d'],['d'],Y,,,,,Female,20
0,509,509,550,11,['k'],['k'],Y,,,,,Female,20
0,510,510,398,11,['k'],['k'],Y,,,,,Female,20
0,511,511,230,11,['d'],['d'],Y,,,,,Female,20
0,512,512,542,11,['k'],['k'],Y,,,,,Female,20
0,513,513,141,11,['d'],['d'],Y,,,,,Female,20
0,514,514,433,11,['k'],['k'],Y,,,,,Female,20
0,515,515,421,11,['k'],['k'],Y,,,,,Female,20
0,516,516,25,11,['d'],['d'],Y,,,,,Female,20
0,517,517,239,11,['d'],['d'],Y,,,,,Female,20
0,518,518,300,11,['k'],['k'],Y,,,,,Female,20
0,519,519,546,11,['k'],['k'],Y,,,,,Female,20
0,520,520,466,11,['k'],['k'],Y,,,,,Female,20
0,521,521,138,11,['d'],['d'],Y,,,,,Female,20
0,522,522,392,11,['k'],['k'],Y,,,,,Female,20
0,523,523,463,11,['k'],['k'],Y,,,,,Female,20
0,524,524,393,11,['k'],['k'],Y,,,,,Female,20
0,525,525,513,11,['k'],['k'],Y,,,,,Female,20
0,526,526,337,11,['k'],['k'],Y,,,,,Female,20
0,527,527,472,11,['k'],['k'],Y,,,,,Female,20
0,528,528,341,11,['k'],['k'],Y,,,,,Female,20
0,529,529,593,11,['k'],['k'],Y,,,,,Female,20
0,530,530,116,11,['k'],['d'],N,,,,,Female,20
0,531,531,478,11,['k'],['k'],Y,,,,,Female,20
0,532,532,279,11,['d'],['d'],Y,,,,,Female,20
0,533,533,493,11,['k'],['k'],Y,,,,,Female,20
0,534,534,522,11,['k'],['k'],Y,,,,,Female,20
0,535,535,326,11,['k'],['k'],Y,,,,,Female,20
0,536,536,386,11,['k'],['k'],Y,,,,,Female,20
0,537,537,520,11,['k'],['k'],Y,,,,,Female,20
0,538,538,375,11,['k'],['k'],Y,,,,,Female,20
0,539,539,276,11,['d'],['d'],Y,,,,,Female,20
0,540,540,101,11,['d'],['d'],Y,,,,,Female,20
0,541,541,285,11,['d'],['d'],Y,,,,,Female,20
0,542,542,210,11,['d'],['d'],Y,,,,,Female,20
0,543,543,533,11,['k'],['k'],Y,,,,,Female,20
0,544,544,306,11,['k'],['k'],Y,,,,,Female,20
0,545,545,193,11,['k'],['d'],N,,,,,Female,20
0,546,546,62,11,['d'],['d'],Y,,,,,Female,20
0,547,547,402,11,['k'],['k'],Y,,,,,Female,20
0,548,548,139,11,['d'],['d'],Y,,,,,Female,20
0,549,549,452,11,['k'],['k'],Y,46,0,,,Female,20
0,550,550,316,12,['k'],['k'],Y,,,,,Female,20
0,551,551,545,12,['k'],['k'],Y,,,,,Female,20
0,552,552,3,12,['d'],['d'],Y,,,,,Female,20
0,553,553,266,12,['d'],['d'],Y,,,,,Female,20
0,554,554,45,12,['d'],['d'],Y,,,,,Female,20
0,555,555,127,12,['d'],['d'],Y,,,,,Female,20
0,556,556,320,12,['d'],['k'],N,,,,,Female,20
0,557,557,170,12,['d'],['d'],Y,,,,,Female,20
0,558,558,551,12,['k'],['k'],Y,,,,,Female,20
0,559,559,195,12,['k'],['d'],N,,,,,Female,20
0,560,560,129,12,['d'],['d'],Y,,,,,Female,20
0,561,561,317,12,['k'],['k'],Y,,,,,Female,20
0,562,562,64,12,['d'],['d'],Y,,,,,Female,20
0,563,563,296,12,['d'],['d'],Y,,,,,Female,20
0,564,564,196,12,['d'],['d'],Y,,,,,Female,20
0,565,565,201,12,['d'],['d'],Y,,,,,Female,20
0,566,566,431,12,['k'],['k'],Y,,,,,Female,20
0,567,567,471,12,['k'],['k'],Y,,,,,Female,20
0,568,568,321,12,['k'],['k'],Y,,,,,Female,20
0,569,569,358,12,['d'],['k'],N,,,,,Female,20
0,570,570,157,12,['d'],['d'],Y,,,,,Female,20
0,571,571,434,12,['k'],['k'],Y,,,,,Female,20
0,572,572,281,12,['d'],['d'],Y,,,,,Female,20
0,573,573,280,12,['d'],['d'],Y,,,,,Female,20
0,574,574,28,12,['d'],['d'],Y,,,,,Female,20
0,575,575,97,12,['d'],['d'],Y,,,,,Female,20
0,576,576,340,12,['k'],['k'],Y,,,,,Female,20
0,577,577,120,12,['d'],['d'],Y,,,,,Female,20
0,578,578,99,12,['d'],['d'],Y,,,,,Female,20
0,579,579,407,12,['k'],['k'],Y,,,,,Female,20
0,580,580,544,12,['k'],['k'],Y,,,,,Female,20
0,581,581,454,12,['k'],['k'],Y,,,,,Female,20
0,582,582,404,12,['d'],['k'],N,,,,,Female,20
0,583,583,532,12,['k'],['k'],Y,,,,,Female,20
0,584,584,464,12,['k'],['k'],Y,,,,,Female,20
0,585,585,0,12,['d'],['d'],Y,,,,,Female,20
0,586,586,577,12,['k'],['k'],Y,,,,,Female,20
0,587,587,205,12,['d'],['d'],Y,,,,,Female,20
0,588,588,118,12,['d'],['d'],Y,,,,,Female,20
0,589,589,8,12,['d'],['d'],Y,,,,,Female,20
0,590,590,265,12,['d'],['d'],Y,,,,,Female,20
0,591,591,177,12,['d'],['d'],Y,,,,,Female,20
0,592,592,105,12,['d'],['d'],Y,,,,,Female,20
0,593,593,68,12,['d'],['d'],Y,,,,,Female,20
0,594,594,215,12,['k'],['d'],N,,,,,Female,20
0,595,595,251,12,['d'],['d'],Y,,,,,Female,20
0,596,596,67,12,['d'],['d'],Y,,,,,Female,20
0,597,597,441,12,['k'],['k'],Y,,,,,Female,20
0,598,598,96,12,['d'],['d'],Y,,,,,Female,20
0,599,599,507,12,['k'],['k'],Y,45,0,,,Female,20
