.thisRepN,.thisTrialN,.thisN,.thisIndex,Block Number,Key pressed,Category,Correct?,Button switch shown?,Fast?,gender,age,
0,0,0,436,1,['d'],['k'],N,,,MALE,18,
0,1,1,573,1,['d'],['k'],N,,,MALE,18,
0,2,2,65,1,['k'],['d'],N,,,MALE,18,
0,3,3,7,1,['k'],['d'],N,,,MALE,18,
0,4,4,360,1,['d'],['k'],N,,,MALE,18,
0,5,5,195,1,['k'],['d'],N,,,MALE,18,
0,6,6,341,1,['k'],['k'],Y,,,MALE,18,
0,7,7,117,1,['k'],['d'],N,,,MALE,18,
0,8,8,51,1,['k'],['d'],N,,,MALE,18,
0,9,9,30,1,['k'],['d'],N,,,MALE,18,
0,10,10,356,1,['d'],['k'],N,,,MALE,18,
0,11,11,505,1,['k'],['k'],Y,,,MALE,18,
0,12,12,333,1,['d'],['k'],N,,,MALE,18,
0,13,13,188,1,['k'],['d'],N,,,MALE,18,
0,14,14,426,1,['k'],['k'],Y,,,MALE,18,
0,15,15,541,1,['d'],['k'],N,,,MALE,18,
0,16,16,311,1,['d'],['k'],N,,,MALE,18,
0,17,17,342,1,['k'],['k'],Y,,,MALE,18,
0,18,18,197,1,['k'],['d'],N,,,MALE,18,
0,19,19,143,1,['k'],['d'],N,,,MALE,18,
0,20,20,145,1,['k'],['d'],N,,,MALE,18,
0,21,21,50,1,['d'],['d'],Y,,,MALE,18,
0,22,22,386,1,['d'],['k'],N,,,MALE,18,
0,23,23,498,1,['k'],['k'],Y,,,MALE,18,
0,24,24,187,1,None,,Timed out,,,MALE,18,
0,25,25,295,1,['d'],['d'],Y,,,MALE,18,
0,26,26,217,1,['k'],['d'],N,,,MALE,18,
0,27,27,432,1,['d'],['k'],N,,,MALE,18,
0,28,28,233,1,['k'],['d'],N,,,MALE,18,
0,29,29,301,1,['k'],['k'],Y,,,MALE,18,
0,30,30,489,1,['k'],['k'],Y,,,MALE,18,
0,31,31,530,1,['k'],['k'],Y,,,MALE,18,
0,32,32,5,1,['k'],['d'],N,,,MALE,18,
0,33,33,375,1,['k'],['k'],Y,,,MALE,18,
0,34,34,146,1,['d'],['d'],Y,,,MALE,18,
0,35,35,196,1,['d'],['d'],Y,,,MALE,18,
0,36,36,499,1,['k'],['k'],Y,,,MALE,18,
0,37,37,47,1,['d'],['d'],Y,,,MALE,18,
0,38,38,423,1,['k'],['k'],Y,,,MALE,18,
0,39,39,551,1,['k'],['k'],Y,,,MALE,18,
0,40,40,118,1,['d'],['d'],Y,,,MALE,18,
0,41,41,435,1,['k'],['k'],Y,,,MALE,18,
0,42,42,331,1,['k'],['k'],Y,,,MALE,18,
0,43,43,77,1,['d'],['d'],Y,,,MALE,18,
0,44,44,328,1,['k'],['k'],Y,,,MALE,18,
0,45,45,27,1,['k'],['d'],N,,,MALE,18,
0,46,46,475,1,['k'],['k'],Y,,,MALE,18,
0,47,47,224,1,['k'],['d'],N,,,MALE,18,
0,48,48,431,1,['k'],['k'],Y,,,MALE,18,
0,49,49,6,1,['d'],['d'],Y,,,MALE,18,
0,50,50,155,2,['d'],['d'],Y,,,MALE,18,
0,51,51,389,2,['k'],['k'],Y,,,MALE,18,
0,52,52,243,2,['d'],['d'],Y,,,MALE,18,
0,53,53,128,2,['k'],['d'],N,,,MALE,18,
0,54,54,520,2,['k'],['k'],Y,,,MALE,18,
0,55,55,594,2,['k'],['k'],Y,,,MALE,18,
0,56,56,446,2,['k'],['k'],Y,,,MALE,18,
0,57,57,120,2,['d'],['d'],Y,,,MALE,18,
0,58,58,560,2,['k'],['k'],Y,,,MALE,18,
0,59,59,73,2,['d'],['d'],Y,,,MALE,18,
0,60,60,71,2,['d'],['d'],Y,,,MALE,18,
0,61,61,467,2,['k'],['k'],Y,,,MALE,18,
0,62,62,131,2,['d'],['d'],Y,,,MALE,18,
0,63,63,140,2,['d'],['d'],Y,,,MALE,18,
0,64,64,372,2,['k'],['k'],Y,,,MALE,18,
0,65,65,348,2,['k'],['k'],Y,,,MALE,18,
0,66,66,35,2,['d'],['d'],Y,,,MALE,18,
0,67,67,110,2,['d'],['d'],Y,,,MALE,18,
0,68,68,406,2,['k'],['k'],Y,,,MALE,18,
0,69,69,417,2,['k'],['k'],Y,,,MALE,18,
0,70,70,419,2,['k'],['k'],Y,,,MALE,18,
0,71,71,255,2,['d'],['d'],Y,,,MALE,18,
0,72,72,25,2,['k'],['d'],N,,,MALE,18,
0,73,73,444,2,['k'],['k'],Y,,,MALE,18,
0,74,74,261,2,['d'],['d'],Y,,,MALE,18,
0,75,75,244,2,['d'],['d'],Y,,,MALE,18,
0,76,76,411,2,['k'],['k'],Y,,,MALE,18,
0,77,77,321,2,['k'],['k'],Y,,,MALE,18,
0,78,78,198,2,['d'],['d'],Y,,,MALE,18,
0,79,79,254,2,['d'],['d'],Y,,,MALE,18,
0,80,80,588,2,['k'],['k'],Y,,,MALE,18,
0,81,81,376,2,['k'],['k'],Y,,,MALE,18,
0,82,82,14,2,['d'],['d'],Y,,,MALE,18,
0,83,83,278,2,['d'],['d'],Y,,,MALE,18,
0,84,84,494,2,['k'],['k'],Y,,,MALE,18,
0,85,85,527,2,['k'],['k'],Y,,,MALE,18,
0,86,86,453,2,['k'],['k'],Y,,,MALE,18,
0,87,87,20,2,['d'],['d'],Y,,,MALE,18,
0,88,88,284,2,['d'],['d'],Y,,,MALE,18,
0,89,89,511,2,['k'],['k'],Y,,,MALE,18,
0,90,90,361,2,['k'],['k'],Y,,,MALE,18,
0,91,91,169,2,['d'],['d'],Y,,,MALE,18,
0,92,92,16,2,['d'],['d'],Y,,,MALE,18,
0,93,93,129,2,['d'],['d'],Y,,,MALE,18,
0,94,94,105,2,['d'],['d'],Y,,,MALE,18,
0,95,95,228,2,['d'],['d'],Y,,,MALE,18,
0,96,96,209,2,['d'],['d'],Y,,,MALE,18,
0,97,97,590,2,['k'],['k'],Y,,,MALE,18,
0,98,98,465,2,['k'],['k'],Y,,,MALE,18,
0,99,99,514,2,['k'],['k'],Y,,,MALE,18,
0,100,100,43,3,['d'],['d'],Y,,,MALE,18,
0,101,101,69,3,['d'],['d'],Y,,,MALE,18,
0,102,102,368,3,['k'],['k'],Y,,,MALE,18,
0,103,103,79,3,['d'],['d'],Y,,,MALE,18,
0,104,104,123,3,['d'],['d'],Y,,,MALE,18,
0,105,105,78,3,['d'],['d'],Y,,,MALE,18,
0,106,106,322,3,['k'],['k'],Y,,,MALE,18,
0,107,107,258,3,['d'],['d'],Y,,,MALE,18,
0,108,108,408,3,['k'],['k'],Y,,,MALE,18,
0,109,109,76,3,['d'],['d'],Y,,,MALE,18,
0,110,110,493,3,['k'],['k'],Y,,,MALE,18,
0,111,111,373,3,['d'],['k'],N,,,MALE,18,
0,112,112,413,3,['k'],['k'],Y,,,MALE,18,
0,113,113,340,3,['k'],['k'],Y,,,MALE,18,
0,114,114,504,3,['k'],['k'],Y,,,MALE,18,
0,115,115,151,3,['d'],['d'],Y,,,MALE,18,
0,116,116,420,3,['k'],['k'],Y,,,MALE,18,
0,117,117,263,3,['d'],['d'],Y,,,MALE,18,
0,118,118,49,3,['d'],['d'],Y,,,MALE,18,
0,119,119,34,3,['k'],['d'],N,,,MALE,18,
0,120,120,569,3,['k'],['k'],Y,,,MALE,18,
0,121,121,61,3,['d'],['d'],Y,,,MALE,18,
0,122,122,524,3,['k'],['k'],Y,,,MALE,18,
0,123,123,442,3,['k'],['k'],Y,,,MALE,18,
0,124,124,318,3,['k'],['k'],Y,,,MALE,18,
0,125,125,471,3,['k'],['k'],Y,,,MALE,18,
0,126,126,97,3,['d'],['d'],Y,,,MALE,18,
0,127,127,312,3,['k'],['k'],Y,,,MALE,18,
0,128,128,458,3,['k'],['k'],Y,,,MALE,18,
0,129,129,506,3,['k'],['k'],Y,,,MALE,18,
0,130,130,518,3,['k'],['k'],Y,,,MALE,18,
0,131,131,398,3,['k'],['k'],Y,,,MALE,18,
0,132,132,28,3,['d'],['d'],Y,,,MALE,18,
0,133,133,251,3,['d'],['d'],Y,,,MALE,18,
0,134,134,534,3,['k'],['k'],Y,,,MALE,18,
0,135,135,407,3,['k'],['k'],Y,,,MALE,18,
0,136,136,277,3,['d'],['d'],Y,,,MALE,18,
0,137,137,53,3,['d'],['d'],Y,,,MALE,18,
0,138,138,42,3,['d'],['d'],Y,,,MALE,18,
0,139,139,509,3,['k'],['k'],Y,,,MALE,18,
0,140,140,553,3,['k'],['k'],Y,,,MALE,18,
0,141,141,55,3,['d'],['d'],Y,,,MALE,18,
0,142,142,561,3,['k'],['k'],Y,,,MALE,18,
0,143,143,543,3,['k'],['k'],Y,,,MALE,18,
0,144,144,306,3,['d'],['k'],N,,,MALE,18,
0,145,145,593,3,['k'],['k'],Y,,,MALE,18,
0,146,146,382,3,None,,Timed out,,,MALE,18,
0,147,147,387,3,['k'],['k'],Y,,,MALE,18,
0,148,148,456,3,['k'],['k'],Y,,,MALE,18,
0,149,149,563,3,['k'],['k'],Y,,,MALE,18,
0,150,150,479,4,['k'],['k'],Y,,,MALE,18,
0,151,151,507,4,['k'],['k'],Y,,,MALE,18,
0,152,152,239,4,['d'],['d'],Y,,,MALE,18,
0,153,153,111,4,['d'],['d'],Y,,,MALE,18,
0,154,154,291,4,['d'],['d'],Y,,,MALE,18,
0,155,155,316,4,['k'],['k'],Y,,,MALE,18,
0,156,156,307,4,['k'],['k'],Y,,,MALE,18,
0,157,157,242,4,['d'],['d'],Y,,,MALE,18,
0,158,158,124,4,['k'],['d'],N,,,MALE,18,
0,159,159,159,4,['d'],['d'],Y,,,MALE,18,
0,160,160,83,4,['k'],['d'],N,,,MALE,18,
0,161,161,570,4,['d'],['k'],N,,,MALE,18,
0,162,162,193,4,['d'],['d'],Y,,,MALE,18,
0,163,163,227,4,['d'],['d'],Y,,,MALE,18,
0,164,164,270,4,['d'],['d'],Y,,,MALE,18,
0,165,165,297,4,['k'],['d'],N,,,MALE,18,
0,166,166,517,4,['k'],['k'],Y,,,MALE,18,
0,167,167,477,4,['k'],['k'],Y,,,MALE,18,
0,168,168,106,4,['d'],['d'],Y,,,MALE,18,
0,169,169,115,4,['d'],['d'],Y,,,MALE,18,
0,170,170,294,4,['d'],['d'],Y,,,MALE,18,
0,171,171,343,4,['k'],['k'],Y,,,MALE,18,
0,172,172,67,4,['d'],['d'],Y,,,MALE,18,
0,173,173,429,4,['k'],['k'],Y,,,MALE,18,
0,174,174,428,4,['k'],['k'],Y,,,MALE,18,
0,175,175,134,4,['d'],['d'],Y,,,MALE,18,
0,176,176,460,4,['k'],['k'],Y,,,MALE,18,
0,177,177,66,4,['d'],['d'],Y,,,MALE,18,
0,178,178,393,4,['k'],['k'],Y,,,MALE,18,
0,179,179,526,4,['k'],['k'],Y,,,MALE,18,
0,180,180,229,4,['d'],['d'],Y,,,MALE,18,
0,181,181,236,4,['d'],['d'],Y,,,MALE,18,
0,182,182,80,4,None,,Timed out,,,MALE,18,
0,183,183,353,4,['k'],['k'],Y,,,MALE,18,
0,184,184,575,4,['k'],['k'],Y,,,MALE,18,
0,185,185,579,4,['k'],['k'],Y,,,MALE,18,
0,186,186,101,4,None,,Timed out,,,MALE,18,
0,187,187,144,4,['d'],['d'],Y,,,MALE,18,
0,188,188,450,4,['k'],['k'],Y,,,MALE,18,
0,189,189,384,4,['k'],['k'],Y,,,MALE,18,
0,190,190,583,4,['k'],['k'],Y,,,MALE,18,
0,191,191,147,4,['d'],['d'],Y,,,MALE,18,
0,192,192,226,4,['d'],['d'],Y,,,MALE,18,
0,193,193,132,4,['d'],['d'],Y,,,MALE,18,
0,194,194,1,4,['d'],['d'],Y,,,MALE,18,
0,195,195,185,4,['d'],['d'],Y,,,MALE,18,
0,196,196,190,4,['d'],['d'],Y,,,MALE,18,
0,197,197,443,4,None,,Timed out,,,MALE,18,
0,198,198,549,4,['k'],['k'],Y,,,MALE,18,
0,199,199,93,4,['k'],['d'],N,,,MALE,18,
0,200,200,516,5,['k'],['k'],Y,,,MALE,18,
0,201,201,9,5,['k'],['d'],N,,,MALE,18,
0,202,202,39,5,['d'],['d'],Y,,,MALE,18,
0,203,203,170,5,['d'],['d'],Y,,,MALE,18,
0,204,204,474,5,['k'],['k'],Y,,,MALE,18,
0,205,205,395,5,['d'],['k'],N,,,MALE,18,
0,206,206,350,5,['k'],['k'],Y,,,MALE,18,
0,207,207,41,5,['d'],['d'],Y,,,MALE,18,
0,208,208,319,5,['k'],['k'],Y,,,MALE,18,
0,209,209,325,5,['k'],['k'],Y,,,MALE,18,
0,210,210,127,5,['d'],['d'],Y,,,MALE,18,
0,211,211,114,5,['d'],['d'],Y,,,MALE,18,
0,212,212,273,5,['k'],['d'],N,,,MALE,18,
0,213,213,402,5,['k'],['k'],Y,,,MALE,18,
0,214,214,54,5,['d'],['d'],Y,,,MALE,18,
0,215,215,210,5,None,,Timed out,,,MALE,18,
0,216,216,153,5,['d'],['d'],Y,,,MALE,18,
0,217,217,491,5,['k'],['k'],Y,,,MALE,18,
0,218,218,189,5,['k'],['d'],N,,,MALE,18,
0,219,219,496,5,['k'],['k'],Y,,,MALE,18,
0,220,220,486,5,['k'],['k'],Y,,,MALE,18,
0,221,221,17,5,['d'],['d'],Y,,,MALE,18,
0,222,222,288,5,['k'],['d'],N,,,MALE,18,
0,223,223,223,5,None,,Timed out,,,MALE,18,
0,224,224,150,5,['k'],['d'],N,,,MALE,18,
0,225,225,292,5,['d'],['d'],Y,,,MALE,18,
0,226,226,275,5,['k'],['d'],N,,,MALE,18,
0,227,227,492,5,['k'],['k'],Y,,,MALE,18,
0,228,228,484,5,['k'],['k'],Y,,,MALE,18,
0,229,229,122,5,['d'],['d'],Y,,,MALE,18,
0,230,230,552,5,['k'],['k'],Y,,,MALE,18,
0,231,231,390,5,['k'],['k'],Y,,,MALE,18,
0,232,232,85,5,['d'],['d'],Y,,,MALE,18,
0,233,233,86,5,['k'],['d'],N,,,MALE,18,
0,234,234,327,5,['k'],['k'],Y,,,MALE,18,
0,235,235,300,5,['k'],['k'],Y,,,MALE,18,
0,236,236,567,5,None,,Timed out,,,MALE,18,
0,237,237,88,5,None,,Timed out,,,MALE,18,
0,238,238,344,5,['k'],['k'],Y,,,MALE,18,
0,239,239,103,5,['d'],['d'],Y,,,MALE,18,
0,240,240,508,5,['k'],['k'],Y,,,MALE,18,
0,241,241,158,5,['d'],['d'],Y,,,MALE,18,
0,242,242,473,5,['k'],['k'],Y,,,MALE,18,
0,243,243,248,5,['d'],['d'],Y,,,MALE,18,
0,244,244,156,5,['d'],['d'],Y,,,MALE,18,
0,245,245,302,5,['k'],['k'],Y,,,MALE,18,
0,246,246,222,5,None,,Timed out,,,MALE,18,
0,247,247,336,5,None,,Timed out,,,MALE,18,
0,248,248,510,5,None,,Timed out,,,MALE,18,
0,249,249,74,5,['d'],['d'],Y,,,MALE,18,
0,250,250,564,6,['k'],['k'],Y,,,MALE,18,
0,251,251,234,6,['d'],['d'],Y,,,MALE,18,
0,252,252,75,6,['d'],['d'],Y,,,MALE,18,
0,253,253,102,6,['d'],['d'],Y,,,MALE,18,
0,254,254,231,6,['d'],['d'],Y,,,MALE,18,
0,255,255,352,6,None,,Timed out,,,MALE,18,
0,256,256,355,6,['k'],['k'],Y,,,MALE,18,
0,257,257,3,6,['k'],['d'],N,,,MALE,18,
0,258,258,380,6,['k'],['k'],Y,,,MALE,18,
0,259,259,135,6,['d'],['d'],Y,,,MALE,18,
0,260,260,539,6,['k'],['k'],Y,,,MALE,18,
0,261,261,542,6,['k'],['k'],Y,,,MALE,18,
0,262,262,513,6,['k'],['k'],Y,,,MALE,18,
0,263,263,260,6,['d'],['d'],Y,,,MALE,18,
0,264,264,125,6,['k'],['d'],N,,,MALE,18,
0,265,265,577,6,['k'],['k'],Y,,,MALE,18,
0,266,266,136,6,['d'],['d'],Y,,,MALE,18,
0,267,267,274,6,['d'],['d'],Y,,,MALE,18,
0,268,268,414,6,['k'],['k'],Y,,,MALE,18,
0,269,269,112,6,['d'],['d'],Y,,,MALE,18,
0,270,270,437,6,['k'],['k'],Y,,,MALE,18,
0,271,271,598,6,['k'],['k'],Y,,,MALE,18,
0,272,272,95,6,['d'],['d'],Y,,,MALE,18,
0,273,273,558,6,['k'],['k'],Y,,,MALE,18,
0,274,274,84,6,['d'],['d'],Y,,,MALE,18,
0,275,275,347,6,['k'],['k'],Y,,,MALE,18,
0,276,276,369,6,['k'],['k'],Y,,,MALE,18,
0,277,277,38,6,['d'],['d'],Y,,,MALE,18,
0,278,278,157,6,['d'],['d'],Y,,,MALE,18,
0,279,279,452,6,['k'],['k'],Y,,,MALE,18,
0,280,280,0,6,['d'],['d'],Y,,,MALE,18,
0,281,281,310,6,['k'],['k'],Y,,,MALE,18,
0,282,282,202,6,['d'],['d'],Y,,,MALE,18,
0,283,283,559,6,['k'],['k'],Y,,,MALE,18,
0,284,284,220,6,['d'],['d'],Y,,,MALE,18,
0,285,285,183,6,['d'],['d'],Y,,,MALE,18,
0,286,286,205,6,['d'],['d'],Y,,,MALE,18,
0,287,287,99,6,['d'],['d'],Y,,,MALE,18,
0,288,288,585,6,['k'],['k'],Y,,,MALE,18,
0,289,289,582,6,['k'],['k'],Y,,,MALE,18,
0,290,290,416,6,['k'],['k'],Y,,,MALE,18,
0,291,291,330,6,None,,Timed out,,,MALE,18,
0,292,292,525,6,None,,Timed out,,,MALE,18,
0,293,293,392,6,['k'],['k'],Y,,,MALE,18,
0,294,294,178,6,['d'],['d'],Y,,,MALE,18,
0,295,295,19,6,['d'],['d'],Y,,,MALE,18,
0,296,296,421,6,['k'],['k'],Y,,,MALE,18,
0,297,297,211,6,['d'],['d'],Y,,,MALE,18,
0,298,298,57,6,['k'],['d'],N,,,MALE,18,
0,299,299,394,6,['k'],['k'],Y,,,MALE,18,
0,300,300,554,7,['k'],['k'],Y,,,MALE,18,
0,301,301,304,7,['k'],['k'],Y,,,MALE,18,
0,302,302,391,7,['k'],['k'],Y,,,MALE,18,
0,303,303,468,7,['k'],['k'],Y,,,MALE,18,
0,304,304,388,7,['k'],['k'],Y,,,MALE,18,
0,305,305,596,7,['k'],['k'],Y,,,MALE,18,
0,306,306,235,7,['d'],['d'],Y,,,MALE,18,
0,307,307,464,7,['k'],['k'],Y,,,MALE,18,
0,308,308,528,7,['k'],['k'],Y,,,MALE,18,
0,309,309,401,7,['k'],['k'],Y,,,MALE,18,
0,310,310,556,7,['k'],['k'],Y,,,MALE,18,
0,311,311,11,7,['k'],['d'],N,,,MALE,18,
0,312,312,397,7,None,,Timed out,,,MALE,18,
0,313,313,171,7,['d'],['d'],Y,,,MALE,18,
0,314,314,137,7,['d'],['d'],Y,,,MALE,18,
0,315,315,276,7,['d'],['d'],Y,,,MALE,18,
0,316,316,250,7,['d'],['d'],Y,,,MALE,18,
0,317,317,60,7,['k'],['d'],N,,,MALE,18,
0,318,318,546,7,['k'],['k'],Y,,,MALE,18,
0,319,319,98,7,['d'],['d'],Y,,,MALE,18,
0,320,320,538,7,['k'],['k'],Y,,,MALE,18,
0,321,321,180,7,['d'],['d'],Y,,,MALE,18,
0,322,322,434,7,['k'],['k'],Y,,,MALE,18,
0,323,323,405,7,['k'],['k'],Y,,,MALE,18,
0,324,324,488,7,['k'],['k'],Y,,,MALE,18,
0,325,325,425,7,['k'],['k'],Y,,,MALE,18,
0,326,326,21,7,['d'],['d'],Y,,,MALE,18,
0,327,327,503,7,['k'],['k'],Y,,,MALE,18,
0,328,328,367,7,['k'],['k'],Y,,,MALE,18,
0,329,329,253,7,['k'],['d'],N,,,MALE,18,
0,330,330,463,7,['k'],['k'],Y,,,MALE,18,
0,331,331,381,7,['k'],['k'],Y,,,MALE,18,
0,332,332,141,7,['d'],['d'],Y,,,MALE,18,
0,333,333,403,7,['k'],['k'],Y,,,MALE,18,
0,334,334,162,7,['k'],['d'],N,,,MALE,18,
0,335,335,565,7,None,,Timed out,,,MALE,18,
0,336,336,271,7,['d'],['d'],Y,,,MALE,18,
0,337,337,481,7,None,,Timed out,,,MALE,18,
0,338,338,320,7,['k'],['k'],Y,,,MALE,18,
0,339,339,584,7,['k'],['k'],Y,,,MALE,18,
0,340,340,462,7,['k'],['k'],Y,,,MALE,18,
0,341,341,470,7,['k'],['k'],Y,,,MALE,18,
0,342,342,199,7,['d'],['d'],Y,,,MALE,18,
0,343,343,221,7,['d'],['d'],Y,,,MALE,18,
0,344,344,562,7,['k'],['k'],Y,,,MALE,18,
0,345,345,113,7,None,,Timed out,,,MALE,18,
0,346,346,182,7,['d'],['d'],Y,,,MALE,18,
0,347,347,36,7,['d'],['d'],Y,,,MALE,18,
0,348,348,206,7,['d'],['d'],Y,,,MALE,18,
0,349,349,37,7,['d'],['d'],Y,,,MALE,18,
0,350,350,280,8,['d'],['d'],Y,,,MALE,18,
0,351,351,545,8,['k'],['k'],Y,,,MALE,18,
0,352,352,501,8,['k'],['k'],Y,,,MALE,18,
0,353,353,163,8,['k'],['d'],N,,,MALE,18,
0,354,354,298,8,['d'],['d'],Y,,,MALE,18,
0,355,355,412,8,['k'],['k'],Y,,,MALE,18,
0,356,356,108,8,None,,Timed out,,,MALE,18,
0,357,357,438,8,['k'],['k'],Y,,,MALE,18,
0,358,358,92,8,['d'],['d'],Y,,,MALE,18,
0,359,359,174,8,['d'],['d'],Y,,,MALE,18,
0,360,360,56,8,['d'],['d'],Y,,,MALE,18,
0,361,361,286,8,['k'],['d'],N,,,MALE,18,
0,362,362,427,8,None,,Timed out,,,MALE,18,
0,363,363,354,8,['k'],['k'],Y,,,MALE,18,
0,364,364,338,8,['k'],['k'],Y,,,MALE,18,
0,365,365,168,8,['d'],['d'],Y,,,MALE,18,
0,366,366,440,8,['k'],['k'],Y,,,MALE,18,
0,367,367,378,8,['d'],['k'],N,,,MALE,18,
0,368,368,283,8,['d'],['d'],Y,,,MALE,18,
0,369,369,349,8,['k'],['k'],Y,,,MALE,18,
0,370,370,366,8,['k'],['k'],Y,,,MALE,18,
0,371,371,332,8,['k'],['k'],Y,,,MALE,18,
0,372,372,599,8,['k'],['k'],Y,,,MALE,18,
0,373,373,8,8,['d'],['d'],Y,,,MALE,18,
0,374,374,555,8,['k'],['k'],Y,,,MALE,18,
0,375,375,48,8,None,,Timed out,,,MALE,18,
0,376,376,249,8,['k'],['d'],N,,,MALE,18,
0,377,377,581,8,['k'],['k'],Y,,,MALE,18,
0,378,378,219,8,['d'],['d'],Y,,,MALE,18,
0,379,379,299,8,['d'],['d'],Y,,,MALE,18,
0,380,380,418,8,['k'],['k'],Y,,,MALE,18,
0,381,381,451,8,['k'],['k'],Y,,,MALE,18,
0,382,382,466,8,['k'],['k'],Y,,,MALE,18,
0,383,383,515,8,['k'],['k'],Y,,,MALE,18,
0,384,384,130,8,['k'],['d'],N,,,MALE,18,
0,385,385,449,8,['k'],['k'],Y,,,MALE,18,
0,386,386,424,8,['k'],['k'],Y,,,MALE,18,
0,387,387,272,8,['k'],['d'],N,,,MALE,18,
0,388,388,70,8,None,,Timed out,,,MALE,18,
0,389,389,89,8,['d'],['d'],Y,,,MALE,18,
0,390,390,29,8,['k'],['d'],N,,,MALE,18,
0,391,391,15,8,['d'],['d'],Y,,,MALE,18,
0,392,392,587,8,['k'],['k'],Y,,,MALE,18,
0,393,393,22,8,['k'],['d'],N,,,MALE,18,
0,394,394,256,8,['d'],['d'],Y,,,MALE,18,
0,395,395,215,8,None,,Timed out,,,MALE,18,
0,396,396,52,8,['d'],['d'],Y,,,MALE,18,
0,397,397,315,8,['k'],['k'],Y,,,MALE,18,
0,398,398,314,8,['k'],['k'],Y,,,MALE,18,
0,399,399,245,8,['d'],['d'],Y,,,MALE,18,
0,400,400,430,9,['k'],['k'],Y,,,MALE,18,
0,401,401,40,9,['d'],['d'],Y,,,MALE,18,
0,402,402,404,9,['k'],['k'],Y,,,MALE,18,
0,403,403,26,9,['d'],['d'],Y,,,MALE,18,
0,404,404,580,9,['k'],['k'],Y,,,MALE,18,
0,405,405,160,9,['d'],['d'],Y,,,MALE,18,
0,406,406,116,9,['d'],['d'],Y,,,MALE,18,
0,407,407,179,9,['d'],['d'],Y,,,MALE,18,
0,408,408,497,9,['k'],['k'],Y,,,MALE,18,
0,409,409,374,9,['d'],['k'],N,,,MALE,18,
0,410,410,313,9,None,,Timed out,,,MALE,18,
0,411,411,469,9,['k'],['k'],Y,,,MALE,18,
0,412,412,290,9,['d'],['d'],Y,,,MALE,18,
0,413,413,521,9,['k'],['k'],Y,,,MALE,18,
0,414,414,167,9,['d'],['d'],Y,,,MALE,18,
0,415,415,175,9,['k'],['d'],N,,,MALE,18,
0,416,416,82,9,['k'],['d'],N,,,MALE,18,
0,417,417,218,9,None,,Timed out,,,MALE,18,
0,418,418,433,9,['k'],['k'],Y,,,MALE,18,
0,419,419,24,9,['k'],['d'],N,,,MALE,18,
0,420,420,455,9,None,,Timed out,,,MALE,18,
0,421,421,267,9,['d'],['d'],Y,,,MALE,18,
0,422,422,529,9,['k'],['k'],Y,,,MALE,18,
0,423,423,268,9,['d'],['d'],Y,,,MALE,18,
0,424,424,238,9,None,,Timed out,,,MALE,18,
0,425,425,483,9,['d'],['k'],N,,,MALE,18,
0,426,426,326,9,['k'],['k'],Y,,,MALE,18,
0,427,427,203,9,['k'],['d'],N,,,MALE,18,
0,428,428,91,9,['d'],['d'],Y,,,MALE,18,
0,429,429,409,9,None,,Timed out,,,MALE,18,
0,430,430,59,9,['d'],['d'],Y,,,MALE,18,
0,431,431,204,9,['k'],['d'],N,,,MALE,18,
0,432,432,200,9,None,,Timed out,,,MALE,18,
0,433,433,12,9,['d'],['d'],Y,,,MALE,18,
0,434,434,540,9,['k'],['k'],Y,,,MALE,18,
0,435,435,107,9,['d'],['d'],Y,,,MALE,18,
0,436,436,18,9,['d'],['d'],Y,,,MALE,18,
0,437,437,309,9,['k'],['k'],Y,,,MALE,18,
0,438,438,23,9,['d'],['d'],Y,,,MALE,18,
0,439,439,119,9,['k'],['d'],N,,,MALE,18,
0,440,440,572,9,['k'],['k'],Y,,,MALE,18,
0,441,441,461,9,None,,Timed out,,,MALE,18,
0,442,442,370,9,['k'],['k'],Y,,,MALE,18,
0,443,443,44,9,['k'],['d'],N,,,MALE,18,
0,444,444,285,9,['k'],['d'],N,,,MALE,18,
0,445,445,396,9,['k'],['k'],Y,,,MALE,18,
0,446,446,591,9,['k'],['k'],Y,,,MALE,18,
0,447,447,544,9,['k'],['k'],Y,,,MALE,18,
0,448,448,308,9,['k'],['k'],Y,,,MALE,18,
0,449,449,351,9,['k'],['k'],Y,,,MALE,18,
0,450,450,232,10,['d'],['d'],Y,,,MALE,18,
0,451,451,548,10,['d'],['k'],N,,,MALE,18,
0,452,452,207,10,['d'],['d'],Y,,,MALE,18,
0,453,453,213,10,['d'],['d'],Y,,,MALE,18,
0,454,454,252,10,['k'],['d'],N,,,MALE,18,
0,455,455,485,10,['d'],['k'],N,,,MALE,18,
0,456,456,383,10,['k'],['k'],Y,,,MALE,18,
0,457,457,550,10,['k'],['k'],Y,,,MALE,18,
0,458,458,100,10,None,,Timed out,,,MALE,18,
0,459,459,439,10,['k'],['k'],Y,,,MALE,18,
0,460,460,4,10,['d'],['d'],Y,,,MALE,18,
0,461,461,121,10,['k'],['d'],N,,,MALE,18,
0,462,462,399,10,['k'],['k'],Y,,,MALE,18,
0,463,463,87,10,['d'],['d'],Y,,,MALE,18,
0,464,464,247,10,['d'],['d'],Y,,,MALE,18,
0,465,465,500,10,['k'],['k'],Y,,,MALE,18,
0,466,466,96,10,['d'],['d'],Y,,,MALE,18,
0,467,467,487,10,['d'],['k'],N,,,MALE,18,
0,468,468,454,10,['k'],['k'],Y,,,MALE,18,
0,469,469,152,10,['d'],['d'],Y,,,MALE,18,
0,470,470,346,10,['d'],['k'],N,,,MALE,18,
0,471,471,172,10,['k'],['d'],N,,,MALE,18,
0,472,472,522,10,['k'],['k'],Y,,,MALE,18,
0,473,473,574,10,['k'],['k'],Y,,,MALE,18,
0,474,474,410,10,['k'],['k'],Y,,,MALE,18,
0,475,475,305,10,['k'],['k'],Y,,,MALE,18,
0,476,476,177,10,['d'],['d'],Y,,,MALE,18,
0,477,477,547,10,['k'],['k'],Y,,,MALE,18,
0,478,478,265,10,['d'],['d'],Y,,,MALE,18,
0,479,479,164,10,['d'],['d'],Y,,,MALE,18,
0,480,480,447,10,['k'],['k'],Y,,,MALE,18,
0,481,481,531,10,['k'],['k'],Y,,,MALE,18,
0,482,482,68,10,['d'],['d'],Y,,,MALE,18,
0,483,483,230,10,['d'],['d'],Y,,,MALE,18,
0,484,484,208,10,['k'],['d'],N,,,MALE,18,
0,485,485,597,10,['k'],['k'],Y,,,MALE,18,
0,486,486,441,10,['k'],['k'],Y,,,MALE,18,
0,487,487,519,10,['k'],['k'],Y,,,MALE,18,
0,488,488,282,10,['d'],['d'],Y,,,MALE,18,
0,489,489,94,10,['k'],['d'],N,,,MALE,18,
0,490,490,512,10,['k'],['k'],Y,,,MALE,18,
0,491,491,2,10,['d'],['d'],Y,,,MALE,18,
0,492,492,191,10,['d'],['d'],Y,,,MALE,18,
0,493,493,472,10,['k'],['k'],Y,,,MALE,18,
0,494,494,58,10,['d'],['d'],Y,,,MALE,18,
0,495,495,595,10,['k'],['k'],Y,,,MALE,18,
0,496,496,216,10,['d'],['d'],Y,,,MALE,18,
0,497,497,589,10,['k'],['k'],Y,,,MALE,18,
0,498,498,192,10,['k'],['d'],N,,,MALE,18,
0,499,499,90,10,None,,Timed out,,,MALE,18,
0,500,500,365,11,None,,Timed out,Y,Y,MALE,18,
0,501,501,422,11,['k'],['k'],Y,,,MALE,18,
0,502,502,339,11,['k'],['k'],Y,,,MALE,18,
0,503,503,194,11,['d'],['d'],Y,,,MALE,18,
0,504,504,279,11,['d'],['d'],Y,,,MALE,18,
0,505,505,323,11,['k'],['k'],Y,,,MALE,18,
0,506,506,109,11,['k'],['d'],N,,,MALE,18,
0,507,507,478,11,['k'],['k'],Y,,,MALE,18,
0,508,508,377,11,['k'],['k'],Y,,,MALE,18,
0,509,509,379,11,['k'],['k'],Y,,,MALE,18,
0,510,510,359,11,['k'],['k'],Y,,,MALE,18,
0,511,511,364,11,['k'],['k'],Y,,,MALE,18,
0,512,512,363,11,['k'],['k'],Y,,,MALE,18,
0,513,513,495,11,['k'],['k'],Y,,,MALE,18,
0,514,514,523,11,['k'],['k'],Y,,,MALE,18,
0,515,515,557,11,None,,Timed out,,,MALE,18,
0,516,516,533,11,['k'],['k'],Y,,,MALE,18,
0,517,517,362,11,['k'],['k'],Y,,,MALE,18,
0,518,518,445,11,['k'],['k'],Y,,,MALE,18,
0,519,519,10,11,['d'],['d'],Y,,,MALE,18,
0,520,520,269,11,['d'],['d'],Y,,,MALE,18,
0,521,521,142,11,['d'],['d'],Y,,,MALE,18,
0,522,522,448,11,['k'],['k'],Y,,,MALE,18,
0,523,523,293,11,['d'],['d'],Y,,,MALE,18,
0,524,524,566,11,['k'],['k'],Y,,,MALE,18,
0,525,525,104,11,['d'],['d'],Y,,,MALE,18,
0,526,526,173,11,['k'],['d'],N,,,MALE,18,
0,527,527,324,11,['k'],['k'],Y,,,MALE,18,
0,528,528,457,11,['k'],['k'],Y,,,MALE,18,
0,529,529,535,11,['k'],['k'],Y,,,MALE,18,
0,530,530,502,11,['k'],['k'],Y,,,MALE,18,
0,531,531,81,11,['d'],['d'],Y,,,MALE,18,
0,532,532,586,11,['k'],['k'],Y,,,MALE,18,
0,533,533,33,11,None,,Timed out,,,MALE,18,
0,534,534,72,11,['d'],['d'],Y,,,MALE,18,
0,535,535,201,11,['d'],['d'],Y,,,MALE,18,
0,536,536,536,11,['k'],['k'],Y,,,MALE,18,
0,537,537,335,11,['k'],['k'],Y,,,MALE,18,
0,538,538,63,11,['d'],['d'],Y,,,MALE,18,
0,539,539,371,11,['k'],['k'],Y,,,MALE,18,
0,540,540,225,11,['d'],['d'],Y,,,MALE,18,
0,541,541,139,11,['d'],['d'],Y,,,MALE,18,
0,542,542,578,11,['k'],['k'],Y,,,MALE,18,
0,543,543,181,11,['d'],['d'],Y,,,MALE,18,
0,544,544,176,11,['d'],['d'],Y,,,MALE,18,
0,545,545,264,11,['d'],['d'],Y,,,MALE,18,
0,546,546,476,11,['k'],['k'],Y,,,MALE,18,
0,547,547,237,11,['d'],['d'],Y,,,MALE,18,
0,548,548,289,11,['d'],['d'],Y,,,MALE,18,
0,549,549,184,11,['d'],['d'],Y,,,MALE,18,
0,550,550,334,12,['k'],['k'],N,Y,Y,MALE,18,
0,551,551,161,12,['k'],['d'],N,,,MALE,18,
0,552,552,148,12,['k'],['d'],N,,,MALE,18,
0,553,553,165,12,['d'],['d'],Y,,,MALE,18,
0,554,554,287,12,['d'],['d'],Y,,,MALE,18,
0,555,555,303,12,['k'],['k'],Y,,,MALE,18,
0,556,556,329,12,['k'],['k'],Y,,,MALE,18,
0,557,557,537,12,['k'],['k'],Y,,,MALE,18,
0,558,558,186,12,['d'],['d'],Y,,,MALE,18,
0,559,559,571,12,['k'],['k'],Y,,,MALE,18,
0,560,560,240,12,['d'],['d'],Y,,,MALE,18,
0,561,561,266,12,['d'],['d'],Y,,,MALE,18,
0,562,562,358,12,['k'],['k'],Y,,,MALE,18,
0,563,563,214,12,['d'],['d'],Y,,,MALE,18,
0,564,564,281,12,['d'],['d'],Y,,,MALE,18,
0,565,565,166,12,['k'],['d'],N,,,MALE,18,
0,566,566,296,12,['d'],['d'],Y,,,MALE,18,
0,567,567,212,12,['k'],['d'],N,,,MALE,18,
0,568,568,532,12,['k'],['k'],Y,,,MALE,18,
0,569,569,154,12,['d'],['d'],Y,,,MALE,18,
0,570,570,576,12,['k'],['k'],Y,,,MALE,18,
0,571,571,357,12,['k'],['k'],Y,,,MALE,18,
0,572,572,490,12,['k'],['k'],Y,,,MALE,18,
0,573,573,241,12,['k'],['d'],N,,,MALE,18,
0,574,574,482,12,['k'],['k'],Y,,,MALE,18,
0,575,575,480,12,['k'],['k'],Y,,,MALE,18,
0,576,576,345,12,['k'],['k'],Y,,,MALE,18,
0,577,577,415,12,['k'],['k'],Y,,,MALE,18,
0,578,578,400,12,None,,Timed out,,,MALE,18,
0,579,579,13,12,['k'],['d'],N,,,MALE,18,
0,580,580,126,12,['d'],['d'],Y,,,MALE,18,
0,581,581,133,12,['d'],['d'],Y,,,MALE,18,
0,582,582,149,12,['d'],['d'],Y,,,MALE,18,
0,583,583,592,12,['k'],['k'],Y,,,MALE,18,
0,584,584,31,12,['k'],['d'],N,,,MALE,18,
0,585,585,568,12,['d'],['k'],N,,,MALE,18,
0,586,586,62,12,['d'],['d'],Y,,,MALE,18,
0,587,587,257,12,['d'],['d'],Y,,,MALE,18,
0,588,588,45,12,['d'],['d'],Y,,,MALE,18,
0,589,589,385,12,['k'],['k'],Y,,,MALE,18,
0,590,590,459,12,['k'],['k'],Y,,,MALE,18,
0,591,591,259,12,['d'],['d'],Y,,,MALE,18,
0,592,592,337,12,['k'],['k'],Y,,,MALE,18,
0,593,593,138,12,['d'],['d'],Y,,,MALE,18,
0,594,594,317,12,['k'],['k'],Y,,,MALE,18,
0,595,595,262,12,['d'],['d'],Y,,,MALE,18,
0,596,596,46,12,['d'],['d'],Y,,,MALE,18,
0,597,597,32,12,['d'],['d'],Y,,,MALE,18,
0,598,598,64,12,['d'],['d'],Y,,,MALE,18,
0,599,599,246,12,['d'],['d'],Y,,,MALE,18,
