.thisRepN,.thisTrialN,.thisN,.thisIndex,Block Number,Key pressed,Category,Correct?,Button switch shown?,Actually switched?,Fast?,gender,age
0,0,0,79,1,['d'],['d'],Y,,,,F,23
0,1,1,119,1,['d'],['d'],Y,,,,F,23
0,2,2,295,1,['d'],['d'],Y,,,,F,23
0,3,3,269,1,['k'],['d'],N,,,,F,23
0,4,4,152,1,['k'],['d'],N,,,,F,23
0,5,5,516,1,['k'],['k'],Y,,,,F,23
0,6,6,264,1,['d'],['d'],Y,,,,F,23
0,7,7,413,1,['k'],['k'],Y,,,,F,23
0,8,8,257,1,['d'],['d'],Y,,,,F,23
0,9,9,297,1,['k'],['d'],N,,,,F,23
0,10,10,104,1,['d'],['d'],Y,,,,F,23
0,11,11,338,1,['k'],['k'],Y,,,,F,23
0,12,12,184,1,['d'],['d'],Y,,,,F,23
0,13,13,450,1,['d'],['k'],N,,,,F,23
0,14,14,27,1,['d'],['d'],Y,,,,F,23
0,15,15,405,1,['k'],['k'],Y,,,,F,23
0,16,16,428,1,['k'],['k'],Y,,,,F,23
0,17,17,470,1,['k'],['k'],Y,,,,F,23
0,18,18,114,1,['d'],['d'],Y,,,,F,23
0,19,19,276,1,['d'],['d'],Y,,,,F,23
0,20,20,92,1,['d'],['d'],Y,,,,F,23
0,21,21,65,1,['d'],['d'],Y,,,,F,23
0,22,22,90,1,['d'],['d'],Y,,,,F,23
0,23,23,252,1,['k'],['d'],N,,,,F,23
0,24,24,546,1,['k'],['k'],Y,,,,F,23
0,25,25,268,1,['d'],['d'],Y,,,,F,23
0,26,26,174,1,['d'],['d'],Y,,,,F,23
0,27,27,230,1,['d'],['d'],Y,,,,F,23
0,28,28,541,1,['k'],['k'],Y,,,,F,23
0,29,29,232,1,['d'],['d'],Y,,,,F,23
0,30,30,579,1,['k'],['k'],Y,,,,F,23
0,31,31,281,1,['d'],['d'],Y,,,,F,23
0,32,32,151,1,['d'],['d'],Y,,,,F,23
0,33,33,510,1,['k'],['k'],Y,,,,F,23
0,34,34,361,1,['k'],['k'],Y,,,,F,23
0,35,35,317,1,['k'],['k'],Y,,,,F,23
0,36,36,172,1,['k'],['d'],N,,,,F,23
0,37,37,443,1,['k'],['k'],Y,,,,F,23
0,38,38,91,1,['k'],['d'],N,,,,F,23
0,39,39,56,1,['d'],['d'],Y,,,,F,23
0,40,40,102,1,['d'],['d'],Y,,,,F,23
0,41,41,61,1,['k'],['d'],N,,,,F,23
0,42,42,32,1,['d'],['d'],Y,,,,F,23
0,43,43,19,1,['d'],['d'],Y,,,,F,23
0,44,44,166,1,['d'],['d'],Y,,,,F,23
0,45,45,31,1,['d'],['d'],Y,,,,F,23
0,46,46,244,1,['d'],['d'],Y,,,,F,23
0,47,47,247,1,['d'],['d'],Y,,,,F,23
0,48,48,576,1,['k'],['k'],Y,,,,F,23
0,49,49,382,1,['k'],['k'],Y,,,,F,23
,,,,,,,,,,,,
0,50,50,213,2,['d'],['d'],Y,,,,F,23
0,51,51,24,2,['d'],['d'],Y,,,,F,23
0,52,52,220,2,['d'],['d'],Y,,,,F,23
0,53,53,561,2,['k'],['k'],Y,,,,F,23
0,54,54,306,2,['k'],['k'],Y,,,,F,23
0,55,55,430,2,['k'],['k'],Y,,,,F,23
0,56,56,380,2,['k'],['k'],Y,,,,F,23
0,57,57,190,2,['d'],['d'],Y,,,,F,23
0,58,58,57,2,['d'],['d'],Y,,,,F,23
0,59,59,266,2,['d'],['d'],Y,,,,F,23
0,60,60,200,2,['d'],['d'],Y,,,,F,23
0,61,61,486,2,['k'],['k'],Y,,,,F,23
0,62,62,270,2,['d'],['d'],Y,,,,F,23
0,63,63,320,2,['k'],['k'],Y,,,,F,23
0,64,64,164,2,['d'],['d'],Y,,,,F,23
0,65,65,181,2,['k'],['d'],N,,,,F,23
0,66,66,350,2,['k'],['k'],Y,,,,F,23
0,67,67,168,2,['d'],['d'],Y,,,,F,23
0,68,68,460,2,['k'],['k'],Y,,,,F,23
0,69,69,467,2,['k'],['k'],Y,,,,F,23
0,70,70,552,2,['k'],['k'],Y,,,,F,23
0,71,71,285,2,['d'],['d'],Y,,,,F,23
0,72,72,157,2,['k'],['d'],N,,,,F,23
0,73,73,445,2,['k'],['k'],Y,,,,F,23
0,74,74,113,2,['d'],['d'],Y,,,,F,23
0,75,75,4,2,['d'],['d'],Y,,,,F,23
0,76,76,481,2,['k'],['k'],Y,,,,F,23
0,77,77,404,2,['k'],['k'],Y,,,,F,23
0,78,78,371,2,['k'],['k'],Y,,,,F,23
0,79,79,598,2,['k'],['k'],Y,,,,F,23
0,80,80,514,2,['k'],['k'],Y,,,,F,23
0,81,81,562,2,['k'],['k'],Y,,,,F,23
0,82,82,128,2,['d'],['d'],Y,,,,F,23
0,83,83,570,2,['k'],['k'],Y,,,,F,23
0,84,84,312,2,['k'],['k'],Y,,,,F,23
0,85,85,446,2,['k'],['k'],Y,,,,F,23
0,86,86,192,2,['k'],['d'],N,,,,F,23
0,87,87,86,2,['d'],['d'],Y,,,,F,23
0,88,88,100,2,['d'],['d'],Y,,,,F,23
0,89,89,587,2,['k'],['k'],Y,,,,F,23
0,90,90,369,2,['k'],['k'],Y,,,,F,23
0,91,91,239,2,['d'],['d'],Y,,,,F,23
0,92,92,325,2,['k'],['k'],Y,,,,F,23
0,93,93,241,2,['d'],['d'],Y,,,,F,23
0,94,94,136,2,['d'],['d'],Y,,,,F,23
0,95,95,112,2,['d'],['d'],Y,,,,F,23
0,96,96,30,2,['d'],['d'],Y,,,,F,23
0,97,97,258,2,['k'],['d'],N,,,,F,23
0,98,98,214,2,['k'],['d'],N,,,,F,23
0,99,99,167,2,['d'],['d'],Y,,,,F,23
,,,,,,,,,,,,
0,100,100,471,3,['k'],['k'],Y,,,,F,23
0,101,101,344,3,['k'],['k'],Y,,,,F,23
0,102,102,234,3,['d'],['d'],Y,,,,F,23
0,103,103,432,3,['k'],['k'],Y,,,,F,23
0,104,104,526,3,['k'],['k'],Y,,,,F,23
0,105,105,22,3,['k'],['d'],N,,,,F,23
0,106,106,81,3,['d'],['d'],Y,,,,F,23
0,107,107,513,3,['k'],['k'],Y,,,,F,23
0,108,108,274,3,['d'],['d'],Y,,,,F,23
0,109,109,54,3,['d'],['d'],Y,,,,F,23
0,110,110,208,3,['k'],['d'],N,,,,F,23
0,111,111,415,3,['d'],['k'],N,,,,F,23
0,112,112,469,3,['k'],['k'],Y,,,,F,23
0,113,113,500,3,['k'],['k'],Y,,,,F,23
0,114,114,584,3,['k'],['k'],Y,,,,F,23
0,115,115,183,3,['d'],['d'],Y,,,,F,23
0,116,116,397,3,['k'],['k'],Y,,,,F,23
0,117,117,156,3,['d'],['d'],Y,,,,F,23
0,118,118,171,3,['d'],['d'],Y,,,,F,23
0,119,119,480,3,['k'],['k'],Y,,,,F,23
0,120,120,224,3,['d'],['d'],Y,,,,F,23
0,121,121,409,3,['k'],['k'],Y,,,,F,23
0,122,122,525,3,['k'],['k'],Y,,,,F,23
0,123,123,399,3,['k'],['k'],Y,,,,F,23
0,124,124,326,3,['k'],['k'],Y,,,,F,23
0,125,125,137,3,['k'],['d'],N,,,,F,23
0,126,126,71,3,['d'],['d'],Y,,,,F,23
0,127,127,539,3,['k'],['k'],Y,,,,F,23
0,128,128,401,3,['k'],['k'],Y,,,,F,23
0,129,129,535,3,['k'],['k'],Y,,,,F,23
0,130,130,529,3,['k'],['k'],Y,,,,F,23
0,131,131,386,3,['k'],['k'],Y,,,,F,23
0,132,132,202,3,['d'],['d'],Y,,,,F,23
0,133,133,121,3,['k'],['d'],N,,,,F,23
0,134,134,265,3,['d'],['d'],Y,,,,F,23
0,135,135,304,3,['k'],['k'],Y,,,,F,23
0,136,136,391,3,['k'],['k'],Y,,,,F,23
0,137,137,333,3,['k'],['k'],Y,,,,F,23
0,138,138,501,3,['k'],['k'],Y,,,,F,23
0,139,139,263,3,['d'],['d'],Y,,,,F,23
0,140,140,99,3,['d'],['d'],Y,,,,F,23
0,141,141,385,3,['k'],['k'],Y,,,,F,23
0,142,142,52,3,['d'],['d'],Y,,,,F,23
0,143,143,204,3,['d'],['d'],Y,,,,F,23
0,144,144,132,3,['d'],['d'],Y,,,,F,23
0,145,145,599,3,['k'],['k'],Y,,,,F,23
0,146,146,180,3,['d'],['d'],Y,,,,F,23
0,147,147,43,3,['d'],['d'],Y,,,,F,23
0,148,148,207,3,['d'],['d'],Y,,,,F,23
0,149,149,461,3,['k'],['k'],Y,,,,F,23
,,,,,,,,,,,,
0,150,150,478,4,['k'],['k'],Y,,,,F,23
0,151,151,237,4,['k'],['d'],N,,,,F,23
0,152,152,118,4,['d'],['d'],Y,,,,F,23
0,153,153,497,4,['k'],['k'],Y,,,,F,23
0,154,154,556,4,['k'],['k'],Y,,,,F,23
0,155,155,138,4,['k'],['d'],N,,,,F,23
0,156,156,39,4,['d'],['d'],Y,,,,F,23
0,157,157,528,4,['k'],['k'],Y,,,,F,23
0,158,158,495,4,['k'],['k'],Y,,,,F,23
0,159,159,593,4,['k'],['k'],Y,,,,F,23
0,160,160,583,4,['k'],['k'],Y,,,,F,23
0,161,161,255,4,['d'],['d'],Y,,,,F,23
0,162,162,219,4,['d'],['d'],Y,,,,F,23
0,163,163,563,4,['k'],['k'],Y,,,,F,23
0,164,164,345,4,['k'],['k'],Y,,,,F,23
0,165,165,449,4,['k'],['k'],Y,,,,F,23
0,166,166,77,4,['d'],['d'],Y,,,,F,23
0,167,167,360,4,['k'],['k'],Y,,,,F,23
0,168,168,527,4,['k'],['k'],Y,,,,F,23
0,169,169,400,4,['k'],['k'],Y,,,,F,23
0,170,170,67,4,['d'],['d'],Y,,,,F,23
0,171,171,85,4,['d'],['d'],Y,,,,F,23
0,172,172,10,4,['d'],['d'],Y,,,,F,23
0,173,173,441,4,['k'],['k'],Y,,,,F,23
0,174,174,48,4,['k'],['d'],N,,,,F,23
0,175,175,390,4,['k'],['k'],Y,,,,F,23
0,176,176,376,4,['k'],['k'],Y,,,,F,23
0,177,177,140,4,['d'],['d'],Y,,,,F,23
0,178,178,218,4,['k'],['d'],N,,,,F,23
0,179,179,83,4,['d'],['d'],Y,,,,F,23
0,180,180,498,4,['k'],['k'],Y,,,,F,23
0,181,181,493,4,['k'],['k'],Y,,,,F,23
0,182,182,506,4,['k'],['k'],Y,,,,F,23
0,183,183,542,4,['k'],['k'],Y,,,,F,23
0,184,184,472,4,['k'],['k'],Y,,,,F,23
0,185,185,292,4,['d'],['d'],Y,,,,F,23
0,186,186,46,4,['d'],['d'],Y,,,,F,23
0,187,187,66,4,['d'],['d'],Y,,,,F,23
0,188,188,565,4,['k'],['k'],Y,,,,F,23
0,189,189,349,4,['k'],['k'],Y,,,,F,23
0,190,190,135,4,['d'],['d'],Y,,,,F,23
0,191,191,175,4,['d'],['d'],Y,,,,F,23
0,192,192,228,4,['d'],['d'],Y,,,,F,23
0,193,193,76,4,['d'],['d'],Y,,,,F,23
0,194,194,403,4,['d'],['k'],N,,,,F,23
0,195,195,250,4,['k'],['d'],N,,,,F,23
0,196,196,522,4,['k'],['k'],Y,,,,F,23
0,197,197,18,4,['d'],['d'],Y,,,,F,23
0,198,198,165,4,['d'],['d'],Y,,,,F,23
0,199,199,148,4,['d'],['d'],Y,,,,F,23
,,,,,,,,,,,,
0,200,200,511,5,['k'],['k'],Y,,,,F,23
0,201,201,195,5,['d'],['d'],Y,,,,F,23
0,202,202,25,5,['k'],['d'],N,,,,F,23
0,203,203,209,5,['d'],['d'],Y,,,,F,23
0,204,204,196,5,['d'],['d'],Y,,,,F,23
0,205,205,372,5,['k'],['k'],Y,,,,F,23
0,206,206,558,5,['k'],['k'],Y,,,,F,23
0,207,207,594,5,['k'],['k'],Y,,,,F,23
0,208,208,366,5,['k'],['k'],Y,,,,F,23
0,209,209,9,5,['k'],['d'],N,,,,F,23
0,210,210,484,5,['d'],['k'],N,,,,F,23
0,211,211,425,5,['k'],['k'],Y,,,,F,23
0,212,212,201,5,['d'],['d'],Y,,,,F,23
0,213,213,468,5,['k'],['k'],Y,,,,F,23
0,214,214,116,5,['d'],['d'],Y,,,,F,23
0,215,215,417,5,['k'],['k'],Y,,,,F,23
0,216,216,160,5,['d'],['d'],Y,,,,F,23
0,217,217,512,5,['k'],['k'],Y,,,,F,23
0,218,218,199,5,['d'],['d'],Y,,,,F,23
0,219,219,273,5,['d'],['d'],Y,,,,F,23
0,220,220,301,5,['k'],['k'],Y,,,,F,23
0,221,221,568,5,['k'],['k'],Y,,,,F,23
0,222,222,35,5,['d'],['d'],Y,,,,F,23
0,223,223,75,5,['k'],['d'],N,,,,F,23
0,224,224,492,5,['k'],['k'],Y,,,,F,23
0,225,225,346,5,['k'],['k'],Y,,,,F,23
0,226,226,559,5,['k'],['k'],Y,,,,F,23
0,227,227,499,5,['k'],['k'],Y,,,,F,23
0,228,228,416,5,['k'],['k'],Y,,,,F,23
0,229,229,509,5,['k'],['k'],Y,,,,F,23
0,230,230,487,5,['k'],['k'],Y,,,,F,23
0,231,231,364,5,['k'],['k'],Y,,,,F,23
0,232,232,431,5,['k'],['k'],Y,,,,F,23
0,233,233,389,5,['k'],['k'],Y,,,,F,23
0,234,234,532,5,['k'],['k'],Y,,,,F,23
0,235,235,342,5,['k'],['k'],Y,,,,F,23
0,236,236,585,5,['k'],['k'],Y,,,,F,23
0,237,237,452,5,['k'],['k'],Y,,,,F,23
0,238,238,107,5,['d'],['d'],Y,,,,F,23
0,239,239,396,5,['k'],['k'],Y,,,,F,23
0,240,240,126,5,['d'],['d'],Y,,,,F,23
0,241,241,58,5,['d'],['d'],Y,,,,F,23
0,242,242,595,5,['k'],['k'],Y,,,,F,23
0,243,243,62,5,['d'],['d'],Y,,,,F,23
0,244,244,34,5,['d'],['d'],Y,,,,F,23
0,245,245,147,5,['d'],['d'],Y,,,,F,23
0,246,246,589,5,['k'],['k'],Y,,,,F,23
0,247,247,352,5,['k'],['k'],Y,,,,F,23
0,248,248,240,5,['d'],['d'],Y,,,,F,23
0,249,249,101,5,['d'],['d'],Y,,,,F,23
,,,,,,,,,,,,
0,250,250,130,6,['d'],['d'],Y,,,,F,23
0,251,251,564,6,['k'],['k'],Y,,,,F,23
0,252,252,95,6,['d'],['d'],Y,,,,F,23
0,253,253,490,6,['k'],['k'],Y,,,,F,23
0,254,254,322,6,['k'],['k'],Y,,,,F,23
0,255,255,286,6,['d'],['d'],Y,,,,F,23
0,256,256,185,6,['d'],['d'],Y,,,,F,23
0,257,257,548,6,['k'],['k'],Y,,,,F,23
0,258,258,216,6,['d'],['d'],Y,,,,F,23
0,259,259,283,6,['d'],['d'],Y,,,,F,23
0,260,260,111,6,['d'],['d'],Y,,,,F,23
0,261,261,462,6,['k'],['k'],Y,,,,F,23
0,262,262,282,6,['d'],['d'],Y,,,,F,23
0,263,263,205,6,['d'],['d'],Y,,,,F,23
0,264,264,198,6,['d'],['d'],Y,,,,F,23
0,265,265,319,6,['k'],['k'],Y,,,,F,23
0,266,266,169,6,['d'],['d'],Y,,,,F,23
0,267,267,42,6,['d'],['d'],Y,,,,F,23
0,268,268,574,6,['k'],['k'],Y,,,,F,23
0,269,269,588,6,['k'],['k'],Y,,,,F,23
0,270,270,103,6,['d'],['d'],Y,,,,F,23
0,271,271,572,6,['k'],['k'],Y,,,,F,23
0,272,272,334,6,['k'],['k'],Y,,,,F,23
0,273,273,178,6,['d'],['d'],Y,,,,F,23
0,274,274,551,6,['k'],['k'],Y,,,,F,23
0,275,275,223,6,['d'],['d'],Y,,,,F,23
0,276,276,300,6,['k'],['k'],Y,,,,F,23
0,277,277,221,6,['d'],['d'],Y,,,,F,23
0,278,278,329,6,['k'],['k'],Y,,,,F,23
0,279,279,179,6,['d'],['d'],Y,,,,F,23
0,280,280,448,6,['k'],['k'],Y,,,,F,23
0,281,281,133,6,['d'],['d'],Y,,,,F,23
0,282,282,303,6,['k'],['k'],Y,,,,F,23
0,283,283,117,6,['d'],['d'],Y,,,,F,23
0,284,284,13,6,['d'],['d'],Y,,,,F,23
0,285,285,507,6,['k'],['k'],Y,,,,F,23
0,286,286,14,6,['d'],['d'],Y,,,,F,23
0,287,287,233,6,['d'],['d'],Y,,,,F,23
0,288,288,206,6,['d'],['d'],Y,,,,F,23
0,289,289,210,6,['d'],['d'],Y,,,,F,23
0,290,290,429,6,['k'],['k'],Y,,,,F,23
0,291,291,215,6,['d'],['d'],Y,,,,F,23
0,292,292,327,6,['k'],['k'],Y,,,,F,23
0,293,293,33,6,['d'],['d'],Y,,,,F,23
0,294,294,49,6,['d'],['d'],Y,,,,F,23
0,295,295,341,6,['k'],['k'],Y,,,,F,23
0,296,296,17,6,['d'],['d'],Y,,,,F,23
0,297,297,581,6,['k'],['k'],Y,,,,F,23
0,298,298,38,6,['d'],['d'],Y,,,,F,23
0,299,299,110,6,['k'],['d'],N,,,,F,23
,,,,,,,,,,,,
0,300,300,74,7,['d'],['d'],Y,,,,F,23
0,301,301,407,7,['k'],['k'],Y,,,,F,23
0,302,302,11,7,['d'],['d'],Y,,,,F,23
0,303,303,347,7,['k'],['k'],Y,,,,F,23
0,304,304,277,7,['d'],['d'],Y,,,,F,23
0,305,305,357,7,['k'],['k'],Y,,,,F,23
0,306,306,358,7,['k'],['k'],Y,,,,F,23
0,307,307,108,7,['d'],['d'],Y,,,,F,23
0,308,308,328,7,['k'],['k'],Y,,,,F,23
0,309,309,379,7,['k'],['k'],Y,,,,F,23
0,310,310,125,7,['d'],['d'],Y,,,,F,23
0,311,311,355,7,['k'],['k'],Y,,,,F,23
0,312,312,231,7,['d'],['d'],Y,,,,F,23
0,313,313,530,7,['k'],['k'],Y,,,,F,23
0,314,314,534,7,['k'],['k'],Y,,,,F,23
0,315,315,260,7,['d'],['d'],Y,,,,F,23
0,316,316,540,7,['k'],['k'],Y,,,,F,23
0,317,317,560,7,['k'],['k'],Y,,,,F,23
0,318,318,411,7,['k'],['k'],Y,,,,F,23
0,319,319,246,7,['d'],['d'],Y,,,,F,23
0,320,320,434,7,['k'],['k'],Y,,,,F,23
0,321,321,145,7,['d'],['d'],Y,,,,F,23
0,322,322,457,7,['k'],['k'],Y,,,,F,23
0,323,323,3,7,['d'],['d'],Y,,,,F,23
0,324,324,332,7,['d'],['k'],N,,,,F,23
0,325,325,158,7,['d'],['d'],Y,,,,F,23
0,326,326,189,7,['d'],['d'],Y,,,,F,23
0,327,327,191,7,['d'],['d'],Y,,,,F,23
0,328,328,502,7,['k'],['k'],Y,,,,F,23
0,329,329,203,7,['d'],['d'],Y,,,,F,23
0,330,330,212,7,['d'],['d'],Y,,,,F,23
0,331,331,533,7,['k'],['k'],Y,,,,F,23
0,332,332,294,7,['d'],['d'],Y,,,,F,23
0,333,333,47,7,['d'],['d'],Y,,,,F,23
0,334,334,193,7,['d'],['d'],Y,,,,F,23
0,335,335,437,7,['k'],['k'],Y,,,,F,23
0,336,336,582,7,['k'],['k'],Y,,,,F,23
0,337,337,236,7,['d'],['d'],Y,,,,F,23
0,338,338,163,7,['d'],['d'],Y,,,,F,23
0,339,339,308,7,['k'],['k'],Y,,,,F,23
0,340,340,439,7,['k'],['k'],Y,,,,F,23
0,341,341,229,7,['d'],['d'],Y,,,,F,23
0,342,342,313,7,['k'],['k'],Y,,,,F,23
0,343,343,476,7,['k'],['k'],Y,,,,F,23
0,344,344,465,7,['k'],['k'],Y,,,,F,23
0,345,345,139,7,['d'],['d'],Y,,,,F,23
0,346,346,362,7,['k'],['k'],Y,,,,F,23
0,347,347,68,7,['d'],['d'],Y,,,,F,23
0,348,348,323,7,['k'],['k'],Y,,,,F,23
0,349,349,8,7,['d'],['d'],Y,,,,F,23
,,,,,,,,,,,,
0,350,350,310,8,['k'],['k'],Y,,,,F,23
0,351,351,453,8,['k'],['k'],Y,,,,F,23
0,352,352,284,8,['d'],['d'],Y,,,,F,23
0,353,353,398,8,['k'],['k'],Y,,,,F,23
0,354,354,305,8,['k'],['k'],Y,,,,F,23
0,355,355,440,8,['k'],['k'],Y,,,,F,23
0,356,356,555,8,['k'],['k'],Y,,,,F,23
0,357,357,550,8,['k'],['k'],Y,,,,F,23
0,358,358,406,8,['k'],['k'],Y,,,,F,23
0,359,359,414,8,['k'],['k'],Y,,,,F,23
0,360,360,554,8,['k'],['k'],Y,,,,F,23
0,361,361,6,8,['d'],['d'],Y,,,,F,23
0,362,362,419,8,['k'],['k'],Y,,,,F,23
0,363,363,298,8,['d'],['d'],Y,,,,F,23
0,364,364,1,8,['d'],['d'],Y,,,,F,23
0,365,365,5,8,['d'],['d'],Y,,,,F,23
0,366,366,28,8,['d'],['d'],Y,,,,F,23
0,367,367,105,8,['d'],['d'],Y,,,,F,23
0,368,368,122,8,['d'],['d'],Y,,,,F,23
0,369,369,262,8,['d'],['d'],Y,,,,F,23
0,370,370,238,8,['d'],['d'],Y,,,,F,23
0,371,371,577,8,['k'],['k'],Y,,,,F,23
0,372,372,381,8,['k'],['k'],Y,,,,F,23
0,373,373,474,8,['k'],['k'],Y,,,,F,23
0,374,374,141,8,['d'],['d'],Y,,,,F,23
0,375,375,299,8,['d'],['d'],Y,,,,F,23
0,376,376,418,8,['k'],['k'],Y,,,,F,23
0,377,377,496,8,['k'],['k'],Y,,,,F,23
0,378,378,454,8,['k'],['k'],Y,,,,F,23
0,379,379,591,8,['k'],['k'],Y,,,,F,23
0,380,380,63,8,['d'],['d'],Y,,,,F,23
0,381,381,521,8,['k'],['k'],Y,,,,F,23
0,382,382,235,8,['d'],['d'],Y,,,,F,23
0,383,383,473,8,['k'],['k'],Y,,,,F,23
0,384,384,575,8,['k'],['k'],Y,,,,F,23
0,385,385,84,8,['d'],['d'],Y,,,,F,23
0,386,386,436,8,['k'],['k'],Y,,,,F,23
0,387,387,315,8,['k'],['k'],Y,,,,F,23
0,388,388,41,8,['d'],['d'],Y,,,,F,23
0,389,389,309,8,['k'],['k'],Y,,,,F,23
0,390,390,578,8,['k'],['k'],Y,,,,F,23
0,391,391,519,8,['k'],['k'],Y,,,,F,23
0,392,392,314,8,['k'],['k'],Y,,,,F,23
0,393,393,188,8,['k'],['d'],N,,,,F,23
0,394,394,59,8,['d'],['d'],Y,,,,F,23
0,395,395,590,8,['k'],['k'],Y,,,,F,23
0,396,396,259,8,['d'],['d'],Y,,,,F,23
0,397,397,194,8,['d'],['d'],Y,,,,F,23
0,398,398,272,8,['d'],['d'],Y,,,,F,23
0,399,399,176,8,['d'],['d'],Y,,,,F,23
,,,,,,,,,,,,
0,400,400,373,9,['k'],['k'],Y,,,,F,23
0,401,401,321,9,['k'],['k'],Y,,,,F,23
0,402,402,98,9,['d'],['d'],Y,,,,F,23
0,403,403,353,9,['k'],['k'],Y,,,,F,23
0,404,404,21,9,['k'],['d'],N,,,,F,23
0,405,405,26,9,['d'],['d'],Y,,,,F,23
0,406,406,423,9,['k'],['k'],Y,,,,F,23
0,407,407,520,9,['k'],['k'],Y,,,,F,23
0,408,408,586,9,['k'],['k'],Y,,,,F,23
0,409,409,475,9,['k'],['k'],Y,,,,F,23
0,410,410,134,9,['d'],['d'],Y,,,,F,23
0,411,411,249,9,['d'],['d'],Y,,,,F,23
0,412,412,289,9,['d'],['d'],Y,,,,F,23
0,413,413,367,9,['k'],['k'],Y,,,,F,23
0,414,414,307,9,['k'],['k'],Y,,,,F,23
0,415,415,479,9,['k'],['k'],Y,,,,F,23
0,416,416,248,9,['d'],['d'],Y,,,,F,23
0,417,417,592,9,['k'],['k'],Y,,,,F,23
0,418,418,537,9,['k'],['k'],Y,,,,F,23
0,419,419,597,9,['k'],['k'],Y,,,,F,23
0,420,420,393,9,['k'],['k'],Y,,,,F,23
0,421,421,124,9,['k'],['d'],N,,,,F,23
0,422,422,374,9,['d'],['k'],N,,,,F,23
0,423,423,348,9,['k'],['k'],Y,,,,F,23
0,424,424,131,9,['d'],['d'],Y,,,,F,23
0,425,425,290,9,['d'],['d'],Y,,,,F,23
0,426,426,143,9,['k'],['d'],N,,,,F,23
0,427,427,426,9,['k'],['k'],Y,,,,F,23
0,428,428,159,9,['k'],['d'],N,,,,F,23
0,429,429,531,9,['k'],['k'],Y,,,,F,23
0,430,430,146,9,['d'],['d'],Y,,,,F,23
0,431,431,316,9,['k'],['k'],Y,,,,F,23
0,432,432,438,9,['d'],['k'],N,,,,F,23
0,433,433,356,9,['k'],['k'],Y,,,,F,23
0,434,434,53,9,['d'],['d'],Y,,,,F,23
0,435,435,226,9,['d'],['d'],Y,,,,F,23
0,436,436,23,9,['d'],['d'],Y,,,,F,23
0,437,437,394,9,['k'],['k'],Y,,,,F,23
0,438,438,354,9,['k'],['k'],Y,,,,F,23
0,439,439,15,9,['d'],['d'],Y,,,,F,23
0,440,440,150,9,['d'],['d'],Y,,,,F,23
0,441,441,16,9,['d'],['d'],Y,,,,F,23
0,442,442,580,9,['k'],['k'],Y,,,,F,23
0,443,443,182,9,['d'],['d'],Y,,,,F,23
0,444,444,94,9,['d'],['d'],Y,,,,F,23
0,445,445,88,9,['d'],['d'],Y,,,,F,23
0,446,446,40,9,['d'],['d'],Y,,,,F,23
0,447,447,318,9,['k'],['k'],Y,,,,F,23
0,448,448,412,9,['d'],['k'],N,,,,F,23
0,449,449,173,9,['d'],['d'],Y,,,,F,23
,,,,,,,,,,,,
0,450,450,89,10,['k'],['d'],N,,,,F,23
0,451,451,566,10,['k'],['k'],Y,,,,F,23
0,452,452,410,10,['k'],['k'],Y,,,,F,23
0,453,453,557,10,['k'],['k'],Y,,,,F,23
0,454,454,123,10,['d'],['d'],Y,,,,F,23
0,455,455,177,10,['d'],['d'],Y,,,,F,23
0,456,456,302,10,['k'],['k'],Y,,,,F,23
0,457,457,456,10,['k'],['k'],Y,,,,F,23
0,458,458,483,10,['k'],['k'],Y,,,,F,23
0,459,459,337,10,['k'],['k'],Y,,,,F,23
0,460,460,485,10,['k'],['k'],Y,,,,F,23
0,461,461,245,10,['d'],['d'],Y,,,,F,23
0,462,462,392,10,['k'],['k'],Y,,,,F,23
0,463,463,451,10,['k'],['k'],Y,,,,F,23
0,464,464,339,10,['k'],['k'],Y,,,,F,23
0,465,465,29,10,['d'],['d'],Y,,,,F,23
0,466,466,271,10,['d'],['d'],Y,,,,F,23
0,467,467,82,10,['d'],['d'],Y,,,,F,23
0,468,468,331,10,['k'],['k'],Y,,,,F,23
0,469,469,211,10,['d'],['d'],Y,,,,F,23
0,470,470,363,10,['k'],['k'],Y,,,,F,23
0,471,471,335,10,['k'],['k'],Y,,,,F,23
0,472,472,503,10,['k'],['k'],Y,,,,F,23
0,473,473,515,10,['k'],['k'],Y,,,,F,23
0,474,474,129,10,['d'],['d'],Y,,,,F,23
0,475,475,36,10,['d'],['d'],Y,,,,F,23
0,476,476,12,10,['d'],['d'],Y,,,,F,23
0,477,477,44,10,['d'],['d'],Y,,,,F,23
0,478,478,442,10,['k'],['k'],Y,,,,F,23
0,479,479,435,10,['k'],['k'],Y,,,,F,23
0,480,480,553,10,['k'],['k'],Y,,,,F,23
0,481,481,20,10,['d'],['d'],Y,,,,F,23
0,482,482,186,10,['d'],['d'],Y,,,,F,23
0,483,483,388,10,['k'],['k'],Y,,,,F,23
0,484,484,384,10,['k'],['k'],Y,,,,F,23
0,485,485,482,10,['k'],['k'],Y,,,,F,23
0,486,486,0,10,['d'],['d'],Y,,,,F,23
0,487,487,424,10,['k'],['k'],Y,,,,F,23
0,488,488,524,10,['k'],['k'],Y,,,,F,23
0,489,489,387,10,['k'],['k'],Y,,,,F,23
0,490,490,280,10,['k'],['d'],N,,,,F,23
0,491,491,543,10,['k'],['k'],Y,,,,F,23
0,492,492,549,10,['k'],['k'],Y,,,,F,23
0,493,493,420,10,['k'],['k'],Y,,,,F,23
0,494,494,569,10,['k'],['k'],Y,,,,F,23
0,495,495,144,10,['d'],['d'],Y,,,,F,23
0,496,496,340,10,['k'],['k'],Y,,,,F,23
0,497,497,324,10,['k'],['k'],Y,,,,F,23
0,498,498,408,10,['k'],['k'],Y,,,,F,23
0,499,499,227,10,['d'],['d'],Y,,,,F,23
,,,,,,,"48 correct, 2 wrong",,,,,
0,500,500,70,11,['k'],['d'],Y,Y,Y,Y,F,23
0,501,501,288,11,['d'],['d'],N,,Y,Y,F,23
0,502,502,571,11,['d'],['k'],Y,,Y,Y,F,23
0,503,503,491,11,['d'],['k'],Y,,Y,Y,F,23
0,504,504,336,11,['d'],['k'],Y,,Y,Y,F,23
0,505,505,427,11,['d'],['k'],Y,,Y,Y,F,23
0,506,506,518,11,['d'],['k'],Y,,Y,Y,F,23
0,507,507,242,11,['k'],['d'],Y,,Y,Y,F,23
0,508,508,87,11,['k'],['d'],Y,,Y,Y,F,23
0,509,509,375,11,['d'],['k'],Y,,Y,Y,F,23
0,510,510,261,11,['k'],['d'],Y,,Y,Y,F,23
0,511,511,45,11,['k'],['d'],Y,,Y,Y,F,23
0,512,512,256,11,['d'],['d'],N,,Y,Y,F,23
0,513,513,50,11,['k'],['d'],Y,,Y,Y,F,23
0,514,514,383,11,['d'],['k'],Y,,Y,Y,F,23
0,515,515,80,11,['k'],['d'],Y,,Y,Y,F,23
0,516,516,538,11,['d'],['k'],Y,,Y,Y,F,23
0,517,517,378,11,['d'],['k'],Y,,Y,Y,F,23
0,518,518,73,11,['k'],['d'],Y,,Y,Y,F,23
0,519,519,477,11,['d'],['k'],Y,,Y,Y,F,23
0,520,520,7,11,['k'],['d'],Y,,Y,Y,F,23
0,521,521,458,11,['d'],['k'],Y,,Y,Y,F,23
0,522,522,517,11,['d'],['k'],Y,,Y,Y,F,23
0,523,523,293,11,['k'],['d'],Y,,Y,Y,F,23
0,524,524,505,11,['d'],['k'],Y,,Y,Y,F,23
0,525,525,60,11,None,,Timed out,,Y,Y,F,23
0,526,526,547,11,['d'],['k'],Y,,Y,Y,F,23
0,527,527,545,11,['d'],['k'],Y,,Y,Y,F,23
0,528,528,508,11,['d'],['k'],Y,,Y,Y,F,23
0,529,529,422,11,['d'],['k'],Y,,Y,Y,F,23
0,530,530,343,11,['d'],['k'],Y,,Y,Y,F,23
0,531,531,365,11,['d'],['k'],Y,,Y,Y,F,23
0,532,532,596,11,['d'],['k'],Y,,Y,Y,F,23
0,533,533,93,11,['d'],['d'],N,,Y,Y,F,23
0,534,534,225,11,['k'],['d'],Y,,Y,Y,F,23
0,535,535,377,11,['d'],['k'],Y,,Y,Y,F,23
0,536,536,275,11,['k'],['d'],Y,,Y,Y,F,23
0,537,537,106,11,['k'],['d'],Y,,Y,Y,F,23
0,538,538,573,11,['d'],['k'],Y,,Y,Y,F,23
0,539,539,251,11,['k'],['d'],Y,,Y,Y,F,23
0,540,540,536,11,['d'],['k'],Y,,Y,Y,F,23
0,541,541,447,11,['d'],['k'],Y,,Y,Y,F,23
0,542,542,197,11,['k'],['d'],Y,,Y,Y,F,23
0,543,543,267,11,['k'],['d'],Y,,Y,Y,F,23
0,544,544,127,11,['k'],['d'],Y,,Y,Y,F,23
0,545,545,154,11,['k'],['d'],Y,,Y,Y,F,23
0,546,546,72,11,None,,Timed out,,Y,Y,F,23
0,547,547,459,11,['d'],['k'],Y,,Y,Y,F,23
0,548,548,161,11,['k'],['d'],Y,,Y,Y,F,23
0,549,549,370,11,['d'],['k'],Y,,Y,Y,F,23
,,,,,,,,,,,,
0,550,550,567,12,['k'],['k'],N,,Y,Y,F,23
0,551,551,359,12,['d'],['k'],Y,,Y,Y,F,23
0,552,552,291,12,['k'],['d'],Y,,Y,Y,F,23
0,553,553,64,12,['d'],['d'],N,,Y,Y,F,23
0,554,554,253,12,['d'],['d'],N,,Y,Y,F,23
0,555,555,402,12,['d'],['k'],Y,,Y,Y,F,23
0,556,556,488,12,['d'],['k'],Y,,Y,Y,F,23
0,557,557,97,12,['k'],['d'],Y,,Y,Y,F,23
0,558,558,464,12,['d'],['k'],Y,,Y,Y,F,23
0,559,559,96,12,['k'],['d'],Y,,Y,Y,F,23
0,560,560,433,12,['d'],['k'],Y,,Y,Y,F,23
0,561,561,368,12,['d'],['k'],Y,,Y,Y,F,23
0,562,562,155,12,['k'],['d'],Y,,Y,Y,F,23
0,563,563,254,12,['k'],['d'],Y,,Y,Y,F,23
0,564,564,37,12,['k'],['d'],Y,,Y,Y,F,23
0,565,565,142,12,['k'],['d'],Y,,Y,Y,F,23
0,566,566,120,12,['k'],['d'],Y,,Y,Y,F,23
0,567,567,217,12,['k'],['d'],Y,,Y,Y,F,23
0,568,568,444,12,['k'],['k'],N,,Y,Y,F,23
0,569,569,109,12,['k'],['d'],Y,,Y,Y,F,23
0,570,570,2,12,['k'],['d'],Y,,Y,Y,F,23
0,571,571,466,12,['d'],['k'],Y,,Y,Y,F,23
0,572,572,463,12,['d'],['k'],Y,,Y,Y,F,23
0,573,573,523,12,['d'],['k'],Y,,Y,Y,F,23
0,574,574,489,12,['k'],['k'],N,,Y,Y,F,23
0,575,575,278,12,['k'],['d'],Y,,Y,Y,F,23
0,576,576,170,12,['k'],['d'],Y,,Y,Y,F,23
0,577,577,187,12,['d'],['d'],N,,Y,Y,F,23
0,578,578,395,12,['d'],['k'],Y,,Y,Y,F,23
0,579,579,455,12,['d'],['k'],Y,,Y,Y,F,23
0,580,580,222,12,['k'],['d'],Y,,Y,Y,F,23
0,581,581,162,12,['k'],['d'],Y,,Y,Y,F,23
0,582,582,69,12,['k'],['d'],Y,,Y,Y,F,23
0,583,583,279,12,['k'],['d'],Y,,Y,Y,F,23
0,584,584,351,12,['d'],['k'],Y,,Y,Y,F,23
0,585,585,296,12,['k'],['d'],Y,,Y,Y,F,23
0,586,586,311,12,['d'],['k'],Y,,Y,Y,F,23
0,587,587,287,12,['k'],['d'],Y,,Y,Y,F,23
0,588,588,544,12,['d'],['k'],Y,,Y,Y,F,23
0,589,589,494,12,['d'],['k'],Y,,Y,Y,F,23
0,590,590,51,12,['k'],['d'],Y,,Y,Y,F,23
0,591,591,504,12,['d'],['k'],Y,,Y,Y,F,23
0,592,592,115,12,['k'],['d'],Y,,Y,Y,F,23
0,593,593,421,12,['d'],['k'],Y,,Y,Y,F,23
0,594,594,243,12,['k'],['d'],Y,,Y,Y,F,23
0,595,595,78,12,['d'],['d'],N,,Y,Y,F,23
0,596,596,149,12,['k'],['d'],Y,,Y,Y,F,23
0,597,597,330,12,['d'],['k'],Y,,Y,Y,F,23
0,598,598,153,12,['k'],['d'],Y,,Y,Y,F,23
0,599,599,55,12,['k'],['d'],Y,,Y,Y,F,23
,,,,,,,,,,,,
