.thisRepN,.thisTrialN,.thisN,.thisIndex,Block Number,Key pressed,Category,Correct?,Total correct,Percent correct,Button switch shown?,Fast?,gender,age,
0,0,0,241,1,['k'],['d'],N,,,,,male,21,
0,1,1,534,1,['k'],['k'],Y,,,,,male,21,
0,2,2,267,1,['k'],['d'],N,,,,,male,21,
0,3,3,56,1,['d'],['d'],Y,,,,,male,21,
0,4,4,14,1,['k'],['d'],N,,,,,male,21,
0,5,5,140,1,['d'],['d'],Y,,,,,male,21,
0,6,6,496,1,['d'],['k'],N,,,,,male,21,
0,7,7,282,1,['k'],['d'],N,,,,,male,21,
0,8,8,503,1,['k'],['k'],Y,,,,,male,21,
0,9,9,412,1,['k'],['k'],Y,,,,,male,21,
0,10,10,242,1,['d'],['d'],Y,,,,,male,21,
0,11,11,343,1,['k'],['k'],Y,,,,,male,21,
0,12,12,101,1,['k'],['d'],N,,,,,male,21,
0,13,13,173,1,['k'],['d'],N,,,,,male,21,
0,14,14,302,1,['d'],['k'],N,,,,,male,21,
0,15,15,405,1,['k'],['k'],Y,,,,,male,21,
0,16,16,49,1,['d'],['d'],Y,,,,,male,21,
0,17,17,57,1,['d'],['d'],Y,,,,,male,21,
0,18,18,338,1,['k'],['k'],Y,,,,,male,21,
0,19,19,280,1,['d'],['d'],Y,,,,,male,21,
0,20,20,311,1,['k'],['k'],Y,,,,,male,21,
0,21,21,8,1,['d'],['d'],Y,,,,,male,21,
0,22,22,378,1,['k'],['k'],Y,,,,,male,21,
0,23,23,19,1,['d'],['d'],Y,,,,,male,21,
0,24,24,307,1,['k'],['k'],Y,,,,,male,21,
0,25,25,424,1,['k'],['k'],Y,,,,,male,21,
0,26,26,518,1,['k'],['k'],Y,,,,,male,21,
0,27,27,441,1,['d'],['k'],N,,,,,male,21,
0,28,28,514,1,['d'],['k'],N,,,,,male,21,
0,29,29,17,1,['d'],['d'],Y,,,,,male,21,
0,30,30,386,1,['k'],['k'],Y,,,,,male,21,
0,31,31,432,1,['k'],['k'],Y,,,,,male,21,
0,32,32,417,1,['k'],['k'],Y,,,,,male,21,
0,33,33,388,1,['k'],['k'],Y,,,,,male,21,
0,34,34,349,1,['k'],['k'],Y,,,,,male,21,
0,35,35,207,1,['d'],['d'],Y,,,,,male,21,
0,36,36,376,1,['k'],['k'],Y,,,,,male,21,
0,37,37,523,1,['k'],['k'],Y,,,,,male,21,
0,38,38,116,1,['k'],['d'],N,,,,,male,21,
0,39,39,528,1,['k'],['k'],Y,,,,,male,21,
0,40,40,452,1,['k'],['k'],Y,,,,,male,21,
0,41,41,220,1,['d'],['d'],Y,,,,,male,21,
0,42,42,2,1,['k'],['d'],N,,,,,male,21,
0,43,43,437,1,['k'],['k'],Y,,,,,male,21,
0,44,44,31,1,['k'],['d'],N,,,,,male,21,
0,45,45,155,1,['d'],['d'],Y,,,,,male,21,
0,46,46,542,1,['k'],['k'],Y,,,,,male,21,
0,47,47,246,1,['d'],['d'],Y,,,,,male,21,
0,48,48,303,1,['k'],['k'],Y,,,,,male,21,
0,49,49,530,1,['k'],['k'],Y,37,0,,,male,21,
0,50,50,86,2,['k'],['d'],N,,,,,male,21,
0,51,51,464,2,['k'],['k'],Y,,,,,male,21,
0,52,52,95,2,['k'],['d'],N,,,,,male,21,
0,53,53,446,2,['k'],['k'],Y,,,,,male,21,
0,54,54,306,2,['k'],['k'],Y,,,,,male,21,
0,55,55,466,2,['k'],['k'],Y,,,,,male,21,
0,56,56,145,2,['d'],['d'],Y,,,,,male,21,
0,57,57,122,2,['k'],['d'],N,,,,,male,21,
0,58,58,274,2,['k'],['d'],N,,,,,male,21,
0,59,59,449,2,['d'],['k'],N,,,,,male,21,
0,60,60,476,2,['k'],['k'],Y,,,,,male,21,
0,61,61,170,2,['d'],['d'],Y,,,,,male,21,
0,62,62,227,2,['d'],['d'],Y,,,,,male,21,
0,63,63,277,2,['d'],['d'],Y,,,,,male,21,
0,64,64,121,2,['k'],['d'],N,,,,,male,21,
0,65,65,421,2,['k'],['k'],Y,,,,,male,21,
0,66,66,263,2,['d'],['d'],Y,,,,,male,21,
0,67,67,419,2,['k'],['k'],Y,,,,,male,21,
0,68,68,594,2,['k'],['k'],Y,,,,,male,21,
0,69,69,591,2,['k'],['k'],Y,,,,,male,21,
0,70,70,279,2,['d'],['d'],Y,,,,,male,21,
0,71,71,79,2,['k'],['d'],N,,,,,male,21,
0,72,72,68,2,['d'],['d'],Y,,,,,male,21,
0,73,73,202,2,['d'],['d'],Y,,,,,male,21,
0,74,74,536,2,['k'],['k'],Y,,,,,male,21,
0,75,75,370,2,['k'],['k'],Y,,,,,male,21,
0,76,76,581,2,['k'],['k'],Y,,,,,male,21,
0,77,77,108,2,['d'],['d'],Y,,,,,male,21,
0,78,78,133,2,['d'],['d'],Y,,,,,male,21,
0,79,79,59,2,['d'],['d'],Y,,,,,male,21,
0,80,80,215,2,['k'],['d'],N,,,,,male,21,
0,81,81,566,2,['k'],['k'],Y,,,,,male,21,
0,82,82,135,2,['d'],['d'],Y,,,,,male,21,
0,83,83,423,2,['k'],['k'],Y,,,,,male,21,
0,84,84,196,2,['d'],['d'],Y,,,,,male,21,
0,85,85,93,2,['k'],['d'],N,,,,,male,21,
0,86,86,169,2,['k'],['d'],N,,,,,male,21,
0,87,87,129,2,['d'],['d'],Y,,,,,male,21,
0,88,88,148,2,['d'],['d'],Y,,,,,male,21,
0,89,89,210,2,['k'],['d'],N,,,,,male,21,
0,90,90,451,2,['k'],['k'],Y,,,,,male,21,
0,91,91,548,2,['k'],['k'],Y,,,,,male,21,
0,92,92,42,2,['d'],['d'],Y,,,,,male,21,
0,93,93,483,2,['d'],['k'],N,,,,,male,21,
0,94,94,187,2,['k'],['d'],N,,,,,male,21,
0,95,95,362,2,['k'],['k'],Y,,,,,male,21,
0,96,96,176,2,['k'],['d'],N,,,,,male,21,
0,97,97,117,2,['d'],['d'],Y,,,,,male,21,
0,98,98,164,2,['d'],['d'],Y,,,,,male,21,
0,99,99,588,2,['k'],['k'],Y,36,0,,,male,21,
0,100,100,66,3,['d'],['d'],Y,,,,,male,21,
0,101,101,413,3,['k'],['k'],Y,,,,,male,21,
0,102,102,213,3,['d'],['d'],Y,,,,,male,21,
0,103,103,479,3,['k'],['k'],Y,,,,,male,21,
0,104,104,115,3,['d'],['d'],Y,,,,,male,21,
0,105,105,222,3,['d'],['d'],Y,,,,,male,21,
0,106,106,393,3,['k'],['k'],Y,,,,,male,21,
0,107,107,531,3,['k'],['k'],Y,,,,,male,21,
0,108,108,281,3,['d'],['d'],Y,,,,,male,21,
0,109,109,434,3,['k'],['k'],Y,,,,,male,21,
0,110,110,21,3,['d'],['d'],Y,,,,,male,21,
0,111,111,272,3,['k'],['d'],N,,,,,male,21,
0,112,112,154,3,['k'],['d'],N,,,,,male,21,
0,113,113,104,3,['d'],['d'],Y,,,,,male,21,
0,114,114,214,3,['d'],['d'],Y,,,,,male,21,
0,115,115,84,3,['k'],['d'],N,,,,,male,21,
0,116,116,541,3,['k'],['k'],Y,,,,,male,21,
0,117,117,433,3,['d'],['k'],N,,,,,male,21,
0,118,118,257,3,['k'],['d'],N,,,,,male,21,
0,119,119,27,3,['k'],['d'],N,,,,,male,21,
0,120,120,174,3,['d'],['d'],Y,,,,,male,21,
0,121,121,486,3,['k'],['k'],Y,,,,,male,21,
0,122,122,481,3,['k'],['k'],Y,,,,,male,21,
0,123,123,383,3,['k'],['k'],Y,,,,,male,21,
0,124,124,428,3,['k'],['k'],Y,,,,,male,21,
0,125,125,289,3,['d'],['d'],Y,,,,,male,21,
0,126,126,102,3,['k'],['d'],N,,,,,male,21,
0,127,127,425,3,['k'],['k'],Y,,,,,male,21,
0,128,128,184,3,['d'],['d'],Y,,,,,male,21,
0,129,129,146,3,['d'],['d'],Y,,,,,male,21,
0,130,130,75,3,['d'],['d'],Y,,,,,male,21,
0,131,131,286,3,['d'],['d'],Y,,,,,male,21,
0,132,132,572,3,['k'],['k'],Y,,,,,male,21,
0,133,133,128,3,['k'],['d'],N,,,,,male,21,
0,134,134,293,3,['d'],['d'],Y,,,,,male,21,
0,135,135,576,3,['k'],['k'],Y,,,,,male,21,
0,136,136,20,3,['d'],['d'],Y,,,,,male,21,
0,137,137,299,3,['d'],['d'],Y,,,,,male,21,
0,138,138,457,3,['k'],['k'],Y,,,,,male,21,
0,139,139,123,3,['d'],['d'],Y,,,,,male,21,
0,140,140,567,3,['k'],['k'],Y,,,,,male,21,
0,141,141,502,3,['k'],['k'],Y,,,,,male,21,
0,142,142,310,3,['k'],['k'],Y,,,,,male,21,
0,143,143,477,3,['k'],['k'],Y,,,,,male,21,
0,144,144,325,3,['k'],['k'],Y,,,,,male,21,
0,145,145,76,3,['k'],['d'],N,,,,,male,21,
0,146,146,515,3,['k'],['k'],Y,,,,,male,21,
0,147,147,374,3,['k'],['k'],Y,,,,,male,21,
0,148,148,112,3,['d'],['d'],Y,,,,,male,21,
0,149,149,411,3,['k'],['k'],Y,41,0,,,male,21,
0,150,150,559,4,['k'],['k'],Y,,,,,male,21,
0,151,151,297,4,['k'],['d'],N,,,,,male,21,
0,152,152,24,4,['k'],['d'],N,,,,,male,21,
0,153,153,391,4,['k'],['k'],Y,,,,,male,21,
0,154,154,562,4,['k'],['k'],Y,,,,,male,21,
0,155,155,103,4,['d'],['d'],Y,,,,,male,21,
0,156,156,139,4,['d'],['d'],Y,,,,,male,21,
0,157,157,586,4,['k'],['k'],Y,,,,,male,21,
0,158,158,521,4,['k'],['k'],Y,,,,,male,21,
0,159,159,247,4,['d'],['d'],Y,,,,,male,21,
0,160,160,436,4,['k'],['k'],Y,,,,,male,21,
0,161,161,134,4,['d'],['d'],Y,,,,,male,21,
0,162,162,585,4,['k'],['k'],Y,,,,,male,21,
0,163,163,269,4,['k'],['d'],N,,,,,male,21,
0,164,164,351,4,['k'],['k'],Y,,,,,male,21,
0,165,165,445,4,['k'],['k'],Y,,,,,male,21,
0,166,166,125,4,['d'],['d'],Y,,,,,male,21,
0,167,167,266,4,['k'],['d'],N,,,,,male,21,
0,168,168,191,4,['d'],['d'],Y,,,,,male,21,
0,169,169,221,4,['d'],['d'],Y,,,,,male,21,
0,170,170,574,4,['k'],['k'],Y,,,,,male,21,
0,171,171,460,4,['k'],['k'],Y,,,,,male,21,
0,172,172,276,4,['d'],['d'],Y,,,,,male,21,
0,173,173,339,4,['k'],['k'],Y,,,,,male,21,
0,174,174,358,4,['k'],['k'],Y,,,,,male,21,
0,175,175,81,4,['d'],['d'],Y,,,,,male,21,
0,176,176,62,4,['d'],['d'],Y,,,,,male,21,
0,177,177,109,4,['d'],['d'],Y,,,,,male,21,
0,178,178,357,4,['d'],['k'],N,,,,,male,21,
0,179,179,598,4,['k'],['k'],Y,,,,,male,21,
0,180,180,290,4,['d'],['d'],Y,,,,,male,21,
0,181,181,512,4,['k'],['k'],Y,,,,,male,21,
0,182,182,397,4,['k'],['k'],Y,,,,,male,21,
0,183,183,571,4,['k'],['k'],Y,,,,,male,21,
0,184,184,300,4,['k'],['k'],Y,,,,,male,21,
0,185,185,517,4,['k'],['k'],Y,,,,,male,21,
0,186,186,160,4,['k'],['d'],N,,,,,male,21,
0,187,187,593,4,['k'],['k'],Y,,,,,male,21,
0,188,188,58,4,['d'],['d'],Y,,,,,male,21,
0,189,189,426,4,['k'],['k'],Y,,,,,male,21,
0,190,190,334,4,['k'],['k'],Y,,,,,male,21,
0,191,191,254,4,['d'],['d'],Y,,,,,male,21,
0,192,192,39,4,['d'],['d'],Y,,,,,male,21,
0,193,193,331,4,['k'],['k'],Y,,,,,male,21,
0,194,194,83,4,['k'],['d'],N,,,,,male,21,
0,195,195,490,4,['k'],['k'],Y,,,,,male,21,
0,196,196,52,4,['d'],['d'],Y,,,,,male,21,
0,197,197,407,4,['k'],['k'],Y,,,,,male,21,
0,198,198,50,4,['d'],['d'],Y,,,,,male,21,
0,199,199,529,4,['d'],['k'],N,42,0,,,male,21,
0,200,200,321,5,['k'],['k'],Y,,,,,male,21,
0,201,201,377,5,['k'],['k'],Y,,,,,male,21,
0,202,202,465,5,['k'],['k'],Y,,,,,male,21,
0,203,203,439,5,['k'],['k'],Y,,,,,male,21,
0,204,204,136,5,['d'],['d'],Y,,,,,male,21,
0,205,205,186,5,['d'],['d'],Y,,,,,male,21,
0,206,206,61,5,['k'],['d'],N,,,,,male,21,
0,207,207,144,5,['d'],['d'],Y,,,,,male,21,
0,208,208,216,5,['d'],['d'],Y,,,,,male,21,
0,209,209,406,5,['k'],['k'],Y,,,,,male,21,
0,210,210,92,5,['k'],['d'],N,,,,,male,21,
0,211,211,312,5,['k'],['k'],Y,,,,,male,21,
0,212,212,158,5,['k'],['d'],N,,,,,male,21,
0,213,213,45,5,['k'],['d'],N,,,,,male,21,
0,214,214,270,5,['d'],['d'],Y,,,,,male,21,
0,215,215,537,5,['k'],['k'],Y,,,,,male,21,
0,216,216,89,5,['k'],['d'],N,,,,,male,21,
0,217,217,498,5,['k'],['k'],Y,,,,,male,21,
0,218,218,363,5,['d'],['k'],N,,,,,male,21,
0,219,219,580,5,['k'],['k'],Y,,,,,male,21,
0,220,220,315,5,['k'],['k'],Y,,,,,male,21,
0,221,221,544,5,['k'],['k'],Y,,,,,male,21,
0,222,222,563,5,['k'],['k'],Y,,,,,male,21,
0,223,223,141,5,['d'],['d'],Y,,,,,male,21,
0,224,224,395,5,['k'],['k'],Y,,,,,male,21,
0,225,225,149,5,['d'],['d'],Y,,,,,male,21,
0,226,226,355,5,['k'],['k'],Y,,,,,male,21,
0,227,227,34,5,['k'],['d'],N,,,,,male,21,
0,228,228,80,5,['k'],['d'],N,,,,,male,21,
0,229,229,501,5,['k'],['k'],Y,,,,,male,21,
0,230,230,385,5,['k'],['k'],Y,,,,,male,21,
0,231,231,500,5,['d'],['k'],N,,,,,male,21,
0,232,232,584,5,['k'],['k'],Y,,,,,male,21,
0,233,233,589,5,['d'],['k'],N,,,,,male,21,
0,234,234,403,5,['k'],['k'],Y,,,,,male,21,
0,235,235,410,5,['k'],['k'],Y,,,,,male,21,
0,236,236,38,5,['k'],['d'],N,,,,,male,21,
0,237,237,226,5,['d'],['d'],Y,,,,,male,21,
0,238,238,218,5,['k'],['d'],N,,,,,male,21,
0,239,239,330,5,['d'],['k'],N,,,,,male,21,
0,240,240,313,5,['k'],['k'],Y,,,,,male,21,
0,241,241,367,5,['k'],['k'],Y,,,,,male,21,
0,242,242,113,5,['k'],['d'],N,,,,,male,21,
0,243,243,219,5,['d'],['d'],Y,,,,,male,21,
0,244,244,40,5,['k'],['d'],N,,,,,male,21,
0,245,245,29,5,['d'],['d'],Y,,,,,male,21,
0,246,246,200,5,['k'],['d'],N,,,,,male,21,
0,247,247,295,5,['k'],['d'],N,,,,,male,21,
0,248,248,285,5,['d'],['d'],Y,,,,,male,21,
0,249,249,152,5,['d'],['d'],Y,33,0,,,male,21,
0,250,250,520,6,['k'],['k'],Y,,,,,male,21,
0,251,251,0,6,['k'],['d'],N,,,,,male,21,
0,252,252,568,6,['k'],['k'],Y,,,,,male,21,
0,253,253,546,6,['d'],['k'],N,,,,,male,21,
0,254,254,384,6,['k'],['k'],Y,,,,,male,21,
0,255,255,305,6,['k'],['k'],Y,,,,,male,21,
0,256,256,119,6,['d'],['d'],Y,,,,,male,21,
0,257,257,506,6,['k'],['k'],Y,,,,,male,21,
0,258,258,209,6,['d'],['d'],Y,,,,,male,21,
0,259,259,513,6,['k'],['k'],Y,,,,,male,21,
0,260,260,212,6,['d'],['d'],Y,,,,,male,21,
0,261,261,561,6,['k'],['k'],Y,,,,,male,21,
0,262,262,522,6,['d'],['k'],N,,,,,male,21,
0,263,263,252,6,['d'],['d'],Y,,,,,male,21,
0,264,264,153,6,['d'],['d'],Y,,,,,male,21,
0,265,265,558,6,['k'],['k'],Y,,,,,male,21,
0,266,266,97,6,['d'],['d'],Y,,,,,male,21,
0,267,267,373,6,['d'],['k'],N,,,,,male,21,
0,268,268,265,6,['d'],['d'],Y,,,,,male,21,
0,269,269,322,6,['k'],['k'],Y,,,,,male,21,
0,270,270,287,6,['d'],['d'],Y,,,,,male,21,
0,271,271,120,6,['d'],['d'],Y,,,,,male,21,
0,272,272,163,6,['d'],['d'],Y,,,,,male,21,
0,273,273,455,6,['k'],['k'],Y,,,,,male,21,
0,274,274,284,6,['d'],['d'],Y,,,,,male,21,
0,275,275,288,6,['d'],['d'],Y,,,,,male,21,
0,276,276,553,6,['k'],['k'],Y,,,,,male,21,
0,277,277,557,6,['d'],['k'],N,,,,,male,21,
0,278,278,16,6,['d'],['d'],Y,,,,,male,21,
0,279,279,430,6,['k'],['k'],Y,,,,,male,21,
0,280,280,599,6,['d'],['k'],N,,,,,male,21,
0,281,281,504,6,['k'],['k'],Y,,,,,male,21,
0,282,282,389,6,['k'],['k'],Y,,,,,male,21,
0,283,283,107,6,['k'],['d'],N,,,,,male,21,
0,284,284,575,6,['k'],['k'],Y,,,,,male,21,
0,285,285,519,6,['k'],['k'],Y,,,,,male,21,
0,286,286,127,6,['d'],['d'],Y,,,,,male,21,
0,287,287,190,6,['d'],['d'],Y,,,,,male,21,
0,288,288,489,6,['d'],['k'],N,,,,,male,21,
0,289,289,590,6,['k'],['k'],Y,,,,,male,21,
0,290,290,248,6,['d'],['d'],Y,,,,,male,21,
0,291,291,211,6,['d'],['d'],Y,,,,,male,21,
0,292,292,508,6,['k'],['k'],Y,,,,,male,21,
0,293,293,177,6,['d'],['d'],Y,,,,,male,21,
0,294,294,142,6,['d'],['d'],Y,,,,,male,21,
0,295,295,597,6,['k'],['k'],Y,,,,,male,21,
0,296,296,60,6,['k'],['d'],N,,,,,male,21,
0,297,297,461,6,['k'],['k'],Y,,,,,male,21,
0,298,298,345,6,['k'],['k'],Y,,,,,male,21,
0,299,299,138,6,['k'],['d'],N,40,0,,,male,21,
0,300,300,337,7,['k'],['k'],Y,,,,,male,21,
0,301,301,32,7,['d'],['d'],Y,,,,,male,21,
0,302,302,182,7,['d'],['d'],Y,,,,,male,21,
0,303,303,429,7,['d'],['k'],N,,,,,male,21,
0,304,304,583,7,['k'],['k'],Y,,,,,male,21,
0,305,305,364,7,['k'],['k'],Y,,,,,male,21,
0,306,306,244,7,['d'],['d'],Y,,,,,male,21,
0,307,307,463,7,['k'],['k'],Y,,,,,male,21,
0,308,308,161,7,['d'],['d'],Y,,,,,male,21,
0,309,309,256,7,['k'],['d'],N,,,,,male,21,
0,310,310,336,7,['k'],['k'],Y,,,,,male,21,
0,311,311,565,7,['k'],['k'],Y,,,,,male,21,
0,312,312,235,7,['d'],['d'],Y,,,,,male,21,
0,313,313,291,7,['d'],['d'],Y,,,,,male,21,
0,314,314,550,7,['k'],['k'],Y,,,,,male,21,
0,315,315,114,7,['k'],['d'],N,,,,,male,21,
0,316,316,77,7,['d'],['d'],Y,,,,,male,21,
0,317,317,467,7,['k'],['k'],Y,,,,,male,21,
0,318,318,459,7,['k'],['k'],Y,,,,,male,21,
0,319,319,469,7,['d'],['k'],N,,,,,male,21,
0,320,320,67,7,['d'],['d'],Y,,,,,male,21,
0,321,321,488,7,['k'],['k'],Y,,,,,male,21,
0,322,322,143,7,['d'],['d'],Y,,,,,male,21,
0,323,323,137,7,['k'],['d'],N,,,,,male,21,
0,324,324,130,7,['d'],['d'],Y,,,,,male,21,
0,325,325,495,7,['k'],['k'],Y,,,,,male,21,
0,326,326,485,7,['k'],['k'],Y,,,,,male,21,
0,327,327,492,7,['k'],['k'],Y,,,,,male,21,
0,328,328,189,7,['d'],['d'],Y,,,,,male,21,
0,329,329,356,7,['k'],['k'],Y,,,,,male,21,
0,330,330,63,7,['k'],['d'],N,,,,,male,21,
0,331,331,35,7,['k'],['d'],N,,,,,male,21,
0,332,332,328,7,['k'],['k'],Y,,,,,male,21,
0,333,333,371,7,['k'],['k'],Y,,,,,male,21,
0,334,334,87,7,['k'],['d'],N,,,,,male,21,
0,335,335,318,7,['k'],['k'],Y,,,,,male,21,
0,336,336,253,7,['d'],['d'],Y,,,,,male,21,
0,337,337,366,7,['k'],['k'],Y,,,,,male,21,
0,338,338,409,7,['k'],['k'],Y,,,,,male,21,
0,339,339,105,7,['k'],['d'],N,,,,,male,21,
0,340,340,157,7,['k'],['d'],N,,,,,male,21,
0,341,341,18,7,['d'],['d'],Y,,,,,male,21,
0,342,342,193,7,['k'],['d'],N,,,,,male,21,
0,343,343,532,7,['k'],['k'],Y,,,,,male,21,
0,344,344,387,7,['k'],['k'],Y,,,,,male,21,
0,345,345,237,7,['d'],['d'],Y,,,,,male,21,
0,346,346,435,7,['k'],['k'],Y,,,,,male,21,
0,347,347,372,7,['k'],['k'],Y,,,,,male,21,
0,348,348,511,7,['k'],['k'],Y,,,,,male,21,
0,349,349,53,7,['d'],['d'],Y,39,0,,,male,21,
0,350,350,595,8,['k'],['k'],Y,,,,,male,21,
0,351,351,543,8,['k'],['k'],Y,,,,,male,21,
0,352,352,250,8,['d'],['d'],Y,,,,,male,21,
0,353,353,171,8,['d'],['d'],Y,,,,,male,21,
0,354,354,204,8,['k'],['d'],N,,,,,male,21,
0,355,355,232,8,['k'],['d'],N,,,,,male,21,
0,356,356,11,8,['d'],['d'],Y,,,,,male,21,
0,357,357,240,8,['d'],['d'],Y,,,,,male,21,
0,358,358,549,8,['k'],['k'],Y,,,,,male,21,
0,359,359,308,8,['k'],['k'],Y,,,,,male,21,
0,360,360,118,8,['d'],['d'],Y,,,,,male,21,
0,361,361,233,8,['d'],['d'],Y,,,,,male,21,
0,362,362,365,8,['k'],['k'],Y,,,,,male,21,
0,363,363,48,8,['d'],['d'],Y,,,,,male,21,
0,364,364,316,8,['k'],['k'],Y,,,,,male,21,
0,365,365,275,8,['d'],['d'],Y,,,,,male,21,
0,366,366,243,8,['d'],['d'],Y,,,,,male,21,
0,367,367,493,8,['k'],['k'],Y,,,,,male,21,
0,368,368,192,8,['d'],['d'],Y,,,,,male,21,
0,369,369,448,8,['k'],['k'],Y,,,,,male,21,
0,370,370,159,8,['d'],['d'],Y,,,,,male,21,
0,371,371,69,8,['d'],['d'],Y,,,,,male,21,
0,372,372,346,8,['k'],['k'],Y,,,,,male,21,
0,373,373,535,8,['k'],['k'],Y,,,,,male,21,
0,374,374,203,8,['d'],['d'],Y,,,,,male,21,
0,375,375,264,8,['d'],['d'],Y,,,,,male,21,
0,376,376,475,8,['k'],['k'],Y,,,,,male,21,
0,377,377,453,8,['k'],['k'],Y,,,,,male,21,
0,378,378,324,8,['d'],['k'],N,,,,,male,21,
0,379,379,507,8,['k'],['k'],Y,,,,,male,21,
0,380,380,100,8,['k'],['d'],N,,,,,male,21,
0,381,381,180,8,['d'],['d'],Y,,,,,male,21,
0,382,382,347,8,['k'],['k'],Y,,,,,male,21,
0,383,383,494,8,['k'],['k'],Y,,,,,male,21,
0,384,384,239,8,['d'],['d'],Y,,,,,male,21,
0,385,385,298,8,['d'],['d'],Y,,,,,male,21,
0,386,386,540,8,['k'],['k'],Y,,,,,male,21,
0,387,387,444,8,['k'],['k'],Y,,,,,male,21,
0,388,388,231,8,['d'],['d'],Y,,,,,male,21,
0,389,389,360,8,['k'],['k'],Y,,,,,male,21,
0,390,390,408,8,['k'],['k'],Y,,,,,male,21,
0,391,391,579,8,['k'],['k'],Y,,,,,male,21,
0,392,392,319,8,['k'],['k'],Y,,,,,male,21,
0,393,393,482,8,['k'],['k'],Y,,,,,male,21,
0,394,394,472,8,['k'],['k'],Y,,,,,male,21,
0,395,395,380,8,['k'],['k'],Y,,,,,male,21,
0,396,396,551,8,['k'],['k'],Y,,,,,male,21,
0,397,397,15,8,['d'],['d'],Y,,,,,male,21,
0,398,398,110,8,['d'],['d'],Y,,,,,male,21,
0,399,399,390,8,['k'],['k'],Y,46,0,,,male,21,
0,400,400,350,9,['k'],['k'],Y,,,,,male,21,
0,401,401,271,9,['d'],['d'],Y,,,,,male,21,
0,402,402,124,9,['k'],['d'],N,,,,,male,21,
0,403,403,499,9,['k'],['k'],Y,,,,,male,21,
0,404,404,309,9,['k'],['k'],Y,,,,,male,21,
0,405,405,418,9,['k'],['k'],Y,,,,,male,21,
0,406,406,65,9,['d'],['d'],Y,,,,,male,21,
0,407,407,111,9,['d'],['d'],Y,,,,,male,21,
0,408,408,539,9,['k'],['k'],Y,,,,,male,21,
0,409,409,401,9,['k'],['k'],Y,,,,,male,21,
0,410,410,198,9,['d'],['d'],Y,,,,,male,21,
0,411,411,245,9,['d'],['d'],Y,,,,,male,21,
0,412,412,30,9,['d'],['d'],Y,,,,,male,21,
0,413,413,497,9,['k'],['k'],Y,,,,,male,21,
0,414,414,96,9,['d'],['d'],Y,,,,,male,21,
0,415,415,167,9,['d'],['d'],Y,,,,,male,21,
0,416,416,151,9,['d'],['d'],Y,,,,,male,21,
0,417,417,545,9,['k'],['k'],Y,,,,,male,21,
0,418,418,251,9,['d'],['d'],Y,,,,,male,21,
0,419,419,587,9,['k'],['k'],Y,,,,,male,21,
0,420,420,487,9,['k'],['k'],Y,,,,,male,21,
0,421,421,183,9,['d'],['d'],Y,,,,,male,21,
0,422,422,560,9,['k'],['k'],Y,,,,,male,21,
0,423,423,323,9,['d'],['k'],N,,,,,male,21,
0,424,424,26,9,['d'],['d'],Y,,,,,male,21,
0,425,425,470,9,['k'],['k'],Y,,,,,male,21,
0,426,426,162,9,['d'],['d'],Y,,,,,male,21,
0,427,427,195,9,['d'],['d'],Y,,,,,male,21,
0,428,428,194,9,['k'],['d'],N,,,,,male,21,
0,429,429,552,9,['k'],['k'],Y,,,,,male,21,
0,430,430,317,9,['k'],['k'],Y,,,,,male,21,
0,431,431,225,9,['d'],['d'],Y,,,,,male,21,
0,432,432,361,9,['k'],['k'],Y,,,,,male,21,
0,433,433,320,9,['k'],['k'],Y,,,,,male,21,
0,434,434,456,9,['k'],['k'],Y,,,,,male,21,
0,435,435,577,9,['k'],['k'],Y,,,,,male,21,
0,436,436,359,9,['k'],['k'],Y,,,,,male,21,
0,437,437,398,9,['k'],['k'],Y,,,,,male,21,
0,438,438,278,9,['k'],['d'],N,,,,,male,21,
0,439,439,431,9,['k'],['k'],Y,,,,,male,21,
0,440,440,564,9,['d'],['k'],N,,,,,male,21,
0,441,441,399,9,['k'],['k'],Y,,,,,male,21,
0,442,442,427,9,['k'],['k'],Y,,,,,male,21,
0,443,443,98,9,['d'],['d'],Y,,,,,male,21,
0,444,444,28,9,['d'],['d'],Y,,,,,male,21,
0,445,445,1,9,['d'],['d'],Y,,,,,male,21,
0,446,446,314,9,['k'],['k'],Y,,,,,male,21,
0,447,447,25,9,['d'],['d'],Y,,,,,male,21,
0,448,448,208,9,['d'],['d'],Y,,,,,male,21,
0,449,449,480,9,['k'],['k'],Y,45,0,,,male,21,
0,450,450,188,10,['d'],['d'],Y,,,,,male,21,
0,451,451,99,10,['d'],['d'],Y,,,,,male,21,
0,452,452,74,10,['d'],['d'],Y,,,,,male,21,
0,453,453,450,10,['d'],['k'],N,,,,,male,21,
0,454,454,340,10,['k'],['k'],Y,,,,,male,21,
0,455,455,91,10,['d'],['d'],Y,,,,,male,21,
0,456,456,416,10,['k'],['k'],Y,,,,,male,21,
0,457,457,333,10,['k'],['k'],Y,,,,,male,21,
0,458,458,71,10,['d'],['d'],Y,,,,,male,21,
0,459,459,301,10,['k'],['k'],Y,,,,,male,21,
0,460,460,454,10,['k'],['k'],Y,,,,,male,21,
0,461,461,379,10,['d'],['k'],N,,,,,male,21,
0,462,462,261,10,['d'],['d'],Y,,,,,male,21,
0,463,463,10,10,['d'],['d'],Y,,,,,male,21,
0,464,464,234,10,['d'],['d'],Y,,,,,male,21,
0,465,465,6,10,['d'],['d'],Y,,,,,male,21,
0,466,466,326,10,['k'],['k'],Y,,,,,male,21,
0,467,467,348,10,['k'],['k'],Y,,,,,male,21,
0,468,468,259,10,['d'],['d'],Y,,,,,male,21,
0,469,469,181,10,['d'],['d'],Y,,,,,male,21,
0,470,470,344,10,['k'],['k'],Y,,,,,male,21,
0,471,471,12,10,['d'],['d'],Y,,,,,male,21,
0,472,472,47,10,['d'],['d'],Y,,,,,male,21,
0,473,473,7,10,['k'],['d'],N,,,,,male,21,
0,474,474,484,10,['d'],['k'],N,,,,,male,21,
0,475,475,37,10,['d'],['d'],Y,,,,,male,21,
0,476,476,260,10,['k'],['d'],N,,,,,male,21,
0,477,477,382,10,['k'],['k'],Y,,,,,male,21,
0,478,478,394,10,['k'],['k'],Y,,,,,male,21,
0,479,479,90,10,['d'],['d'],Y,,,,,male,21,
0,480,480,341,10,['k'],['k'],Y,,,,,male,21,
0,481,481,352,10,['k'],['k'],Y,,,,,male,21,
0,482,482,185,10,['d'],['d'],Y,,,,,male,21,
0,483,483,474,10,['k'],['k'],Y,,,,,male,21,
0,484,484,525,10,['d'],['k'],N,,,,,male,21,
0,485,485,94,10,['d'],['d'],Y,,,,,male,21,
0,486,486,468,10,['k'],['k'],Y,,,,,male,21,
0,487,487,268,10,['d'],['d'],Y,,,,,male,21,
0,488,488,5,10,['d'],['d'],Y,,,,,male,21,
0,489,489,578,10,['d'],['k'],N,,,,,male,21,
0,490,490,478,10,['k'],['k'],Y,,,,,male,21,
0,491,491,199,10,['k'],['d'],N,,,,,male,21,
0,492,492,217,10,['d'],['d'],Y,,,,,male,21,
0,493,493,368,10,['k'],['k'],Y,,,,,male,21,
0,494,494,73,10,['d'],['d'],Y,,,,,male,21,
0,495,495,55,10,['k'],['d'],N,,,,,male,21,
0,496,496,132,10,['k'],['d'],N,,,,,male,21,
0,497,497,85,10,['k'],['d'],N,,,,,male,21,
0,498,498,9,10,['d'],['d'],Y,,,,,male,21,
0,499,499,229,10,['d'],['d'],Y,39,0,,,male,21,
0,500,500,236,11,['d'],['d'],Y,,,Y,Y,male,21,
0,501,501,555,11,['k'],['k'],Y,,,,,male,21,
0,502,502,131,11,['k'],['d'],N,,,,,male,21,
0,503,503,201,11,['d'],['d'],Y,,,,,male,21,
0,504,504,126,11,['k'],['d'],N,,,,,male,21,
0,505,505,165,11,['d'],['d'],Y,,,,,male,21,
0,506,506,569,11,['k'],['k'],Y,,,,,male,21,
0,507,507,41,11,['d'],['d'],Y,,,,,male,21,
0,508,508,402,11,['k'],['k'],Y,,,,,male,21,
0,509,509,3,11,['d'],['d'],Y,,,,,male,21,
0,510,510,458,11,['d'],['k'],N,,,,,male,21,
0,511,511,51,11,['k'],['d'],N,,,,,male,21,
0,512,512,422,11,['k'],['k'],Y,,,,,male,21,
0,513,513,554,11,['k'],['k'],Y,,,,,male,21,
0,514,514,447,11,['k'],['k'],Y,,,,,male,21,
0,515,515,294,11,['d'],['d'],Y,,,,,male,21,
0,516,516,533,11,['k'],['k'],Y,,,,,male,21,
0,517,517,72,11,['d'],['d'],Y,,,,,male,21,
0,518,518,54,11,['d'],['d'],Y,,,,,male,21,
0,519,519,304,11,['k'],['k'],Y,,,,,male,21,
0,520,520,375,11,['k'],['k'],Y,,,,,male,21,
0,521,521,106,11,['d'],['d'],Y,,,,,male,21,
0,522,522,442,11,['k'],['k'],Y,,,,,male,21,
0,523,523,82,11,['d'],['d'],Y,,,,,male,21,
0,524,524,13,11,['d'],['d'],Y,,,,,male,21,
0,525,525,491,11,['k'],['k'],Y,,,,,male,21,
0,526,526,516,11,['k'],['k'],Y,,,,,male,21,
0,527,527,292,11,['d'],['d'],Y,,,,,male,21,
0,528,528,329,11,['k'],['k'],Y,,,,,male,21,
0,529,529,596,11,['k'],['k'],Y,,,,,male,21,
0,530,530,43,11,['d'],['d'],Y,,,,,male,21,
0,531,531,342,11,['d'],['k'],N,,,,,male,21,
0,532,532,381,11,['k'],['k'],Y,,,,,male,21,
0,533,533,150,11,['k'],['d'],N,,,,,male,21,
0,534,534,262,11,['k'],['d'],N,,,,,male,21,
0,535,535,22,11,['d'],['d'],Y,,,,,male,21,
0,536,536,168,11,['d'],['d'],Y,,,,,male,21,
0,537,537,335,11,['k'],['k'],Y,,,,,male,21,
0,538,538,369,11,['k'],['k'],Y,,,,,male,21,
0,539,539,582,11,['k'],['k'],Y,,,,,male,21,
0,540,540,392,11,['k'],['k'],Y,,,,,male,21,
0,541,541,462,11,['d'],['k'],N,,,,,male,21,
0,542,542,400,11,['k'],['k'],Y,,,,,male,21,
0,543,543,172,11,['d'],['d'],Y,,,,,male,21,
0,544,544,33,11,['d'],['d'],Y,,,,,male,21,
0,545,545,404,11,['d'],['k'],N,,,,,male,21,
0,546,546,332,11,['k'],['k'],Y,,,,,male,21,
0,547,547,327,11,['k'],['k'],Y,,,,,male,21,
0,548,548,166,11,['d'],['d'],Y,,,,,male,21,
0,549,549,547,11,['k'],['k'],Y,41,0,,,male,21,
0,550,550,414,12,['k'],['k'],Y,,,,,male,21,
0,551,551,197,12,['d'],['d'],Y,,,,,male,21,
0,552,552,223,12,['d'],['d'],Y,,,,,male,21,
0,553,553,473,12,['k'],['k'],Y,,,,,male,21,
0,554,554,526,12,['k'],['k'],Y,,,,,male,21,
0,555,555,88,12,['d'],['d'],Y,,,,,male,21,
0,556,556,415,12,['k'],['k'],Y,,,,,male,21,
0,557,557,505,12,['d'],['k'],N,,,,,male,21,
0,558,558,44,12,['d'],['d'],Y,,,,,male,21,
0,559,559,471,12,['d'],['k'],N,,,,,male,21,
0,560,560,524,12,['k'],['k'],Y,,,,,male,21,
0,561,561,420,12,['k'],['k'],Y,,,,,male,21,
0,562,562,249,12,['d'],['d'],Y,,,,,male,21,
0,563,563,238,12,['d'],['d'],Y,,,,,male,21,
0,564,564,510,12,['k'],['k'],Y,,,,,male,21,
0,565,565,396,12,['d'],['k'],N,,,,,male,21,
0,566,566,438,12,['k'],['k'],Y,,,,,male,21,
0,567,567,443,12,['k'],['k'],Y,,,,,male,21,
0,568,568,283,12,['k'],['d'],N,,,,,male,21,
0,569,569,354,12,['k'],['k'],Y,,,,,male,21,
0,570,570,258,12,['k'],['d'],N,,,,,male,21,
0,571,571,230,12,['k'],['d'],N,,,,,male,21,
0,572,572,573,12,['k'],['k'],Y,,,,,male,21,
0,573,573,273,12,['d'],['d'],Y,,,,,male,21,
0,574,574,509,12,['k'],['k'],Y,,,,,male,21,
0,575,575,228,12,['d'],['d'],Y,,,,,male,21,
0,576,576,206,12,['k'],['d'],N,,,,,male,21,
0,577,577,353,12,['k'],['k'],Y,,,,,male,21,
0,578,578,36,12,['d'],['d'],Y,,,,,male,21,
0,579,579,538,12,['k'],['k'],Y,,,,,male,21,
0,580,580,570,12,['d'],['k'],N,,,,,male,21,
0,581,581,527,12,['k'],['k'],Y,,,,,male,21,
0,582,582,70,12,['d'],['d'],Y,,,,,male,21,
0,583,583,78,12,['d'],['d'],Y,,,,,male,21,
0,584,584,205,12,['d'],['d'],Y,,,,,male,21,
0,585,585,178,12,['k'],['d'],N,,,,,male,21,
0,586,586,23,12,['d'],['d'],Y,,,,,male,21,
0,587,587,147,12,['k'],['d'],N,,,,,male,21,
0,588,588,175,12,['d'],['d'],Y,,,,,male,21,
0,589,589,224,12,['k'],['d'],N,,,,,male,21,
0,590,590,440,12,['k'],['k'],Y,,,,,male,21,
0,591,591,296,12,['d'],['d'],Y,,,,,male,21,
0,592,592,556,12,['k'],['k'],Y,,,,,male,21,
0,593,593,156,12,['d'],['d'],Y,,,,,male,21,
0,594,594,179,12,['d'],['d'],Y,,,,,male,21,
0,595,595,64,12,['k'],['d'],N,,,,,male,21,
0,596,596,4,12,['d'],['d'],Y,,,,,male,21,
0,597,597,592,12,['k'],['k'],Y,,,,,male,21,
0,598,598,255,12,['d'],['d'],Y,,,,,male,21,
0,599,599,46,12,['d'],['d'],Y,38,0,,,male,21,
