.thisRepN,.thisTrialN,.thisN,.thisIndex,Block Number,Key pressed,Category,Correct?,Button switch shown?,Fast?,gender,age
0,0,0,531,1,['k'],['k'],Y,,,female,21
0,1,1,231,1,['k'],['d'],N,,,female,21
0,2,2,390,1,['k'],['k'],Y,,,female,21
0,3,3,142,1,['d'],['d'],Y,,,female,21
0,4,4,93,1,['d'],['d'],Y,,,female,21
0,5,5,199,1,['k'],['d'],N,,,female,21
0,6,6,222,1,['k'],['d'],N,,,female,21
0,7,7,181,1,['d'],['d'],Y,,,female,21
0,8,8,18,1,['d'],['d'],Y,,,female,21
0,9,9,572,1,['d'],['k'],N,,,female,21
0,10,10,84,1,['d'],['d'],Y,,,female,21
0,11,11,262,1,['d'],['d'],Y,,,female,21
0,12,12,29,1,['k'],['d'],N,,,female,21
0,13,13,172,1,['d'],['d'],Y,,,female,21
0,14,14,424,1,['d'],['k'],N,,,female,21
0,15,15,530,1,['d'],['k'],N,,,female,21
0,16,16,573,1,['d'],['k'],N,,,female,21
0,17,17,516,1,['k'],['k'],Y,,,female,21
0,18,18,191,1,['k'],['d'],N,,,female,21
0,19,19,152,1,['k'],['d'],N,,,female,21
0,20,20,402,1,['k'],['k'],Y,,,female,21
0,21,21,328,1,['k'],['k'],Y,,,female,21
0,22,22,45,1,['d'],['d'],Y,,,female,21
0,23,23,128,1,['d'],['d'],Y,,,female,21
0,24,24,564,1,['d'],['k'],N,,,female,21
0,25,25,216,1,['d'],['d'],Y,,,female,21
0,26,26,143,1,['k'],['d'],N,,,female,21
0,27,27,86,1,['d'],['d'],Y,,,female,21
0,28,28,317,1,['k'],['k'],Y,,,female,21
0,29,29,589,1,['k'],['k'],Y,,,female,21
0,30,30,395,1,['k'],['k'],Y,,,female,21
0,31,31,182,1,['d'],['d'],Y,,,female,21
0,32,32,62,1,['d'],['d'],Y,,,female,21
0,33,33,356,1,['k'],['k'],Y,,,female,21
0,34,34,394,1,['k'],['k'],Y,,,female,21
0,35,35,517,1,['k'],['k'],Y,,,female,21
0,36,36,405,1,['k'],['k'],Y,,,female,21
0,37,37,169,1,['d'],['d'],Y,,,female,21
0,38,38,484,1,['k'],['k'],Y,,,female,21
0,39,39,456,1,['k'],['k'],Y,,,female,21
0,40,40,417,1,['k'],['k'],Y,,,female,21
0,41,41,559,1,['k'],['k'],Y,,,female,21
0,42,42,296,1,['d'],['d'],Y,,,female,21
0,43,43,259,1,['d'],['d'],Y,,,female,21
0,44,44,209,1,['d'],['d'],Y,,,female,21
0,45,45,537,1,['k'],['k'],Y,,,female,21
0,46,46,281,1,['d'],['d'],Y,,,female,21
0,47,47,159,1,['d'],['d'],Y,,,female,21
0,48,48,461,1,['k'],['k'],Y,,,female,21
0,49,49,342,1,['k'],['k'],Y,,,female,21
,,,,,,,"38 correct, 12 wrong",,,,
0,50,50,65,2,['k'],['d'],N,,,female,21
0,51,51,166,2,['d'],['d'],Y,,,female,21
0,52,52,386,2,['d'],['k'],N,,,female,21
0,53,53,72,2,['d'],['d'],Y,,,female,21
0,54,54,138,2,['d'],['d'],Y,,,female,21
0,55,55,202,2,['d'],['d'],Y,,,female,21
0,56,56,174,2,['d'],['d'],Y,,,female,21
0,57,57,412,2,['k'],['k'],Y,,,female,21
0,58,58,455,2,['k'],['k'],Y,,,female,21
0,59,59,170,2,['d'],['d'],Y,,,female,21
0,60,60,377,2,['k'],['k'],Y,,,female,21
0,61,61,219,2,['d'],['d'],Y,,,female,21
0,62,62,532,2,['k'],['k'],Y,,,female,21
0,63,63,357,2,['k'],['k'],Y,,,female,21
0,64,64,350,2,['k'],['k'],Y,,,female,21
0,65,65,47,2,['d'],['d'],Y,,,female,21
0,66,66,391,2,['k'],['k'],Y,,,female,21
0,67,67,100,2,['d'],['d'],Y,,,female,21
0,68,68,518,2,['k'],['k'],Y,,,female,21
0,69,69,120,2,['d'],['d'],Y,,,female,21
0,70,70,550,2,['k'],['k'],Y,,,female,21
0,71,71,505,2,['k'],['k'],Y,,,female,21
0,72,72,457,2,['k'],['k'],Y,,,female,21
0,73,73,418,2,['k'],['k'],Y,,,female,21
0,74,74,90,2,['d'],['d'],Y,,,female,21
0,75,75,454,2,['k'],['k'],Y,,,female,21
0,76,76,88,2,['d'],['d'],Y,,,female,21
0,77,77,245,2,['d'],['d'],Y,,,female,21
0,78,78,208,2,['d'],['d'],Y,,,female,21
0,79,79,567,2,['k'],['k'],Y,,,female,21
0,80,80,595,2,['k'],['k'],Y,,,female,21
0,81,81,413,2,['k'],['k'],Y,,,female,21
0,82,82,420,2,['k'],['k'],Y,,,female,21
0,83,83,190,2,['d'],['d'],Y,,,female,21
0,84,84,398,2,['k'],['k'],Y,,,female,21
0,85,85,560,2,['k'],['k'],Y,,,female,21
0,86,86,261,2,['d'],['d'],Y,,,female,21
0,87,87,295,2,['d'],['d'],Y,,,female,21
0,88,88,175,2,['d'],['d'],Y,,,female,21
0,89,89,462,2,['k'],['k'],Y,,,female,21
0,90,90,116,2,['d'],['d'],Y,,,female,21
0,91,91,585,2,['k'],['k'],Y,,,female,21
0,92,92,59,2,['d'],['d'],Y,,,female,21
0,93,93,597,2,['k'],['k'],Y,,,female,21
0,94,94,423,2,['k'],['k'],Y,,,female,21
0,95,95,385,2,['k'],['k'],Y,,,female,21
0,96,96,519,2,['k'],['k'],Y,,,female,21
0,97,97,347,2,['k'],['k'],Y,,,female,21
0,98,98,337,2,['k'],['k'],Y,,,female,21
0,99,99,9,2,['d'],['d'],Y,,,female,21
,,,,,,,"48 correct, 2 wrong",,,,
0,100,100,137,3,['d'],['d'],Y,,,female,21
0,101,101,285,3,['d'],['d'],Y,,,female,21
0,102,102,124,3,['d'],['d'],Y,,,female,21
0,103,103,63,3,['d'],['d'],Y,,,female,21
0,104,104,179,3,['d'],['d'],Y,,,female,21
0,105,105,302,3,['d'],['k'],N,,,female,21
0,106,106,406,3,['k'],['k'],Y,,,female,21
0,107,107,37,3,['d'],['d'],Y,,,female,21
0,108,108,471,3,['k'],['k'],Y,,,female,21
0,109,109,186,3,['d'],['d'],Y,,,female,21
0,110,110,94,3,['d'],['d'],Y,,,female,21
0,111,111,363,3,['k'],['k'],Y,,,female,21
0,112,112,383,3,['k'],['k'],Y,,,female,21
0,113,113,22,3,['d'],['d'],Y,,,female,21
0,114,114,220,3,['d'],['d'],Y,,,female,21
0,115,115,590,3,['k'],['k'],Y,,,female,21
0,116,116,48,3,['d'],['d'],Y,,,female,21
0,117,117,549,3,['d'],['k'],N,,,female,21
0,118,118,83,3,['d'],['d'],Y,,,female,21
0,119,119,151,3,['d'],['d'],Y,,,female,21
0,120,120,221,3,['d'],['d'],Y,,,female,21
0,121,121,234,3,['d'],['d'],Y,,,female,21
0,122,122,275,3,['d'],['d'],Y,,,female,21
0,123,123,98,3,['d'],['d'],Y,,,female,21
0,124,124,247,3,['d'],['d'],Y,,,female,21
0,125,125,224,3,['k'],['d'],N,,,female,21
0,126,126,305,3,['k'],['k'],Y,,,female,21
0,127,127,249,3,['d'],['d'],Y,,,female,21
0,128,128,442,3,['k'],['k'],Y,,,female,21
0,129,129,552,3,['k'],['k'],Y,,,female,21
0,130,130,557,3,['k'],['k'],Y,,,female,21
0,131,131,376,3,['d'],['k'],N,,,female,21
0,132,132,81,3,['d'],['d'],Y,,,female,21
0,133,133,76,3,['d'],['d'],Y,,,female,21
0,134,134,183,3,['d'],['d'],Y,,,female,21
0,135,135,227,3,['d'],['d'],Y,,,female,21
0,136,136,228,3,['d'],['d'],Y,,,female,21
0,137,137,520,3,['k'],['k'],Y,,,female,21
0,138,138,34,3,['d'],['d'],Y,,,female,21
0,139,139,327,3,['k'],['k'],Y,,,female,21
0,140,140,70,3,['d'],['d'],Y,,,female,21
0,141,141,299,3,['d'],['d'],Y,,,female,21
0,142,142,581,3,['k'],['k'],Y,,,female,21
0,143,143,155,3,['d'],['d'],Y,,,female,21
0,144,144,104,3,['d'],['d'],Y,,,female,21
0,145,145,599,3,['k'],['k'],Y,,,female,21
0,146,146,489,3,['k'],['k'],Y,,,female,21
0,147,147,264,3,['d'],['d'],Y,,,female,21
0,148,148,277,3,['d'],['d'],Y,,,female,21
0,149,149,441,3,['k'],['k'],Y,,,female,21
,,,,,,,"46 correct, 4 wrong",,,,
0,150,150,501,4,['k'],['k'],Y,,,female,21
0,151,151,115,4,['d'],['d'],Y,,,female,21
0,152,152,416,4,['k'],['k'],Y,,,female,21
0,153,153,579,4,['d'],['k'],N,,,female,21
0,154,154,353,4,['k'],['k'],Y,,,female,21
0,155,155,466,4,['k'],['k'],Y,,,female,21
0,156,156,571,4,['k'],['k'],Y,,,female,21
0,157,157,236,4,['k'],['d'],N,,,female,21
0,158,158,307,4,['k'],['k'],Y,,,female,21
0,159,159,254,4,['d'],['d'],Y,,,female,21
0,160,160,358,4,['k'],['k'],Y,,,female,21
0,161,161,486,4,['k'],['k'],Y,,,female,21
0,162,162,168,4,['d'],['d'],Y,,,female,21
0,163,163,510,4,['k'],['k'],Y,,,female,21
0,164,164,480,4,['k'],['k'],Y,,,female,21
0,165,165,46,4,['d'],['d'],Y,,,female,21
0,166,166,41,4,['d'],['d'],Y,,,female,21
0,167,167,502,4,['k'],['k'],Y,,,female,21
0,168,168,338,4,['k'],['k'],Y,,,female,21
0,169,169,463,4,['k'],['k'],Y,,,female,21
0,170,170,330,4,['k'],['k'],Y,,,female,21
0,171,171,382,4,['k'],['k'],Y,,,female,21
0,172,172,226,4,['d'],['d'],Y,,,female,21
0,173,173,258,4,['d'],['d'],Y,,,female,21
0,174,174,515,4,['k'],['k'],Y,,,female,21
0,175,175,24,4,['d'],['d'],Y,,,female,21
0,176,176,340,4,['k'],['k'],Y,,,female,21
0,177,177,237,4,['d'],['d'],Y,,,female,21
0,178,178,431,4,['k'],['k'],Y,,,female,21
0,179,179,266,4,['d'],['d'],Y,,,female,21
0,180,180,335,4,['k'],['k'],Y,,,female,21
0,181,181,538,4,['k'],['k'],Y,,,female,21
0,182,182,451,4,['k'],['k'],Y,,,female,21
0,183,183,388,4,['k'],['k'],Y,,,female,21
0,184,184,288,4,['k'],['d'],N,,,female,21
0,185,185,146,4,['k'],['d'],N,,,female,21
0,186,186,103,4,['d'],['d'],Y,,,female,21
0,187,187,469,4,['k'],['k'],Y,,,female,21
0,188,188,555,4,['k'],['k'],Y,,,female,21
0,189,189,150,4,['d'],['d'],Y,,,female,21
0,190,190,263,4,['d'],['d'],Y,,,female,21
0,191,191,495,4,['d'],['k'],N,,,female,21
0,192,192,10,4,['d'],['d'],Y,,,female,21
0,193,193,421,4,['k'],['k'],Y,,,female,21
0,194,194,4,4,['d'],['d'],Y,,,female,21
0,195,195,396,4,['k'],['k'],Y,,,female,21
0,196,196,593,4,['k'],['k'],Y,,,female,21
0,197,197,147,4,['d'],['d'],Y,,,female,21
0,198,198,176,4,['d'],['d'],Y,,,female,21
0,199,199,513,4,['k'],['k'],Y,,,female,21
,,,,,,,"45 correct, 5 wrong",,,,
0,200,200,500,5,['k'],['k'],Y,,,female,21
0,201,201,569,5,['k'],['k'],Y,,,female,21
0,202,202,365,5,['k'],['k'],Y,,,female,21
0,203,203,178,5,['d'],['d'],Y,,,female,21
0,204,204,71,5,['d'],['d'],Y,,,female,21
0,205,205,430,5,['k'],['k'],Y,,,female,21
0,206,206,30,5,['d'],['d'],Y,,,female,21
0,207,207,276,5,['d'],['d'],Y,,,female,21
0,208,208,204,5,['d'],['d'],Y,,,female,21
0,209,209,197,5,['d'],['d'],Y,,,female,21
0,210,210,130,5,['d'],['d'],Y,,,female,21
0,211,211,508,5,['k'],['k'],Y,,,female,21
0,212,212,242,5,['d'],['d'],Y,,,female,21
0,213,213,244,5,['d'],['d'],Y,,,female,21
0,214,214,399,5,['k'],['k'],Y,,,female,21
0,215,215,331,5,['k'],['k'],Y,,,female,21
0,216,216,200,5,['d'],['d'],Y,,,female,21
0,217,217,407,5,['k'],['k'],Y,,,female,21
0,218,218,280,5,['d'],['d'],Y,,,female,21
0,219,219,336,5,['k'],['k'],Y,,,female,21
0,220,220,473,5,['k'],['k'],Y,,,female,21
0,221,221,217,5,['d'],['d'],Y,,,female,21
0,222,222,378,5,['k'],['k'],Y,,,female,21
0,223,223,528,5,['d'],['k'],N,,,female,21
0,224,224,427,5,['k'],['k'],Y,,,female,21
0,225,225,344,5,['k'],['k'],Y,,,female,21
0,226,226,300,5,['k'],['k'],Y,,,female,21
0,227,227,349,5,['k'],['k'],Y,,,female,21
0,228,228,74,5,['d'],['d'],Y,,,female,21
0,229,229,329,5,['k'],['k'],Y,,,female,21
0,230,230,493,5,['k'],['k'],Y,,,female,21
0,231,231,311,5,['k'],['k'],Y,,,female,21
0,232,232,504,5,['k'],['k'],Y,,,female,21
0,233,233,459,5,['k'],['k'],Y,,,female,21
0,234,234,27,5,['d'],['d'],Y,,,female,21
0,235,235,325,5,['d'],['k'],N,,,female,21
0,236,236,477,5,['k'],['k'],Y,,,female,21
0,237,237,229,5,['d'],['d'],Y,,,female,21
0,238,238,164,5,['d'],['d'],Y,,,female,21
0,239,239,443,5,['d'],['k'],N,,,female,21
0,240,240,23,5,['d'],['d'],Y,,,female,21
0,241,241,577,5,['k'],['k'],Y,,,female,21
0,242,242,246,5,['d'],['d'],Y,,,female,21
0,243,243,80,5,['d'],['d'],Y,,,female,21
0,244,244,360,5,['k'],['k'],Y,,,female,21
0,245,245,177,5,['d'],['d'],Y,,,female,21
0,246,246,310,5,['k'],['k'],Y,,,female,21
0,247,247,213,5,['d'],['d'],Y,,,female,21
0,248,248,57,5,['d'],['d'],Y,,,female,21
0,249,249,428,5,['k'],['k'],Y,,,female,21
,,,,,,,"47 correct, 3 wrong",,,,
0,250,250,460,6,['k'],['k'],Y,,,female,21
0,251,251,51,6,['d'],['d'],Y,,,female,21
0,252,252,32,6,['d'],['d'],Y,,,female,21
0,253,253,392,6,['k'],['k'],Y,,,female,21
0,254,254,414,6,['k'],['k'],Y,,,female,21
0,255,255,13,6,['d'],['d'],Y,,,female,21
0,256,256,105,6,['d'],['d'],Y,,,female,21
0,257,257,271,6,['d'],['d'],Y,,,female,21
0,258,258,66,6,['d'],['d'],Y,,,female,21
0,259,259,140,6,['d'],['d'],Y,,,female,21
0,260,260,289,6,['d'],['d'],Y,,,female,21
0,261,261,351,6,['k'],['k'],Y,,,female,21
0,262,262,294,6,['d'],['d'],Y,,,female,21
0,263,263,372,6,['k'],['k'],Y,,,female,21
0,264,264,588,6,['k'],['k'],Y,,,female,21
0,265,265,440,6,['k'],['k'],Y,,,female,21
0,266,266,225,6,['d'],['d'],Y,,,female,21
0,267,267,362,6,['k'],['k'],Y,,,female,21
0,268,268,85,6,['d'],['d'],Y,,,female,21
0,269,269,332,6,['k'],['k'],Y,,,female,21
0,270,270,322,6,['k'],['k'],Y,,,female,21
0,271,271,282,6,['d'],['d'],Y,,,female,21
0,272,272,21,6,['d'],['d'],Y,,,female,21
0,273,273,218,6,['k'],['d'],N,,,female,21
0,274,274,369,6,['k'],['k'],Y,,,female,21
0,275,275,173,6,['k'],['d'],N,,,female,21
0,276,276,566,6,['k'],['k'],Y,,,female,21
0,277,277,522,6,['k'],['k'],Y,,,female,21
0,278,278,586,6,['d'],['k'],N,,,female,21
0,279,279,31,6,['d'],['d'],Y,,,female,21
0,280,280,265,6,['d'],['d'],Y,,,female,21
0,281,281,444,6,['k'],['k'],Y,,,female,21
0,282,282,26,6,['d'],['d'],Y,,,female,21
0,283,283,49,6,['d'],['d'],Y,,,female,21
0,284,284,198,6,['d'],['d'],Y,,,female,21
0,285,285,366,6,['k'],['k'],Y,,,female,21
0,286,286,75,6,['d'],['d'],Y,,,female,21
0,287,287,40,6,['d'],['d'],Y,,,female,21
0,288,288,452,6,['k'],['k'],Y,,,female,21
0,289,289,570,6,['k'],['k'],Y,,,female,21
0,290,290,400,6,['k'],['k'],Y,,,female,21
0,291,291,425,6,['k'],['k'],Y,,,female,21
0,292,292,7,6,['d'],['d'],Y,,,female,21
0,293,293,251,6,['d'],['d'],Y,,,female,21
0,294,294,422,6,['k'],['k'],Y,,,female,21
0,295,295,474,6,['k'],['k'],Y,,,female,21
0,296,296,68,6,['d'],['d'],Y,,,female,21
0,297,297,110,6,['d'],['d'],Y,,,female,21
0,298,298,439,6,['k'],['k'],Y,,,female,21
0,299,299,192,6,['d'],['d'],Y,,,female,21
,,,,,,,"47 correct, 3 wrong",,,,
0,300,300,256,7,['d'],['d'],Y,,,female,21
0,301,301,121,7,['d'],['d'],Y,,,female,21
0,302,302,272,7,['d'],['d'],Y,,,female,21
0,303,303,496,7,['k'],['k'],Y,,,female,21
0,304,304,160,7,['d'],['d'],Y,,,female,21
0,305,305,374,7,['k'],['k'],Y,,,female,21
0,306,306,55,7,['d'],['d'],Y,,,female,21
0,307,307,255,7,['d'],['d'],Y,,,female,21
0,308,308,0,7,['d'],['d'],Y,,,female,21
0,309,309,214,7,['d'],['d'],Y,,,female,21
0,310,310,6,7,['d'],['d'],Y,,,female,21
0,311,311,314,7,['k'],['k'],Y,,,female,21
0,312,312,437,7,['k'],['k'],Y,,,female,21
0,313,313,468,7,['k'],['k'],Y,,,female,21
0,314,314,188,7,['k'],['d'],N,,,female,21
0,315,315,206,7,['k'],['d'],N,,,female,21
0,316,316,447,7,['k'],['k'],Y,,,female,21
0,317,317,576,7,['k'],['k'],Y,,,female,21
0,318,318,171,7,['d'],['d'],Y,,,female,21
0,319,319,435,7,['k'],['k'],Y,,,female,21
0,320,320,107,7,['d'],['d'],Y,,,female,21
0,321,321,306,7,['k'],['k'],Y,,,female,21
0,322,322,133,7,['d'],['d'],Y,,,female,21
0,323,323,436,7,['k'],['k'],Y,,,female,21
0,324,324,470,7,['k'],['k'],Y,,,female,21
0,325,325,536,7,['d'],['k'],N,,,female,21
0,326,326,389,7,['k'],['k'],Y,,,female,21
0,327,327,131,7,['d'],['d'],Y,,,female,21
0,328,328,364,7,['k'],['k'],Y,,,female,21
0,329,329,494,7,['k'],['k'],Y,,,female,21
0,330,330,232,7,['d'],['d'],Y,,,female,21
0,331,331,106,7,['d'],['d'],Y,,,female,21
0,332,332,540,7,['d'],['k'],N,,,female,21
0,333,333,109,7,['d'],['d'],Y,,,female,21
0,334,334,547,7,['k'],['k'],Y,,,female,21
0,335,335,290,7,['d'],['d'],Y,,,female,21
0,336,336,587,7,['k'],['k'],Y,,,female,21
0,337,337,241,7,['d'],['d'],Y,,,female,21
0,338,338,487,7,['k'],['k'],Y,,,female,21
0,339,339,373,7,['d'],['k'],N,,,female,21
0,340,340,158,7,['d'],['d'],Y,,,female,21
0,341,341,554,7,['k'],['k'],Y,,,female,21
0,342,342,432,7,['k'],['k'],Y,,,female,21
0,343,343,3,7,['k'],['d'],N,,,female,21
0,344,344,458,7,['k'],['k'],Y,,,female,21
0,345,345,149,7,['d'],['d'],Y,,,female,21
0,346,346,1,7,['d'],['d'],Y,,,female,21
0,347,347,210,7,['d'],['d'],Y,,,female,21
0,348,348,156,7,['d'],['d'],Y,,,female,21
0,349,349,19,7,['d'],['d'],Y,,,female,21
,,,,,,,"44 correct, 6 wrong",,,,
0,350,350,591,8,['k'],['k'],Y,,,female,21
0,351,351,450,8,['k'],['k'],Y,,,female,21
0,352,352,354,8,['k'],['k'],Y,,,female,21
0,353,353,60,8,['d'],['d'],Y,,,female,21
0,354,354,113,8,['d'],['d'],Y,,,female,21
0,355,355,333,8,['k'],['k'],Y,,,female,21
0,356,356,479,8,['d'],['k'],N,,,female,21
0,357,357,141,8,['d'],['d'],Y,,,female,21
0,358,358,565,8,['k'],['k'],Y,,,female,21
0,359,359,482,8,['k'],['k'],Y,,,female,21
0,360,360,119,8,['k'],['d'],N,,,female,21
0,361,361,467,8,['k'],['k'],Y,,,female,21
0,362,362,320,8,['k'],['k'],Y,,,female,21
0,363,363,12,8,['d'],['d'],Y,,,female,21
0,364,364,257,8,['d'],['d'],Y,,,female,21
0,365,365,514,8,['d'],['k'],N,,,female,21
0,366,366,448,8,['d'],['k'],N,,,female,21
0,367,367,525,8,['k'],['k'],Y,,,female,21
0,368,368,52,8,['d'],['d'],Y,,,female,21
0,369,369,283,8,['d'],['d'],Y,,,female,21
0,370,370,568,8,['k'],['k'],Y,,,female,21
0,371,371,129,8,['d'],['d'],Y,,,female,21
0,372,372,136,8,['d'],['d'],Y,,,female,21
0,373,373,546,8,['k'],['k'],Y,,,female,21
0,374,374,25,8,['d'],['d'],Y,,,female,21
0,375,375,61,8,['d'],['d'],Y,,,female,21
0,376,376,472,8,['k'],['k'],Y,,,female,21
0,377,377,533,8,['k'],['k'],Y,,,female,21
0,378,378,293,8,['d'],['d'],Y,,,female,21
0,379,379,17,8,['d'],['d'],Y,,,female,21
0,380,380,434,8,['k'],['k'],Y,,,female,21
0,381,381,313,8,['k'],['k'],Y,,,female,21
0,382,382,161,8,['d'],['d'],Y,,,female,21
0,383,383,73,8,['d'],['d'],Y,,,female,21
0,384,384,478,8,['k'],['k'],Y,,,female,21
0,385,385,16,8,['d'],['d'],Y,,,female,21
0,386,386,403,8,['d'],['k'],N,,,female,21
0,387,387,185,8,['d'],['d'],Y,,,female,21
0,388,388,114,8,['d'],['d'],Y,,,female,21
0,389,389,270,8,['d'],['d'],Y,,,female,21
0,390,390,139,8,['d'],['d'],Y,,,female,21
0,391,391,11,8,['d'],['d'],Y,,,female,21
0,392,392,429,8,['k'],['k'],Y,,,female,21
0,393,393,371,8,['k'],['k'],Y,,,female,21
0,394,394,359,8,['k'],['k'],Y,,,female,21
0,395,395,78,8,['d'],['d'],Y,,,female,21
0,396,396,240,8,['d'],['d'],Y,,,female,21
0,397,397,446,8,['k'],['k'],Y,,,female,21
0,398,398,64,8,['d'],['d'],Y,,,female,21
0,399,399,125,8,['d'],['d'],Y,,,female,21
,,,,,,,"45 correct, 5 wrong",,,,
0,400,400,153,9,['d'],['d'],Y,,,female,21
0,401,401,380,9,['k'],['k'],Y,,,female,21
0,402,402,301,9,['k'],['k'],Y,,,female,21
0,403,403,201,9,['d'],['d'],Y,,,female,21
0,404,404,476,9,['k'],['k'],Y,,,female,21
0,405,405,361,9,['k'],['k'],Y,,,female,21
0,406,406,355,9,['k'],['k'],Y,,,female,21
0,407,407,551,9,['k'],['k'],Y,,,female,21
0,408,408,426,9,['k'],['k'],Y,,,female,21
0,409,409,598,9,['k'],['k'],Y,,,female,21
0,410,410,102,9,['d'],['d'],Y,,,female,21
0,411,411,44,9,['d'],['d'],Y,,,female,21
0,412,412,118,9,['d'],['d'],Y,,,female,21
0,413,413,165,9,['d'],['d'],Y,,,female,21
0,414,414,180,9,['d'],['d'],Y,,,female,21
0,415,415,77,9,['d'],['d'],Y,,,female,21
0,416,416,230,9,['d'],['d'],Y,,,female,21
0,417,417,521,9,['k'],['k'],Y,,,female,21
0,418,418,445,9,['k'],['k'],Y,,,female,21
0,419,419,498,9,['d'],['k'],N,,,female,21
0,420,420,492,9,['d'],['k'],N,,,female,21
0,421,421,582,9,['k'],['k'],Y,,,female,21
0,422,422,189,9,['d'],['d'],Y,,,female,21
0,423,423,561,9,['k'],['k'],Y,,,female,21
0,424,424,543,9,['k'],['k'],Y,,,female,21
0,425,425,50,9,['d'],['d'],Y,,,female,21
0,426,426,35,9,['d'],['d'],Y,,,female,21
0,427,427,97,9,['d'],['d'],Y,,,female,21
0,428,428,556,9,['k'],['k'],Y,,,female,21
0,429,429,122,9,['d'],['d'],Y,,,female,21
0,430,430,268,9,['d'],['d'],Y,,,female,21
0,431,431,238,9,['d'],['d'],Y,,,female,21
0,432,432,163,9,['d'],['d'],Y,,,female,21
0,433,433,326,9,['d'],['k'],N,,,female,21
0,434,434,96,9,['d'],['d'],Y,,,female,21
0,435,435,267,9,['d'],['d'],Y,,,female,21
0,436,436,196,9,['d'],['d'],Y,,,female,21
0,437,437,243,9,['d'],['d'],Y,,,female,21
0,438,438,368,9,['k'],['k'],Y,,,female,21
0,439,439,499,9,['k'],['k'],Y,,,female,21
0,440,440,253,9,['d'],['d'],Y,,,female,21
0,441,441,108,9,['k'],['d'],N,,,female,21
0,442,442,491,9,['k'],['k'],Y,,,female,21
0,443,443,273,9,['k'],['d'],N,,,female,21
0,444,444,117,9,['d'],['d'],Y,,,female,21
0,445,445,323,9,['d'],['k'],N,,,female,21
0,446,446,303,9,['k'],['k'],Y,,,female,21
0,447,447,574,9,['k'],['k'],Y,,,female,21
0,448,448,154,9,['d'],['d'],Y,,,female,21
0,449,449,278,9,['d'],['d'],Y,,,female,21
,,,,,,,"44 correct, 6 wrong",,,,
0,450,450,334,10,['k'],['k'],Y,,,female,21
0,451,451,101,10,['d'],['d'],Y,,,female,21
0,452,452,397,10,['k'],['k'],Y,,,female,21
0,453,453,33,10,['d'],['d'],Y,,,female,21
0,454,454,132,10,['d'],['d'],Y,,,female,21
0,455,455,583,10,['k'],['k'],Y,,,female,21
0,456,456,79,10,['d'],['d'],Y,,,female,21
0,457,457,15,10,['d'],['d'],Y,,,female,21
0,458,458,99,10,['d'],['d'],Y,,,female,21
0,459,459,370,10,['k'],['k'],Y,,,female,21
0,460,460,148,10,['d'],['d'],Y,,,female,21
0,461,461,419,10,['k'],['k'],Y,,,female,21
0,462,462,315,10,['k'],['k'],Y,,,female,21
0,463,463,167,10,['d'],['d'],Y,,,female,21
0,464,464,145,10,['d'],['d'],Y,,,female,21
0,465,465,483,10,['d'],['k'],N,,,female,21
0,466,466,123,10,['d'],['d'],Y,,,female,21
0,467,467,393,10,['k'],['k'],Y,,,female,21
0,468,468,475,10,['k'],['k'],Y,,,female,21
0,469,469,411,10,['k'],['k'],Y,,,female,21
0,470,470,449,10,['k'],['k'],Y,,,female,21
0,471,471,409,10,['k'],['k'],Y,,,female,21
0,472,472,260,10,['d'],['d'],Y,,,female,21
0,473,473,529,10,['k'],['k'],Y,,,female,21
0,474,474,464,10,['k'],['k'],Y,,,female,21
0,475,475,367,10,['k'],['k'],Y,,,female,21
0,476,476,348,10,['k'],['k'],Y,,,female,21
0,477,477,205,10,['d'],['d'],Y,,,female,21
0,478,478,318,10,['k'],['k'],Y,,,female,21
0,479,479,144,10,['d'],['d'],Y,,,female,21
0,480,480,184,10,['d'],['d'],Y,,,female,21
0,481,481,548,10,['k'],['k'],Y,,,female,21
0,482,482,387,10,['k'],['k'],Y,,,female,21
0,483,483,298,10,['d'],['d'],Y,,,female,21
0,484,484,134,10,['d'],['d'],Y,,,female,21
0,485,485,291,10,['d'],['d'],Y,,,female,21
0,486,486,507,10,['k'],['k'],Y,,,female,21
0,487,487,544,10,['k'],['k'],Y,,,female,21
0,488,488,82,10,['d'],['d'],Y,,,female,21
0,489,489,308,10,['k'],['k'],Y,,,female,21
0,490,490,43,10,['d'],['d'],Y,,,female,21
0,491,491,287,10,['d'],['d'],Y,,,female,21
0,492,492,207,10,['d'],['d'],Y,,,female,21
0,493,493,319,10,['k'],['k'],Y,,,female,21
0,494,494,58,10,['d'],['d'],Y,,,female,21
0,495,495,195,10,['d'],['d'],Y,,,female,21
0,496,496,92,10,['d'],['d'],Y,,,female,21
0,497,497,135,10,['d'],['d'],Y,,,female,21
0,498,498,497,10,['k'],['k'],Y,,,female,21
0,499,499,381,10,['k'],['k'],Y,,,female,21
,,,,,,,"49 correct, 1 wrong",,,,
0,500,500,341,11,['d'],['k'],Y,Y,Y,female,21
0,501,501,157,11,['k'],['d'],Y,,Y,female,21
0,502,502,592,11,['d'],['k'],Y,,Y,female,21
0,503,503,578,11,['d'],['k'],Y,,Y,female,21
0,504,504,212,11,['k'],['d'],Y,,Y,female,21
0,505,505,410,11,['d'],['k'],Y,,Y,female,21
0,506,506,575,11,['d'],['k'],Y,,Y,female,21
0,507,507,558,11,['d'],['k'],Y,,Y,female,21
0,508,508,596,11,['d'],['k'],Y,,Y,female,21
0,509,509,248,11,['k'],['d'],Y,,Y,female,21
0,510,510,580,11,['d'],['k'],Y,,Y,female,21
0,511,511,95,11,['k'],['d'],Y,,Y,female,21
0,512,512,415,11,['d'],['k'],Y,,Y,female,21
0,513,513,89,11,['d'],['d'],N,,Y,female,21
0,514,514,542,11,['d'],['k'],Y,,Y,female,21
0,515,515,345,11,['d'],['k'],Y,,Y,female,21
0,516,516,111,11,['k'],['d'],Y,,Y,female,21
0,517,517,488,11,['d'],['k'],Y,,Y,female,21
0,518,518,286,11,['k'],['d'],Y,,Y,female,21
0,519,519,39,11,['k'],['d'],Y,,Y,female,21
0,520,520,203,11,['k'],['d'],Y,,Y,female,21
0,521,521,384,11,['d'],['k'],Y,,Y,female,21
0,522,522,252,11,['k'],['d'],Y,,Y,female,21
0,523,523,512,11,['k'],['k'],N,,Y,female,21
0,524,524,545,11,['d'],['k'],Y,,Y,female,21
0,525,525,404,11,['d'],['k'],Y,,Y,female,21
0,526,526,91,11,['k'],['d'],Y,,Y,female,21
0,527,527,481,11,['d'],['k'],Y,,Y,female,21
0,528,528,563,11,['d'],['k'],Y,,Y,female,21
0,529,529,36,11,['k'],['d'],Y,,Y,female,21
0,530,530,233,11,['k'],['d'],Y,,Y,female,21
0,531,531,279,11,['k'],['d'],Y,,Y,female,21
0,532,532,526,11,['k'],['k'],N,,Y,female,21
0,533,533,379,11,['d'],['k'],Y,,Y,female,21
0,534,534,54,11,['k'],['d'],Y,,Y,female,21
0,535,535,343,11,['d'],['k'],Y,,Y,female,21
0,536,536,539,11,['d'],['k'],Y,,Y,female,21
0,537,537,594,11,['k'],['k'],N,,Y,female,21
0,538,538,352,11,['d'],['k'],Y,,Y,female,21
0,539,539,28,11,['k'],['d'],Y,,Y,female,21
0,540,540,524,11,['d'],['k'],Y,,Y,female,21
0,541,541,215,11,['k'],['d'],Y,,Y,female,21
0,542,542,503,11,['d'],['k'],Y,,Y,female,21
0,543,543,53,11,['k'],['d'],Y,,Y,female,21
0,544,544,187,11,['k'],['d'],Y,,Y,female,21
0,545,545,339,11,['d'],['k'],Y,,Y,female,21
0,546,546,511,11,['d'],['k'],Y,,Y,female,21
0,547,547,408,11,['d'],['k'],Y,,Y,female,21
0,548,548,562,11,['d'],['k'],Y,,Y,female,21
0,549,549,5,11,['k'],['d'],Y,,Y,female,21
,,,,,,,"46 correct, 4 wrong",,,,
0,550,550,321,12,['d'],['k'],Y,,Y,female,21
0,551,551,14,12,['d'],['d'],N,,Y,female,21
0,552,552,506,12,['d'],['k'],Y,,Y,female,21
0,553,553,211,12,['k'],['d'],Y,,Y,female,21
0,554,554,126,12,['k'],['d'],Y,,Y,female,21
0,555,555,20,12,['k'],['d'],Y,,Y,female,21
0,556,556,309,12,['d'],['k'],Y,,Y,female,21
0,557,557,541,12,['d'],['k'],Y,,Y,female,21
0,558,558,584,12,['k'],['k'],N,,Y,female,21
0,559,559,194,12,['k'],['d'],Y,,Y,female,21
0,560,560,87,12,['k'],['d'],Y,,Y,female,21
0,561,561,67,12,['k'],['d'],Y,,Y,female,21
0,562,562,316,12,['d'],['k'],Y,,Y,female,21
0,563,563,269,12,['k'],['d'],Y,,Y,female,21
0,564,564,453,12,['d'],['k'],Y,,Y,female,21
0,565,565,69,12,['k'],['d'],Y,,Y,female,21
0,566,566,304,12,['d'],['k'],Y,,Y,female,21
0,567,567,523,12,['d'],['k'],Y,,Y,female,21
0,568,568,527,12,['d'],['k'],Y,,Y,female,21
0,569,569,535,12,['d'],['k'],Y,,Y,female,21
0,570,570,438,12,['d'],['k'],Y,,Y,female,21
0,571,571,324,12,['d'],['k'],Y,,Y,female,21
0,572,572,193,12,['k'],['d'],Y,,Y,female,21
0,573,573,312,12,['d'],['k'],Y,,Y,female,21
0,574,574,375,12,['d'],['k'],Y,,Y,female,21
0,575,575,292,12,['k'],['d'],Y,,Y,female,21
0,576,576,534,12,['d'],['k'],Y,,Y,female,21
0,577,577,485,12,['d'],['k'],Y,,Y,female,21
0,578,578,433,12,['k'],['k'],N,,Y,female,21
0,579,579,465,12,['d'],['k'],Y,,Y,female,21
0,580,580,2,12,['k'],['d'],Y,,Y,female,21
0,581,581,112,12,['k'],['d'],Y,,Y,female,21
0,582,582,42,12,['k'],['d'],Y,,Y,female,21
0,583,583,274,12,['k'],['d'],Y,,Y,female,21
0,584,584,297,12,['k'],['d'],Y,,Y,female,21
0,585,585,401,12,['d'],['k'],Y,,Y,female,21
0,586,586,56,12,['k'],['d'],Y,,Y,female,21
0,587,587,8,12,['k'],['d'],Y,,Y,female,21
0,588,588,346,12,['k'],['k'],N,,Y,female,21
0,589,589,284,12,['k'],['d'],Y,,Y,female,21
0,590,590,239,12,['k'],['d'],Y,,Y,female,21
0,591,591,490,12,['d'],['k'],Y,,Y,female,21
0,592,592,127,12,['k'],['d'],Y,,Y,female,21
0,593,593,509,12,['d'],['k'],Y,,Y,female,21
0,594,594,250,12,['k'],['d'],Y,,Y,female,21
0,595,595,223,12,['k'],['d'],Y,,Y,female,21
0,596,596,162,12,['k'],['d'],Y,,Y,female,21
0,597,597,235,12,['k'],['d'],Y,,Y,female,21
0,598,598,38,12,['k'],['d'],Y,,Y,female,21
0,599,599,553,12,['d'],['k'],Y,,Y,female,21
,,,,,,,"46 correct, 4 wrong",,,,
