.thisRepN,.thisTrialN,.thisN,.thisIndex,.thisTrial,Block Number,Key pressed,Category,Correct?,Int Match?,Int Response,Int Correct?,Line Accuracy,Interference Accuracy,Matching Interferences,New instruction shown?,Buttons switched?,Fast?,gender,age,
0,0,0,6,6,1,['d'],['d'],Y,,,,,,,,,,m,20,
0,1,1,2,2,1,['d'],['k'],N,,,,,,,,,,m,20,
0,2,2,10,10,1,['k'],['d'],N,Y,['space'],Y,,,,,,,m,20,
0,3,3,13,13,1,['d'],['k'],N,Y,None,N,,,,,,,m,20,
0,4,4,11,11,1,['d'],['k'],N,Y,None,N,,,,,,,m,20,
0,5,5,3,3,1,['k'],['k'],Y,N,None,Y,,,,,,,m,20,
0,6,6,12,12,1,['d'],['k'],N,Y,None,N,,,,,,,m,20,
0,7,7,5,5,1,['k'],['d'],N,Y,None,N,,,,,,,m,20,
0,8,8,5,5,1,['d'],['k'],N,Y,['space'],Y,,,,,,,m,20,
0,9,9,6,6,1,['k'],['k'],Y,Y,None,N,,,,,,,m,20,
0,10,10,8,8,1,['d'],['d'],Y,N,None,Y,,,,,,,m,20,
0,11,11,4,4,1,['k'],['d'],N,N,None,Y,,,,,,,m,20,
0,12,12,0,0,1,['d'],['d'],Y,Y,None,N,,,,,,,m,20,
0,13,13,4,4,1,['d'],['k'],N,Y,['space'],Y,,,,,,,m,20,
0,14,14,7,7,1,['k'],['d'],N,Y,None,N,,,,,,,m,20,
1,0,15,5,5,1,['d'],['k'],N,Y,['space'],Y,,,,,,,m,20,
1,1,16,3,3,1,['k'],['d'],N,N,None,Y,,,,,,,m,20,
1,2,17,11,11,1,['d'],['k'],N,Y,['space'],Y,,,,,,,m,20,
1,3,18,7,7,1,['k'],['d'],N,N,None,Y,,,,,,,m,20,
1,4,19,10,10,1,['d'],['k'],N,Y,['space'],Y,,,,,,,m,20,
1,5,20,12,12,1,['k'],['d'],N,N,None,Y,,,,,,,m,20,
1,6,21,2,2,1,['d'],['d'],Y,N,None,Y,,,,,,,m,20,
1,7,22,12,12,1,['d'],['d'],Y,N,['space'],N,,,,,,,m,20,
1,8,23,2,2,1,['k'],['k'],Y,N,None,Y,,,,,,,m,20,
1,9,24,12,12,1,['d'],['d'],Y,N,None,Y,,,,,,,m,20,
1,10,25,10,10,1,['k'],['d'],N,N,None,Y,,,,,,,m,20,
1,11,26,11,11,1,['k'],['k'],Y,Y,['space'],Y,,,,,,,m,20,
1,12,27,1,1,1,['d'],['k'],N,Y,None,N,,,,,,,m,20,
1,13,28,9,9,1,['d'],['d'],Y,N,None,Y,,,,,,,m,20,
1,14,29,10,10,1,['d'],['d'],Y,Y,['space'],Y,,,,,,,m,20,
2,0,30,0,0,1,['d'],['d'],Y,N,None,Y,,,,,,,m,20,
2,1,31,1,1,1,['k'],['k'],Y,N,None,Y,,,,,,,m,20,
2,2,32,5,5,1,['d'],['d'],Y,Y,None,N,,,,,,,m,20,
2,3,33,0,0,1,['k'],['d'],N,Y,['space'],Y,,,,,,,m,20,
2,4,34,1,1,1,['d'],['d'],Y,N,['space'],N,,,,,,,m,20,
2,5,35,13,13,1,['d'],['d'],Y,Y,['space'],Y,,,,,,,m,20,
2,6,36,14,14,1,['k'],['k'],Y,Y,['space'],Y,,,,,,,m,20,
2,7,37,11,11,1,['d'],['d'],Y,Y,['space'],Y,,,,,,,m,20,
2,8,38,5,5,1,['k'],['d'],N,Y,['space'],Y,,,,,,,m,20,
2,9,39,0,0,1,['d'],['d'],Y,N,None,Y,,,,,,,m,20,
2,10,40,12,12,1,['d'],['d'],Y,N,None,Y,,,,,,,m,20,
2,11,41,9,9,1,['d'],['d'],Y,Y,None,N,,,,,,,m,20,
2,12,42,2,2,1,['k'],['k'],Y,N,['d'],N,,,,,,,m,20,
2,13,43,1,1,1,['k'],['k'],Y,N,['space'],N,,,,,,,m,20,
2,14,44,13,13,1,['d'],['k'],N,Y,['space'],Y,,,,,,,m,20,
3,0,45,11,11,1,['d'],['d'],Y,Y,['space'],Y,,,,,,,m,20,
3,1,46,8,8,1,['k'],['k'],Y,N,None,Y,,,,,,,m,20,
3,2,47,14,14,1,['d'],['k'],N,N,None,Y,,,,,,,m,20,
3,3,48,8,8,1,['k'],['k'],Y,N,None,Y,,,,,,,m,20,
3,4,49,4,4,1,['k'],['k'],Y,N,None,Y,28,34,25,,,,m,20,
3,5,50,4,4,2,['k'],['k'],Y,,,,,,,,,,m,20,
3,6,51,4,4,2,['k'],['k'],Y,,,,,,,,,,m,20,
3,7,52,1,1,2,['d'],['k'],N,Y,['space'],Y,,,,,,,m,20,
3,8,53,11,11,2,['d'],['d'],Y,N,None,Y,,,,,,,m,20,
3,9,54,3,3,2,['k'],['k'],Y,Y,['space'],Y,,,,,,,m,20,
3,10,55,10,10,2,['k'],['k'],Y,Y,['space'],Y,,,,,,,m,20,
3,11,56,7,7,2,['k'],['k'],Y,Y,['space'],Y,,,,,,,m,20,
3,12,57,11,11,2,['d'],['d'],Y,Y,None,N,,,,,,,m,20,
3,13,58,11,11,2,['d'],['d'],Y,Y,['space'],Y,,,,,,,m,20,
3,14,59,3,3,2,['k'],['k'],Y,N,None,Y,,,,,,,m,20,
4,0,60,14,14,2,['k'],['k'],Y,Y,['space'],Y,,,,,,,m,20,
4,1,61,6,6,2,['d'],['d'],Y,Y,['space'],Y,,,,,,,m,20,
4,2,62,5,5,2,['k'],['k'],Y,Y,None,N,,,,,,,m,20,
4,3,63,13,13,2,['k'],['k'],Y,Y,['space'],Y,,,,,,,m,20,
4,4,64,10,10,2,['d'],['d'],Y,N,None,Y,,,,,,,m,20,
4,5,65,4,4,2,['d'],['d'],Y,N,None,Y,,,,,,,m,20,
4,6,66,6,6,2,['d'],['d'],Y,N,['space'],N,,,,,,,m,20,
4,7,67,10,10,2,['d'],['d'],Y,N,['space'],N,,,,,,,m,20,
4,8,68,7,7,2,['d'],['d'],Y,N,None,Y,,,,,,,m,20,
4,9,69,2,2,2,['k'],['k'],Y,Y,['space'],Y,,,,,,,m,20,
4,10,70,0,0,2,['d'],['d'],Y,Y,['space'],Y,,,,,,,m,20,
4,11,71,4,4,2,['d'],['d'],Y,N,None,Y,,,,,,,m,20,
4,12,72,8,8,2,['k'],['k'],Y,N,None,Y,,,,,,,m,20,
4,13,73,9,9,2,['k'],['k'],Y,Y,None,N,,,,,,,m,20,
4,14,74,14,14,2,['d'],['d'],Y,Y,['space'],Y,,,,,,,m,20,
5,0,75,5,5,2,['k'],['k'],Y,N,['space'],N,,,,,,,m,20,
5,1,76,12,12,2,['d'],['d'],Y,N,None,Y,,,,,,,m,20,
5,2,77,6,6,2,['d'],['d'],Y,N,['space'],N,,,,,,,m,20,
5,3,78,7,7,2,['k'],['k'],Y,Y,['space'],Y,,,,,,,m,20,
5,4,79,14,14,2,['d'],['d'],Y,N,None,Y,,,,,,,m,20,
5,5,80,2,2,2,['k'],['k'],Y,Y,['space'],Y,,,,,,,m,20,
5,6,81,13,13,2,['d'],['k'],N,Y,['space'],Y,,,,,,,m,20,
5,7,82,12,12,2,['k'],['k'],Y,N,None,Y,,,,,,,m,20,
5,8,83,7,7,2,['d'],['d'],Y,Y,['space'],Y,,,,,,,m,20,
5,9,84,7,7,2,['d'],['d'],Y,N,['space'],N,,,,,,,m,20,
5,10,85,1,1,2,['k'],['d'],N,N,None,Y,,,,,,,m,20,
5,11,86,0,0,2,['k'],['k'],Y,N,None,Y,,,,,,,m,20,
5,12,87,9,9,2,['d'],['d'],Y,Y,['space'],Y,,,,,,,m,20,
5,13,88,5,5,2,['k'],['k'],Y,Y,['space'],Y,,,,,,,m,20,
5,14,89,1,1,2,['d'],['d'],Y,N,None,Y,,,,,,,m,20,
6,0,90,5,5,2,['k'],['k'],Y,N,None,Y,,,,,,,m,20,
6,1,91,4,4,2,['k'],['k'],Y,Y,['space'],Y,,,,,,,m,20,
6,2,92,4,4,2,['d'],['d'],Y,N,None,Y,,,,,,,m,20,
6,3,93,7,7,2,['d'],['d'],Y,N,None,Y,,,,,,,m,20,
6,4,94,13,13,2,['k'],['k'],Y,N,None,Y,,,,,,,m,20,
6,5,95,14,14,2,['k'],['k'],Y,N,None,Y,,,,,,,m,20,
6,6,96,4,4,2,['k'],['d'],N,Y,None,N,,,,,,,m,20,
6,7,97,2,2,2,['d'],['d'],Y,N,None,Y,,,,,,,m,20,
6,8,98,12,12,2,['d'],['d'],Y,N,None,Y,,,,,,,m,20,
6,9,99,9,9,2,['d'],['d'],Y,Y,['space'],Y,46,39,23,,,,m,20,
6,10,100,4,4,3,['d'],['d'],Y,,,,,,,,,,m,20,
6,11,101,8,8,3,['k'],['k'],Y,,,,,,,,,,m,20,
6,12,102,1,1,3,['d'],['d'],Y,Y,['space'],Y,,,,,,,m,20,
6,13,103,14,14,3,['k'],['k'],Y,N,None,Y,,,,,,,m,20,
6,14,104,0,0,3,['d'],['d'],Y,Y,['space'],Y,,,,,,,m,20,
7,0,105,3,3,3,['d'],['d'],Y,Y,None,N,,,,,,,m,20,
7,1,106,9,9,3,['d'],['d'],Y,Y,None,N,,,,,,,m,20,
7,2,107,10,10,3,['k'],['k'],Y,Y,None,N,,,,,,,m,20,
7,3,108,8,8,3,['k'],['k'],Y,N,None,Y,,,,,,,m,20,
7,4,109,5,5,3,['k'],['k'],Y,Y,['space'],Y,,,,,,,m,20,
7,5,110,9,9,3,['k'],['k'],Y,N,None,Y,,,,,,,m,20,
7,6,111,12,12,3,['k'],['k'],Y,N,None,Y,,,,,,,m,20,
7,7,112,0,0,3,['d'],['k'],N,N,None,Y,,,,,,,m,20,
7,8,113,3,3,3,['d'],['d'],Y,N,None,Y,,,,,,,m,20,
7,9,114,9,9,3,['d'],['d'],Y,Y,['space'],Y,,,,,,,m,20,
7,10,115,6,6,3,['k'],['k'],Y,N,None,Y,,,,,,,m,20,
7,11,116,0,0,3,['d'],['k'],N,Y,None,N,,,,,,,m,20,
7,12,117,1,1,3,['k'],['k'],Y,N,['space'],N,,,,,,,m,20,
7,13,118,7,7,3,['d'],['d'],Y,Y,['space'],Y,,,,,,,m,20,
7,14,119,3,3,3,['d'],['d'],Y,Y,None,N,,,,,,,m,20,
8,0,120,7,7,3,['k'],['k'],Y,Y,['space'],Y,,,,,,,m,20,
8,1,121,3,3,3,['d'],['d'],Y,N,None,Y,,,,,,,m,20,
8,2,122,14,14,3,['k'],['k'],Y,N,None,Y,,,,,,,m,20,
8,3,123,1,1,3,['k'],['k'],Y,Y,['space'],Y,,,,,,,m,20,
8,4,124,1,1,3,['k'],['k'],Y,Y,['space'],Y,,,,,,,m,20,
8,5,125,14,14,3,['k'],['k'],Y,Y,['space'],Y,,,,,,,m,20,
8,6,126,7,7,3,['d'],['d'],Y,N,None,Y,,,,,,,m,20,
8,7,127,6,6,3,['d'],['d'],Y,Y,['space'],Y,,,,,,,m,20,
8,8,128,14,14,3,['k'],['k'],Y,N,None,Y,,,,,,,m,20,
8,9,129,12,12,3,['d'],['d'],Y,Y,['space'],Y,,,,,,,m,20,
8,10,130,3,3,3,['k'],['k'],Y,Y,['space'],Y,,,,,,,m,20,
8,11,131,1,1,3,['k'],['k'],Y,Y,['space'],Y,,,,,,,m,20,
8,12,132,1,1,3,['d'],['d'],Y,N,None,Y,,,,,,,m,20,
8,13,133,11,11,3,['k'],['d'],N,N,None,Y,,,,,,,m,20,
8,14,134,14,14,3,['k'],['k'],Y,Y,['space'],Y,,,,,,,m,20,
9,0,135,7,7,3,['k'],['k'],Y,N,None,Y,,,,,,,m,20,
9,1,136,10,10,3,['k'],['k'],Y,N,['space'],N,,,,,,,m,20,
9,2,137,3,3,3,['k'],['k'],Y,N,None,Y,,,,,,,m,20,
9,3,138,4,4,3,['k'],['k'],Y,N,None,Y,,,,,,,m,20,
9,4,139,3,3,3,['d'],['d'],Y,Y,['space'],Y,,,,,,,m,20,
9,5,140,6,6,3,['d'],['d'],Y,N,None,Y,,,,,,,m,20,
9,6,141,3,3,3,['d'],['d'],Y,N,None,Y,,,,,,,m,20,
9,7,142,5,5,3,['k'],['k'],Y,Y,['space'],Y,,,,,,,m,20,
9,8,143,11,11,3,['d'],['d'],Y,Y,['space'],Y,,,,,,,m,20,
9,9,144,6,6,3,['k'],['k'],Y,N,None,Y,,,,,,,m,20,
9,10,145,8,8,3,['d'],['d'],Y,N,None,Y,,,,,,,m,20,
9,11,146,9,9,3,['k'],['k'],Y,N,None,Y,,,,,,,m,20,
9,12,147,12,12,3,['d'],['d'],Y,Y,['space'],Y,,,,,,,m,20,
9,13,148,4,4,3,['k'],['k'],Y,Y,['space'],Y,,,,,,,m,20,
9,14,149,10,10,3,['k'],['k'],Y,N,None,Y,47,41,24,,,,m,20,
10,0,150,13,13,4,['d'],['d'],Y,,,,,,,,,,m,20,
10,1,151,14,14,4,['k'],['k'],Y,,,,,,,,,,m,20,
10,2,152,11,11,4,['d'],['d'],Y,N,None,Y,,,,,,,m,20,
10,3,153,4,4,4,['d'],['d'],Y,N,None,Y,,,,,,,m,20,
10,4,154,9,9,4,['k'],['k'],Y,Y,None,N,,,,,,,m,20,
10,5,155,0,0,4,['d'],['d'],Y,N,None,Y,,,,,,,m,20,
10,6,156,10,10,4,['d'],['d'],Y,Y,['space'],Y,,,,,,,m,20,
10,7,157,7,7,4,['k'],['k'],Y,Y,['space'],Y,,,,,,,m,20,
10,8,158,7,7,4,['k'],['k'],Y,N,None,Y,,,,,,,m,20,
10,9,159,10,10,4,['d'],['d'],Y,N,None,Y,,,,,,,m,20,
10,10,160,10,10,4,['k'],['k'],Y,N,None,Y,,,,,,,m,20,
10,11,161,7,7,4,['d'],['d'],Y,N,None,Y,,,,,,,m,20,
10,12,162,9,9,4,['k'],['k'],Y,Y,['space'],Y,,,,,,,m,20,
10,13,163,4,4,4,['k'],['k'],Y,N,None,Y,,,,,,,m,20,
10,14,164,0,0,4,['k'],['k'],Y,Y,['space'],Y,,,,,,,m,20,
11,0,165,9,9,4,['k'],['k'],Y,Y,['space'],Y,,,,,,,m,20,
11,1,166,4,4,4,['d'],['d'],Y,Y,None,N,,,,,,,m,20,
11,2,167,8,8,4,['d'],['d'],Y,Y,['space'],Y,,,,,,,m,20,
11,3,168,8,8,4,['k'],['k'],Y,N,None,Y,,,,,,,m,20,
11,4,169,8,8,4,['k'],['k'],Y,N,None,Y,,,,,,,m,20,
11,5,170,9,9,4,['d'],['d'],Y,N,None,Y,,,,,,,m,20,
11,6,171,4,4,4,['d'],['d'],Y,N,None,Y,,,,,,,m,20,
11,7,172,2,2,4,['d'],['d'],Y,N,None,Y,,,,,,,m,20,
11,8,173,14,14,4,['k'],['k'],Y,Y,['space'],Y,,,,,,,m,20,
11,9,174,11,11,4,['d'],['d'],Y,N,None,Y,,,,,,,m,20,
11,10,175,8,8,4,['d'],['d'],Y,N,None,Y,,,,,,,m,20,
11,11,176,12,12,4,['d'],['d'],Y,Y,['space'],Y,,,,,,,m,20,
11,12,177,1,1,4,['d'],['d'],Y,Y,['space'],Y,,,,,,,m,20,
11,13,178,9,9,4,['d'],['d'],Y,Y,['space'],Y,,,,,,,m,20,
11,14,179,5,5,4,['k'],['k'],Y,Y,['space'],Y,,,,,,,m,20,
12,0,180,8,8,4,['k'],['k'],Y,N,None,Y,,,,,,,m,20,
12,1,181,14,14,4,['d'],['d'],Y,N,None,Y,,,,,,,m,20,
12,2,182,1,1,4,['k'],['k'],Y,Y,['space'],Y,,,,,,,m,20,
12,3,183,10,10,4,['d'],['d'],Y,Y,['space'],Y,,,,,,,m,20,
12,4,184,7,7,4,['k'],['k'],Y,Y,['space'],Y,,,,,,,m,20,
12,5,185,13,13,4,['d'],['d'],Y,Y,['d'],N,,,,,,,m,20,
12,6,186,2,2,4,['d'],['d'],Y,Y,['space'],Y,,,,,,,m,20,
12,7,187,10,10,4,['k'],['k'],Y,N,None,Y,,,,,,,m,20,
12,8,188,5,5,4,['k'],['k'],Y,N,None,Y,,,,,,,m,20,
12,9,189,4,4,4,['d'],['d'],Y,Y,['space'],Y,,,,,,,m,20,
12,10,190,8,8,4,['k'],['k'],Y,Y,None,N,,,,,,,m,20,
12,11,191,4,4,4,['k'],['k'],Y,N,None,Y,,,,,,,m,20,
12,12,192,14,14,4,['k'],['k'],Y,Y,['space'],Y,,,,,,,m,20,
12,13,193,6,6,4,['d'],['d'],Y,Y,['space'],Y,,,,,,,m,20,
12,14,194,0,0,4,['d'],['d'],Y,Y,['space'],Y,,,,,,,m,20,
13,0,195,7,7,4,['k'],['k'],Y,N,None,Y,,,,,,,m,20,
13,1,196,12,12,4,['k'],['k'],Y,N,None,Y,,,,,,,m,20,
13,2,197,0,0,4,['d'],['d'],Y,Y,None,N,,,,,,,m,20,
13,3,198,11,11,4,['d'],['d'],Y,Y,['space'],Y,,,,,,,m,20,
13,4,199,12,12,4,['k'],['k'],Y,N,None,Y,50,43,25,,,,m,20,
13,5,200,14,14,5,['d'],['d'],Y,,,,,,,,,,m,20,
13,6,201,1,1,5,['k'],['k'],Y,,,,,,,,,,m,20,
13,7,202,13,13,5,['d'],['d'],Y,Y,['space'],Y,,,,,,,m,20,
13,8,203,14,14,5,['d'],['d'],Y,N,None,Y,,,,,,,m,20,
13,9,204,7,7,5,['d'],['d'],Y,N,None,Y,,,,,,,m,20,
13,10,205,3,3,5,['d'],['d'],Y,N,None,Y,,,,,,,m,20,
13,11,206,12,12,5,['d'],['d'],Y,N,None,Y,,,,,,,m,20,
13,12,207,12,12,5,['k'],['k'],Y,Y,None,N,,,,,,,m,20,
13,13,208,14,14,5,['d'],['d'],Y,N,None,Y,,,,,,,m,20,
13,14,209,9,9,5,['d'],['d'],Y,N,None,Y,,,,,,,m,20,
14,0,210,11,11,5,['k'],['k'],Y,N,None,Y,,,,,,,m,20,
14,1,211,10,10,5,['d'],['d'],Y,N,None,Y,,,,,,,m,20,
14,2,212,0,0,5,['k'],['k'],Y,N,None,Y,,,,,,,m,20,
14,3,213,5,5,5,['k'],['k'],Y,N,None,Y,,,,,,,m,20,
14,4,214,14,14,5,['d'],['d'],Y,N,None,Y,,,,,,,m,20,
14,5,215,2,2,5,['k'],['d'],N,N,None,Y,,,,,,,m,20,
14,6,216,11,11,5,['k'],['k'],Y,Y,['space'],Y,,,,,,,m,20,
14,7,217,5,5,5,['d'],['d'],Y,N,None,Y,,,,,,,m,20,
14,8,218,11,11,5,['d'],['d'],Y,Y,None,N,,,,,,,m,20,
14,9,219,6,6,5,['d'],['d'],Y,N,None,Y,,,,,,,m,20,
14,10,220,13,13,5,['k'],['k'],Y,Y,['space'],Y,,,,,,,m,20,
14,11,221,4,4,5,['d'],['d'],Y,N,None,Y,,,,,,,m,20,
14,12,222,14,14,5,['d'],['d'],Y,N,None,Y,,,,,,,m,20,
14,13,223,8,8,5,['k'],['k'],Y,Y,['space'],Y,,,,,,,m,20,
14,14,224,11,11,5,['k'],['k'],Y,Y,['space'],Y,,,,,,,m,20,
15,0,225,11,11,5,['d'],['d'],Y,N,None,Y,,,,,,,m,20,
15,1,226,12,12,5,['d'],['d'],Y,N,None,Y,,,,,,,m,20,
15,2,227,2,2,5,['k'],['k'],Y,N,None,Y,,,,,,,m,20,
15,3,228,14,14,5,['d'],['d'],Y,N,None,Y,,,,,,,m,20,
15,4,229,9,9,5,['k'],['k'],Y,Y,None,N,,,,,,,m,20,
15,5,230,0,0,5,['d'],['d'],Y,Y,None,N,,,,,,,m,20,
15,6,231,11,11,5,['d'],['d'],Y,N,None,Y,,,,,,,m,20,
15,7,232,10,10,5,['k'],['k'],Y,N,None,Y,,,,,,,m,20,
15,8,233,12,12,5,['d'],['k'],N,Y,['space'],Y,,,,,,,m,20,
15,9,234,10,10,5,['k'],['k'],Y,Y,['space'],Y,,,,,,,m,20,
15,10,235,11,11,5,['d'],['d'],Y,N,None,Y,,,,,,,m,20,
15,11,236,10,10,5,['d'],['d'],Y,Y,['space'],Y,,,,,,,m,20,
15,12,237,6,6,5,['k'],['k'],Y,Y,['space'],Y,,,,,,,m,20,
15,13,238,9,9,5,['d'],['d'],Y,Y,['space'],Y,,,,,,,m,20,
15,14,239,2,2,5,['d'],['d'],Y,Y,['space'],Y,,,,,,,m,20,
16,0,240,11,11,5,['d'],['d'],Y,Y,['space'],Y,,,,,,,m,20,
16,1,241,10,10,5,['k'],['k'],Y,Y,['space'],Y,,,,,,,m,20,
16,2,242,5,5,5,['k'],['d'],N,N,None,Y,,,,,,,m,20,
16,3,243,12,12,5,['d'],['d'],Y,Y,['space'],Y,,,,,,,m,20,
16,4,244,13,13,5,['k'],['k'],Y,N,None,Y,,,,,,,m,20,
16,5,245,0,0,5,['k'],['k'],Y,Y,['space'],Y,,,,,,,m,20,
16,6,246,0,0,5,['k'],['k'],Y,N,None,Y,,,,,,,m,20,
16,7,247,2,2,5,['d'],['d'],Y,Y,['space'],Y,,,,,,,m,20,
16,8,248,3,3,5,['k'],['k'],Y,N,None,Y,,,,,,,m,20,
16,9,249,7,7,5,['k'],['k'],Y,Y,None,N,47,43,21,,,,m,20,
16,10,250,8,8,6,['k'],['k'],Y,,,,,,,,,,m,20,
16,11,251,3,3,6,['d'],['k'],N,,,,,,,,,,m,20,
16,12,252,7,7,6,['k'],['k'],Y,N,None,Y,,,,,,,m,20,
16,13,253,12,12,6,['d'],['d'],Y,Y,['space'],Y,,,,,,,m,20,
16,14,254,11,11,6,['k'],['k'],Y,Y,['space'],Y,,,,,,,m,20,
17,0,255,6,6,6,['d'],['d'],Y,Y,['space'],Y,,,,,,,m,20,
17,1,256,2,2,6,['k'],['k'],Y,Y,['space'],Y,,,,,,,m,20,
17,2,257,0,0,6,['k'],['k'],Y,N,None,Y,,,,,,,m,20,
17,3,258,6,6,6,['k'],['k'],Y,Y,['space'],Y,,,,,,,m,20,
17,4,259,3,3,6,['d'],['d'],Y,N,None,Y,,,,,,,m,20,
17,5,260,2,2,6,['k'],['k'],Y,Y,['space'],Y,,,,,,,m,20,
17,6,261,13,13,6,['d'],['d'],Y,N,None,Y,,,,,,,m,20,
17,7,262,12,12,6,['k'],['k'],Y,N,None,Y,,,,,,,m,20,
17,8,263,7,7,6,['k'],['k'],Y,Y,['space'],Y,,,,,,,m,20,
17,9,264,8,8,6,['d'],['d'],Y,Y,['space'],Y,,,,,,,m,20,
17,10,265,0,0,6,['d'],['d'],Y,Y,['space'],Y,,,,,,,m,20,
17,11,266,10,10,6,['k'],['k'],Y,N,None,Y,,,,,,,m,20,
17,12,267,10,10,6,['d'],['d'],Y,N,None,Y,,,,,,,m,20,
17,13,268,5,5,6,['d'],['d'],Y,N,None,Y,,,,,,,m,20,
17,14,269,8,8,6,['k'],['k'],Y,Y,['space'],Y,,,,,,,m,20,
18,0,270,11,11,6,['d'],['d'],Y,Y,['space'],Y,,,,,,,m,20,
18,1,271,8,8,6,['k'],['k'],Y,Y,['space'],Y,,,,,,,m,20,
18,2,272,6,6,6,['d'],['d'],Y,N,None,Y,,,,,,,m,20,
18,3,273,8,8,6,['d'],['d'],Y,N,None,Y,,,,,,,m,20,
18,4,274,13,13,6,['d'],['d'],Y,N,None,Y,,,,,,,m,20,
18,5,275,6,6,6,['k'],['k'],Y,Y,None,N,,,,,,,m,20,
18,6,276,3,3,6,['d'],['d'],Y,N,None,Y,,,,,,,m,20,
18,7,277,3,3,6,['k'],['k'],Y,Y,['space'],Y,,,,,,,m,20,
18,8,278,9,9,6,['k'],['k'],Y,N,None,Y,,,,,,,m,20,
18,9,279,4,4,6,['d'],['k'],N,N,None,Y,,,,,,,m,20,
18,10,280,2,2,6,['d'],['d'],Y,Y,None,N,,,,,,,m,20,
18,11,281,0,0,6,['k'],['k'],Y,N,None,Y,,,,,,,m,20,
18,12,282,13,13,6,['d'],['d'],Y,Y,['space'],Y,,,,,,,m,20,
18,13,283,5,5,6,['k'],['k'],Y,N,None,Y,,,,,,,m,20,
18,14,284,13,13,6,['d'],['d'],Y,N,None,Y,,,,,,,m,20,
19,0,285,0,0,6,['d'],['d'],Y,N,['space'],N,,,,,,,m,20,
19,1,286,13,13,6,['d'],['d'],Y,Y,None,N,,,,,,,m,20,
19,2,287,14,14,6,['k'],['k'],Y,N,None,Y,,,,,,,m,20,
19,3,288,7,7,6,['k'],['k'],Y,Y,['space'],Y,,,,,,,m,20,
19,4,289,10,10,6,['k'],['k'],Y,N,None,Y,,,,,,,m,20,
19,5,290,6,6,6,['d'],['k'],N,N,None,Y,,,,,,,m,20,
19,6,291,12,12,6,['d'],['k'],N,N,None,Y,,,,,,,m,20,
19,7,292,4,4,6,['d'],['d'],Y,N,None,Y,,,,,,,m,20,
19,8,293,6,6,6,['k'],['k'],Y,N,['space'],N,,,,,,,m,20,
19,9,294,5,5,6,['d'],['d'],Y,Y,None,N,,,,,,,m,20,
19,10,295,9,9,6,['k'],['k'],Y,N,None,Y,,,,,,,m,20,
19,11,296,2,2,6,['k'],['k'],Y,N,None,Y,,,,,,,m,20,
19,12,297,11,11,6,['d'],['d'],Y,Y,['space'],Y,,,,,,,m,20,
19,13,298,6,6,6,['k'],['k'],Y,N,None,Y,,,,,,,m,20,
19,14,299,5,5,6,['k'],['k'],Y,N,None,Y,46,42,20,,,,m,20,
20,0,300,2,2,7,['d'],['d'],Y,,,,,,,,,,m,20,
20,1,301,0,0,7,['d'],['d'],Y,,,,,,,,,,m,20,
20,2,302,12,12,7,['k'],['k'],Y,N,None,Y,,,,,,,m,20,
20,3,303,4,4,7,['k'],['k'],Y,Y,['space'],Y,,,,,,,m,20,
20,4,304,8,8,7,['d'],['d'],Y,Y,['space'],Y,,,,,,,m,20,
20,5,305,1,1,7,['k'],['k'],Y,N,None,Y,,,,,,,m,20,
20,6,306,11,11,7,['k'],['k'],Y,Y,None,N,,,,,,,m,20,
20,7,307,10,10,7,['d'],['d'],Y,N,None,Y,,,,,,,m,20,
20,8,308,0,0,7,['d'],['d'],Y,Y,['space'],Y,,,,,,,m,20,
20,9,309,6,6,7,['d'],['d'],Y,Y,['space'],Y,,,,,,,m,20,
20,10,310,13,13,7,['k'],['k'],Y,N,None,Y,,,,,,,m,20,
20,11,311,0,0,7,['k'],['k'],Y,Y,None,N,,,,,,,m,20,
20,12,312,5,5,7,['d'],['d'],Y,N,['space'],N,,,,,,,m,20,
20,13,313,12,12,7,['k'],['k'],Y,N,None,Y,,,,,,,m,20,
20,14,314,9,9,7,['d'],['d'],Y,N,None,Y,,,,,,,m,20,
21,0,315,14,14,7,['d'],['d'],Y,N,['space'],N,,,,,,,m,20,
21,1,316,5,5,7,['k'],['k'],Y,N,None,Y,,,,,,,m,20,
21,2,317,2,2,7,['k'],['k'],Y,Y,None,N,,,,,,,m,20,
21,3,318,13,13,7,['d'],['d'],Y,Y,None,N,,,,,,,m,20,
21,4,319,0,0,7,['d'],['d'],Y,N,None,Y,,,,,,,m,20,
21,5,320,11,11,7,['d'],['d'],Y,N,None,Y,,,,,,,m,20,
21,6,321,12,12,7,['k'],['k'],Y,N,None,Y,,,,,,,m,20,
21,7,322,5,5,7,['d'],['k'],N,Y,['space'],Y,,,,,,,m,20,
21,8,323,6,6,7,['k'],['k'],Y,N,None,Y,,,,,,,m,20,
21,9,324,6,6,7,['k'],['k'],Y,N,None,Y,,,,,,,m,20,
21,10,325,12,12,7,['d'],['d'],Y,Y,['space'],Y,,,,,,,m,20,
21,11,326,14,14,7,['k'],['k'],Y,N,None,Y,,,,,,,m,20,
21,12,327,2,2,7,['k'],['k'],Y,N,None,Y,,,,,,,m,20,
21,13,328,11,11,7,['d'],['d'],Y,Y,['space'],Y,,,,,,,m,20,
21,14,329,0,0,7,['k'],['d'],N,N,None,Y,,,,,,,m,20,
22,0,330,3,3,7,['d'],['d'],Y,Y,['space'],Y,,,,,,,m,20,
22,1,331,8,8,7,['k'],['k'],Y,N,None,Y,,,,,,,m,20,
22,2,332,8,8,7,['d'],['d'],Y,N,['space'],N,,,,,,,m,20,
22,3,333,9,9,7,['d'],['d'],Y,Y,['space'],Y,,,,,,,m,20,
22,4,334,1,1,7,['k'],['k'],Y,N,None,Y,,,,,,,m,20,
22,5,335,1,1,7,['k'],['k'],Y,N,None,Y,,,,,,,m,20,
22,6,336,7,7,7,['d'],['d'],Y,Y,['space'],Y,,,,,,,m,20,
22,7,337,13,13,7,['k'],['k'],Y,N,None,Y,,,,,,,m,20,
22,8,338,13,13,7,['k'],['k'],Y,N,None,Y,,,,,,,m,20,
22,9,339,2,2,7,['k'],['k'],Y,N,None,Y,,,,,,,m,20,
22,10,340,1,1,7,['d'],['d'],Y,Y,None,N,,,,,,,m,20,
22,11,341,13,13,7,['k'],['k'],Y,Y,['space'],Y,,,,,,,m,20,
22,12,342,12,12,7,['d'],['d'],Y,N,None,Y,,,,,,,m,20,
22,13,343,10,10,7,['k'],['k'],Y,N,['space'],N,,,,,,,m,20,
22,14,344,10,10,7,['d'],['k'],N,Y,['k'],N,,,,,,,m,20,
23,0,345,7,7,7,['d'],['d'],Y,N,None,Y,,,,,,,m,20,
23,1,346,1,1,7,['k'],['k'],Y,Y,['space'],Y,,,,,,,m,20,
23,2,347,6,6,7,['k'],['k'],Y,Y,['space'],Y,,,,,,,m,20,
23,3,348,3,3,7,['d'],['k'],N,Y,['space'],Y,,,,,,,m,20,
23,4,349,2,2,7,['d'],['d'],Y,N,None,Y,46,38,20,,,,m,20,
23,5,350,6,6,8,['d'],['d'],Y,,,,,,,,,,m,20,
23,6,351,7,7,8,['k'],['k'],Y,,,,,,,,,,m,20,
23,7,352,4,4,8,['d'],['d'],Y,N,None,Y,,,,,,,m,20,
23,8,353,7,7,8,['k'],['k'],Y,N,None,Y,,,,,,,m,20,
23,9,354,13,13,8,['d'],['d'],Y,Y,['space'],Y,,,,,,,m,20,
23,10,355,8,8,8,['d'],['d'],Y,Y,['space'],Y,,,,,,,m,20,
23,11,356,2,2,8,['k'],['k'],Y,N,None,Y,,,,,,,m,20,
23,12,357,8,8,8,['k'],['k'],Y,N,None,Y,,,,,,,m,20,
23,13,358,0,0,8,['k'],['d'],N,N,None,Y,,,,,,,m,20,
23,14,359,3,3,8,['k'],['k'],Y,N,None,Y,,,,,,,m,20,
24,0,360,1,1,8,['k'],['k'],Y,Y,['space'],Y,,,,,,,m,20,
24,1,361,8,8,8,['d'],['d'],Y,N,None,Y,,,,,,,m,20,
24,2,362,8,8,8,['k'],['k'],Y,Y,['space'],Y,,,,,,,m,20,
24,3,363,7,7,8,['k'],['k'],Y,Y,['space'],Y,,,,,,,m,20,
24,4,364,7,7,8,['d'],['d'],Y,N,None,Y,,,,,,,m,20,
24,5,365,8,8,8,['d'],['k'],N,N,None,Y,,,,,,,m,20,
24,6,366,1,1,8,['k'],['k'],Y,N,None,Y,,,,,,,m,20,
24,7,367,8,8,8,['k'],['k'],Y,Y,['space'],Y,,,,,,,m,20,
24,8,368,5,5,8,['d'],['d'],Y,N,None,Y,,,,,,,m,20,
24,9,369,11,11,8,['d'],['d'],Y,N,None,Y,,,,,,,m,20,
24,10,370,4,4,8,['d'],['d'],Y,Y,['space'],Y,,,,,,,m,20,
24,11,371,14,14,8,['k'],['k'],Y,N,None,Y,,,,,,,m,20,
24,12,372,7,7,8,['d'],['d'],Y,N,None,Y,,,,,,,m,20,
24,13,373,13,13,8,['k'],['k'],Y,Y,['space'],Y,,,,,,,m,20,
24,14,374,12,12,8,['k'],['d'],N,Y,['space'],Y,,,,,,,m,20,
25,0,375,7,7,8,['d'],['d'],Y,Y,['space'],Y,,,,,,,m,20,
25,1,376,6,6,8,['d'],['d'],Y,N,None,Y,,,,,,,m,20,
25,2,377,4,4,8,['d'],['d'],Y,N,None,Y,,,,,,,m,20,
25,3,378,9,9,8,['k'],['k'],Y,N,None,Y,,,,,,,m,20,
25,4,379,2,2,8,['d'],['d'],Y,N,None,Y,,,,,,,m,20,
25,5,380,4,4,8,['k'],['k'],Y,N,None,Y,,,,,,,m,20,
25,6,381,10,10,8,['d'],['d'],Y,Y,['space'],Y,,,,,,,m,20,
25,7,382,3,3,8,['k'],['k'],Y,Y,None,N,,,,,,,m,20,
25,8,383,3,3,8,['d'],['d'],Y,N,None,Y,,,,,,,m,20,
25,9,384,8,8,8,['k'],['k'],Y,Y,['space'],Y,,,,,,,m,20,
25,10,385,10,10,8,['d'],['d'],Y,N,None,Y,,,,,,,m,20,
25,11,386,3,3,8,['k'],['k'],Y,N,['space'],N,,,,,,,m,20,
25,12,387,13,13,8,['k'],['k'],Y,N,None,Y,,,,,,,m,20,
25,13,388,12,12,8,['k'],['k'],Y,N,None,Y,,,,,,,m,20,
25,14,389,14,14,8,['d'],['d'],Y,N,None,Y,,,,,,,m,20,
26,0,390,3,3,8,['k'],['k'],Y,N,None,Y,,,,,,,m,20,
26,1,391,5,5,8,['d'],['d'],Y,N,None,Y,,,,,,,m,20,
26,2,392,2,2,8,['k'],['k'],Y,N,None,Y,,,,,,,m,20,
26,3,393,10,10,8,['d'],['d'],Y,N,None,Y,,,,,,,m,20,
26,4,394,14,14,8,['d'],['d'],Y,N,None,Y,,,,,,,m,20,
26,5,395,0,0,8,['d'],['k'],N,Y,['space'],Y,,,,,,,m,20,
26,6,396,9,9,8,['d'],['d'],Y,Y,None,N,,,,,,,m,20,
26,7,397,10,10,8,['d'],['d'],Y,Y,['space'],Y,,,,,,,m,20,
26,8,398,1,1,8,['k'],['d'],N,N,None,Y,,,,,,,m,20,
26,9,399,13,13,8,['d'],['d'],Y,Y,['space'],Y,45,45,17,,,,m,20,
26,10,400,3,3,9,['k'],['k'],Y,,,,,,,,,,m,20,
26,11,401,1,1,9,['d'],['d'],Y,,,,,,,,,,m,20,
26,12,402,1,1,9,['k'],['k'],Y,Y,['space'],Y,,,,,,,m,20,
26,13,403,10,10,9,['d'],['d'],Y,N,None,Y,,,,,,,m,20,
26,14,404,1,1,9,['d'],['d'],Y,Y,['space'],Y,,,,,,,m,20,
27,0,405,14,14,9,['k'],['k'],Y,Y,['space'],Y,,,,,,,m,20,
27,1,406,4,4,9,['d'],['d'],Y,N,None,Y,,,,,,,m,20,
27,2,407,2,2,9,['k'],['k'],Y,N,None,Y,,,,,,,m,20,
27,3,408,9,9,9,['k'],['k'],Y,N,None,Y,,,,,,,m,20,
27,4,409,5,5,9,['k'],['k'],Y,Y,['space'],Y,,,,,,,m,20,
27,5,410,3,3,9,['k'],['k'],Y,Y,['space'],Y,,,,,,,m,20,
27,6,411,4,4,9,['d'],['d'],Y,Y,['space'],Y,,,,,,,m,20,
27,7,412,9,9,9,['k'],['k'],Y,Y,['space'],Y,,,,,,,m,20,
27,8,413,5,5,9,['k'],['k'],Y,Y,['space'],Y,,,,,,,m,20,
27,9,414,8,8,9,['d'],['d'],Y,Y,['space'],Y,,,,,,,m,20,
27,10,415,11,11,9,['d'],['d'],Y,Y,['space'],Y,,,,,,,m,20,
27,11,416,11,11,9,['d'],['d'],Y,N,None,Y,,,,,,,m,20,
27,12,417,10,10,9,['d'],['d'],Y,N,None,Y,,,,,,,m,20,
27,13,418,12,12,9,['d'],['d'],Y,N,None,Y,,,,,,,m,20,
27,14,419,9,9,9,['k'],['k'],Y,Y,['space'],Y,,,,,,,m,20,
28,0,420,5,5,9,['d'],['d'],Y,N,None,Y,,,,,,,m,20,
28,1,421,12,12,9,['k'],['k'],Y,Y,None,N,,,,,,,m,20,
28,2,422,8,8,9,['d'],['d'],Y,Y,['space'],Y,,,,,,,m,20,
28,3,423,10,10,9,['d'],['d'],Y,Y,['space'],Y,,,,,,,m,20,
28,4,424,0,0,9,['k'],['k'],Y,N,None,Y,,,,,,,m,20,
28,5,425,0,0,9,['k'],['k'],Y,Y,['space'],Y,,,,,,,m,20,
28,6,426,5,5,9,['k'],['k'],Y,Y,['space'],Y,,,,,,,m,20,
28,7,427,1,1,9,['d'],['d'],Y,N,None,Y,,,,,,,m,20,
28,8,428,11,11,9,['k'],['k'],Y,Y,['space'],Y,,,,,,,m,20,
28,9,429,9,9,9,['d'],['k'],N,Y,None,N,,,,,,,m,20,
28,10,430,12,12,9,['k'],['k'],Y,Y,['space'],Y,,,,,,,m,20,
28,11,431,6,6,9,['d'],['d'],Y,Y,['space'],Y,,,,,,,m,20,
28,12,432,1,1,9,['d'],['d'],Y,N,['space'],N,,,,,,,m,20,
28,13,433,8,8,9,['k'],['d'],N,N,None,Y,,,,,,,m,20,
28,14,434,9,9,9,['k'],['k'],Y,N,None,Y,,,,,,,m,20,
29,0,435,3,3,9,['k'],['k'],Y,Y,['space'],Y,,,,,,,m,20,
29,1,436,1,1,9,['d'],['d'],Y,Y,None,N,,,,,,,m,20,
29,2,437,6,6,9,['d'],['d'],Y,Y,['space'],Y,,,,,,,m,20,
29,3,438,3,3,9,['k'],['k'],Y,Y,['space'],Y,,,,,,,m,20,
29,4,439,8,8,9,['d'],['d'],Y,N,None,Y,,,,,,,m,20,
29,5,440,9,9,9,['d'],['d'],Y,N,None,Y,,,,,,,m,20,
29,6,441,11,11,9,['d'],['d'],Y,N,None,Y,,,,,,,m,20,
29,7,442,8,8,9,['d'],['d'],Y,Y,['space'],Y,,,,,,,m,20,
29,8,443,4,4,9,['k'],['k'],Y,N,None,Y,,,,,,,m,20,
29,9,444,10,10,9,['d'],['d'],Y,N,None,Y,,,,,,,m,20,
29,10,445,6,6,9,['k'],['k'],Y,N,None,Y,,,,,,,m,20,
29,11,446,9,9,9,['k'],['k'],Y,N,None,Y,,,,,,,m,20,
29,12,447,2,2,9,['d'],['d'],Y,N,None,Y,,,,,,,m,20,
29,13,448,10,10,9,['k'],['k'],Y,N,None,Y,,,,,,,m,20,
29,14,449,2,2,9,['d'],['d'],Y,N,None,Y,48,44,25,,,,m,20,
30,0,450,13,13,10,['k'],['k'],Y,,,,,,,,,,m,20,
30,1,451,14,14,10,['d'],['d'],Y,,,,,,,,,,m,20,
30,2,452,7,7,10,['d'],['d'],Y,N,None,Y,,,,,,,m,20,
30,3,453,14,14,10,['k'],['k'],Y,N,None,Y,,,,,,,m,20,
30,4,454,7,7,10,['d'],['d'],Y,Y,['space'],Y,,,,,,,m,20,
30,5,455,11,11,10,['k'],['k'],Y,Y,['space'],Y,,,,,,,m,20,
30,6,456,13,13,10,['d'],['d'],Y,Y,['space'],Y,,,,,,,m,20,
30,7,457,13,13,10,['k'],['k'],Y,N,None,Y,,,,,,,m,20,
30,8,458,9,9,10,['d'],['d'],Y,N,None,Y,,,,,,,m,20,
30,9,459,1,1,10,['d'],['d'],Y,Y,['space'],Y,,,,,,,m,20,
30,10,460,2,2,10,['k'],['k'],Y,Y,['space'],Y,,,,,,,m,20,
30,11,461,9,9,10,['d'],['d'],Y,Y,None,N,,,,,,,m,20,
30,12,462,2,2,10,['d'],['d'],Y,Y,['space'],Y,,,,,,,m,20,
30,13,463,6,6,10,['k'],['k'],Y,N,None,Y,,,,,,,m,20,
30,14,464,5,5,10,['d'],['d'],Y,N,None,Y,,,,,,,m,20,
31,0,465,4,4,10,['k'],['k'],Y,Y,['space'],Y,,,,,,,m,20,
31,1,466,3,3,10,['k'],['k'],Y,Y,None,N,,,,,,,m,20,
31,2,467,12,12,10,['d'],['d'],Y,N,None,Y,,,,,,,m,20,
31,3,468,4,4,10,['k'],['k'],Y,N,None,Y,,,,,,,m,20,
31,4,469,10,10,10,['k'],['k'],Y,Y,['space'],Y,,,,,,,m,20,
31,5,470,13,13,10,['d'],['d'],Y,Y,['space'],Y,,,,,,,m,20,
31,6,471,6,6,10,['d'],['d'],Y,N,None,Y,,,,,,,m,20,
31,7,472,5,5,10,['d'],['d'],Y,Y,None,N,,,,,,,m,20,
31,8,473,8,8,10,['d'],['d'],Y,Y,['space'],Y,,,,,,,m,20,
31,9,474,9,9,10,['d'],['d'],Y,Y,None,N,,,,,,,m,20,
31,10,475,6,6,10,['d'],['k'],N,N,None,Y,,,,,,,m,20,
31,11,476,0,0,10,['d'],['d'],Y,Y,['space'],Y,,,,,,,m,20,
31,12,477,8,8,10,['k'],['d'],N,N,None,Y,,,,,,,m,20,
31,13,478,0,0,10,['d'],['d'],Y,Y,None,N,,,,,,,m,20,
31,14,479,10,10,10,['d'],['d'],Y,N,None,Y,,,,,,,m,20,
32,0,480,3,3,10,['k'],['k'],Y,Y,['space'],Y,,,,,,,m,20,
32,1,481,0,0,10,['k'],['k'],Y,N,None,Y,,,,,,,m,20,
32,2,482,11,11,10,['k'],['k'],Y,Y,['space'],Y,,,,,,,m,20,
32,3,483,13,13,10,['d'],['d'],Y,Y,['space'],Y,,,,,,,m,20,
32,4,484,8,8,10,['d'],['d'],Y,Y,['space'],Y,,,,,,,m,20,
32,5,485,3,3,10,['k'],['k'],Y,Y,None,N,,,,,,,m,20,
32,6,486,1,1,10,['d'],['d'],Y,Y,['space'],Y,,,,,,,m,20,
32,7,487,13,13,10,['k'],['k'],Y,N,None,Y,,,,,,,m,20,
32,8,488,7,7,10,['d'],['d'],Y,Y,['space'],Y,,,,,,,m,20,
32,9,489,5,5,10,['k'],['k'],Y,Y,None,N,,,,,,,m,20,
32,10,490,8,8,10,['k'],['k'],Y,N,None,Y,,,,,,,m,20,
32,11,491,1,1,10,['k'],['k'],Y,Y,['space'],Y,,,,,,,m,20,
32,12,492,2,2,10,['k'],['k'],Y,N,None,Y,,,,,,,m,20,
32,13,493,0,0,10,['k'],['k'],Y,N,None,Y,,,,,,,m,20,
32,14,494,6,6,10,['d'],['d'],Y,N,None,Y,,,,,,,m,20,
33,0,495,14,14,10,['d'],['d'],Y,N,None,Y,,,,,,,m,20,
33,1,496,14,14,10,['k'],['k'],Y,N,None,Y,,,,,,,m,20,
33,2,497,10,10,10,['d'],['k'],N,N,None,Y,,,,,,,m,20,
33,3,498,13,13,10,['k'],['k'],Y,N,None,Y,,,,,,,m,20,
33,4,499,13,13,10,['k'],['k'],Y,N,None,Y,47,41,25,,,,m,20,
33,5,500,7,7,11,['k'],['k'],N,,,,,,,Y,Y,Y,m,20,
33,6,501,2,2,11,['k'],['d'],Y,,,,,,,,Y,Y,m,20,
33,7,502,1,1,11,['k'],['d'],Y,Y,['space'],Y,,,,,Y,Y,m,20,
33,8,503,5,5,11,['d'],['k'],Y,N,None,Y,,,,,Y,Y,m,20,
33,9,504,9,9,11,['d'],['k'],Y,N,None,Y,,,,,Y,Y,m,20,
33,10,505,0,0,11,['d'],['k'],Y,Y,['space'],Y,,,,,Y,Y,m,20,
33,11,506,4,4,11,['k'],['d'],Y,N,None,Y,,,,,Y,Y,m,20,
33,12,507,4,4,11,['d'],['k'],Y,Y,None,N,,,,,Y,Y,m,20,
33,13,508,11,11,11,['k'],['d'],Y,N,None,Y,,,,,Y,Y,m,20,
33,14,509,14,14,11,['d'],['k'],Y,Y,None,N,,,,,Y,Y,m,20,
34,0,510,5,5,11,['k'],['k'],N,N,None,Y,,,,,Y,Y,m,20,
34,1,511,3,3,11,['d'],['k'],Y,Y,['space'],Y,,,,,Y,Y,m,20,
34,2,512,11,11,11,['d'],['k'],Y,N,None,Y,,,,,Y,Y,m,20,
34,3,513,5,5,11,None,,Timed out,Y,['space'],Y,,,,,Y,Y,m,20,
34,4,514,1,1,11,['k'],['d'],Y,Y,['space'],Y,,,,,Y,Y,m,20,
34,5,515,5,5,11,['d'],['k'],Y,Y,['space'],Y,,,,,Y,Y,m,20,
34,6,516,13,13,11,['k'],['k'],N,N,None,Y,,,,,Y,Y,m,20,
34,7,517,3,3,11,['d'],['d'],N,N,None,Y,,,,,Y,Y,m,20,
34,8,518,13,13,11,['k'],['k'],N,N,None,Y,,,,,Y,Y,m,20,
34,9,519,0,0,11,['d'],['d'],N,Y,['space'],Y,,,,,Y,Y,m,20,
34,10,520,13,13,11,None,,Timed out,Y,['space'],Y,,,,,Y,Y,m,20,
34,11,521,8,8,11,['d'],['k'],Y,Y,None,N,,,,,Y,Y,m,20,
34,12,522,5,5,11,['k'],['d'],Y,Y,['space'],Y,,,,,Y,Y,m,20,
34,13,523,6,6,11,['d'],['k'],Y,N,None,Y,,,,,Y,Y,m,20,
34,14,524,3,3,11,['d'],['d'],N,N,None,Y,,,,,Y,Y,m,20,
35,0,525,2,2,11,['k'],['k'],N,Y,['space'],Y,,,,,Y,Y,m,20,
35,1,526,3,3,11,['d'],['k'],Y,N,None,Y,,,,,Y,Y,m,20,
35,2,527,14,14,11,['k'],['d'],Y,Y,['space'],Y,,,,,Y,Y,m,20,
35,3,528,14,14,11,['d'],['k'],Y,N,None,Y,,,,,Y,Y,m,20,
35,4,529,9,9,11,['k'],['k'],N,N,None,Y,,,,,Y,Y,m,20,
35,5,530,2,2,11,['d'],['d'],N,Y,['space'],Y,,,,,Y,Y,m,20,
35,6,531,11,11,11,['d'],['k'],Y,Y,['space'],Y,,,,,Y,Y,m,20,
35,7,532,7,7,11,['d'],['k'],Y,Y,['space'],Y,,,,,Y,Y,m,20,
35,8,533,1,1,11,['k'],['d'],Y,N,None,Y,,,,,Y,Y,m,20,
35,9,534,9,9,11,['d'],['d'],N,Y,['space'],Y,,,,,Y,Y,m,20,
35,10,535,2,2,11,['k'],['d'],Y,N,None,Y,,,,,Y,Y,m,20,
35,11,536,6,6,11,['d'],['d'],N,N,None,Y,,,,,Y,Y,m,20,
35,12,537,13,13,11,['d'],['k'],Y,Y,['space'],Y,,,,,Y,Y,m,20,
35,13,538,10,10,11,['d'],['d'],N,N,None,Y,,,,,Y,Y,m,20,
35,14,539,2,2,11,['k'],['d'],Y,Y,['space'],Y,,,,,Y,Y,m,20,
36,0,540,10,10,11,['k'],['d'],Y,Y,['space'],Y,,,,,Y,Y,m,20,
36,1,541,4,4,11,['k'],['d'],Y,Y,['space'],Y,,,,,Y,Y,m,20,
36,2,542,13,13,11,['k'],['d'],Y,Y,['space'],Y,,,,,Y,Y,m,20,
36,3,543,3,3,11,['d'],['k'],Y,N,None,Y,,,,,Y,Y,m,20,
36,4,544,12,12,11,['k'],['k'],N,Y,['space'],Y,,,,,Y,Y,m,20,
36,5,545,12,12,11,['k'],['d'],Y,Y,['d'],N,,,,,Y,Y,m,20,
36,6,546,11,11,11,['d'],['k'],Y,N,None,Y,,,,,Y,Y,m,20,
36,7,547,7,7,11,['k'],['d'],Y,N,None,Y,,,,,Y,Y,m,20,
36,8,548,4,4,11,['d'],['k'],Y,N,None,Y,,,,,Y,Y,m,20,
36,9,549,11,11,11,['k'],['d'],Y,N,['space'],N,34,43,25,,Y,Y,m,20,
36,10,550,0,0,12,['k'],['k'],N,,,,,,,,Y,Y,m,20,
36,11,551,14,14,12,['k'],['d'],Y,,,,,,,,Y,Y,m,20,
36,12,552,6,6,12,['d'],['d'],N,Y,['space'],Y,,,,,Y,Y,m,20,
36,13,553,13,13,12,['k'],['d'],Y,N,None,Y,,,,,Y,Y,m,20,
36,14,554,3,3,12,['d'],['k'],Y,N,None,Y,,,,,Y,Y,m,20,
37,0,555,12,12,12,['d'],['k'],Y,Y,['space'],Y,,,,,Y,Y,m,20,
37,1,556,3,3,12,['k'],['k'],N,N,None,Y,,,,,Y,Y,m,20,
37,2,557,9,9,12,['k'],['d'],Y,N,None,Y,,,,,Y,Y,m,20,
37,3,558,6,6,12,['d'],['k'],Y,Y,['space'],Y,,,,,Y,Y,m,20,
37,4,559,7,7,12,['k'],['k'],N,Y,None,N,,,,,Y,Y,m,20,
37,5,560,1,1,12,['d'],['d'],N,Y,['space'],Y,,,,,Y,Y,m,20,
37,6,561,7,7,12,['k'],['d'],Y,Y,['space'],Y,,,,,Y,Y,m,20,
37,7,562,0,0,12,['d'],['k'],Y,Y,['space'],Y,,,,,Y,Y,m,20,
37,8,563,7,7,12,['k'],['k'],N,Y,['space'],Y,,,,,Y,Y,m,20,
37,9,564,3,3,12,['k'],['k'],N,N,None,Y,,,,,Y,Y,m,20,
37,10,565,1,1,12,['d'],['k'],Y,N,None,Y,,,,,Y,Y,m,20,
37,11,566,0,0,12,['k'],['d'],Y,Y,['space'],Y,,,,,Y,Y,m,20,
37,12,567,0,0,12,['d'],['k'],Y,N,None,Y,,,,,Y,Y,m,20,
37,13,568,14,14,12,['k'],['k'],N,Y,['space'],Y,,,,,Y,Y,m,20,
37,14,569,11,11,12,['k'],['d'],Y,N,None,Y,,,,,Y,Y,m,20,
38,0,570,13,13,12,['d'],['k'],Y,N,None,Y,,,,,Y,Y,m,20,
38,1,571,5,5,12,['k'],['d'],Y,N,None,Y,,,,,Y,Y,m,20,
38,2,572,4,4,12,['k'],['d'],Y,N,None,Y,,,,,Y,Y,m,20,
38,3,573,4,4,12,None,,Timed out,N,None,Y,,,,,Y,Y,m,20,
38,4,574,9,9,12,['d'],['k'],Y,Y,['space'],Y,,,,,Y,Y,m,20,
38,5,575,2,2,12,['k'],['d'],Y,Y,['space'],Y,,,,,Y,Y,m,20,
38,6,576,1,1,12,['k'],['d'],Y,N,None,Y,,,,,Y,Y,m,20,
38,7,577,7,7,12,['d'],['k'],Y,N,None,Y,,,,,Y,Y,m,20,
38,8,578,5,5,12,['k'],['d'],Y,N,None,Y,,,,,Y,Y,m,20,
38,9,579,12,12,12,['k'],['d'],Y,N,None,Y,,,,,Y,Y,m,20,
38,10,580,12,12,12,['d'],['k'],Y,Y,['space'],Y,,,,,Y,Y,m,20,
38,11,581,12,12,12,['d'],['k'],Y,Y,['space'],Y,,,,,Y,Y,m,20,
38,12,582,1,1,12,['d'],['k'],Y,N,None,Y,,,,,Y,Y,m,20,
38,13,583,6,6,12,['k'],['d'],Y,N,None,Y,,,,,Y,Y,m,20,
38,14,584,5,5,12,['k'],['d'],Y,Y,['space'],Y,,,,,Y,Y,m,20,
39,0,585,14,14,12,['d'],['k'],Y,Y,['space'],Y,,,,,Y,Y,m,20,
39,1,586,2,2,12,['k'],['d'],Y,N,None,Y,,,,,Y,Y,m,20,
39,2,587,6,6,12,['k'],['d'],Y,Y,['space'],Y,,,,,Y,Y,m,20,
39,3,588,2,2,12,['d'],['d'],N,N,None,Y,,,,,Y,Y,m,20,
39,4,589,9,9,12,None,,Timed out,Y,['space'],Y,,,,,Y,Y,m,20,
39,5,590,9,9,12,['k'],['k'],N,Y,['space'],Y,,,,,Y,Y,m,20,
39,6,591,14,14,12,['d'],['k'],Y,N,None,Y,,,,,Y,Y,m,20,
39,7,592,12,12,12,['k'],['k'],N,N,None,Y,,,,,Y,Y,m,20,
39,8,593,4,4,12,['k'],['d'],Y,Y,['space'],Y,,,,,Y,Y,m,20,
39,9,594,6,6,12,['d'],['k'],Y,N,None,Y,,,,,Y,Y,m,20,
39,10,595,6,6,12,['k'],['d'],Y,N,['space'],N,,,,,Y,Y,m,20,
39,11,596,8,8,12,['k'],['d'],Y,N,None,Y,,,,,Y,Y,m,20,
39,12,597,4,4,12,['d'],['d'],N,N,None,Y,,,,,Y,Y,m,20,
39,13,598,2,2,12,['k'],['k'],N,Y,['space'],Y,,,,,Y,Y,m,20,
39,14,599,14,14,12,['d'],['d'],N,N,None,Y,34,46,21,,Y,Y,m,20,
