.thisRepN,.thisTrialN,.thisN,.thisIndex,.thisTrial,Block Number,Key pressed,Category,Correct?,Int Match?,Int Response,Int Correct?,Line Accuracy,Interference Accuracy,Matching Interferences,New instruction shown?,Buttons switched?,Fast?,gender,age,
0,0,0,11,11,1,['d'],['k'],N,,,,,,,,,,F,18,
0,1,1,1,1,1,['k'],['k'],Y,,,,,,,,,,F,18,
0,2,2,13,13,1,['k'],['k'],Y,Y,None,N,,,,,,,F,18,
0,3,3,0,0,1,['k'],['d'],N,N,None,Y,,,,,,,F,18,
0,4,4,9,9,1,['d'],['k'],N,N,None,Y,,,,,,,F,18,
0,5,5,13,13,1,['k'],['d'],N,Y,None,N,,,,,,,F,18,
0,6,6,8,8,1,['k'],['d'],N,N,None,Y,,,,,,,F,18,
0,7,7,14,14,1,['d'],['k'],N,N,None,Y,,,,,,,F,18,
0,8,8,12,12,1,['d'],['k'],N,Y,None,N,,,,,,,F,18,
0,9,9,3,3,1,['d'],['k'],N,Y,None,N,,,,,,,F,18,
0,10,10,1,1,1,['d'],['d'],Y,Y,['space'],Y,,,,,,,F,18,
0,11,11,0,0,1,['d'],['k'],N,N,None,Y,,,,,,,F,18,
0,12,12,4,4,1,None,,Timed out,Y,['space'],Y,,,,,,,F,18,
0,13,13,7,7,1,['k'],['k'],Y,Y,None,N,,,,,,,F,18,
0,14,14,11,11,1,['d'],['k'],N,N,None,Y,,,,,,,F,18,
1,0,15,13,13,1,['k'],['d'],N,N,None,Y,,,,,,,F,18,
1,1,16,1,1,1,['d'],['k'],N,Y,['space'],Y,,,,,,,F,18,
1,2,17,13,13,1,['k'],['k'],Y,N,None,Y,,,,,,,F,18,
1,3,18,6,6,1,['d'],['k'],N,Y,['space'],Y,,,,,,,F,18,
1,4,19,11,11,1,['k'],['k'],Y,N,None,Y,,,,,,,F,18,
1,5,20,13,13,1,['k'],['k'],Y,Y,['space'],Y,,,,,,,F,18,
1,6,21,6,6,1,['d'],['k'],N,Y,['space'],Y,,,,,,,F,18,
1,7,22,5,5,1,['d'],['k'],N,Y,['space'],Y,,,,,,,F,18,
1,8,23,2,2,1,['k'],['d'],N,N,None,Y,,,,,,,F,18,
1,9,24,2,2,1,['d'],['d'],Y,Y,['space'],Y,,,,,,,F,18,
1,10,25,1,1,1,['k'],['k'],Y,Y,['space'],Y,,,,,,,F,18,
1,11,26,4,4,1,['d'],['d'],Y,Y,['space'],Y,,,,,,,F,18,
1,12,27,14,14,1,['k'],['d'],N,N,None,Y,,,,,,,F,18,
1,13,28,6,6,1,['d'],['d'],Y,N,None,Y,,,,,,,F,18,
1,14,29,6,6,1,['k'],['d'],N,N,['space'],N,,,,,,,F,18,
2,0,30,14,14,1,['k'],['k'],Y,Y,['space'],Y,,,,,,,F,18,
2,1,31,1,1,1,['d'],['d'],Y,N,None,Y,,,,,,,F,18,
2,2,32,0,0,1,['d'],['k'],N,Y,None,N,,,,,,,F,18,
2,3,33,5,5,1,['d'],['d'],Y,Y,['space'],Y,,,,,,,F,18,
2,4,34,8,8,1,['k'],['k'],Y,Y,None,N,,,,,,,F,18,
2,5,35,6,6,1,['d'],['d'],Y,Y,['space'],Y,,,,,,,F,18,
2,6,36,0,0,1,['k'],['k'],Y,Y,['space'],Y,,,,,,,F,18,
2,7,37,10,10,1,['k'],['d'],N,N,None,Y,,,,,,,F,18,
2,8,38,4,4,1,['k'],['d'],N,Y,['space'],Y,,,,,,,F,18,
2,9,39,11,11,1,['k'],['d'],N,Y,None,N,,,,,,,F,18,
2,10,40,9,9,1,['d'],['d'],Y,Y,None,N,,,,,,,F,18,
2,11,41,13,13,1,['k'],['k'],Y,N,None,Y,,,,,,,F,18,
2,12,42,3,3,1,['d'],['d'],Y,N,None,Y,,,,,,,F,18,
2,13,43,6,6,1,['k'],['d'],N,N,['space'],N,,,,,,,F,18,
2,14,44,7,7,1,['k'],['k'],Y,N,None,Y,,,,,,,F,18,
3,0,45,7,7,1,['k'],['k'],Y,N,['space'],N,,,,,,,F,18,
3,1,46,7,7,1,['k'],['k'],Y,N,None,Y,,,,,,,F,18,
3,2,47,6,6,1,['k'],['k'],Y,N,['space'],N,,,,,,,F,18,
3,3,48,3,3,1,['k'],['k'],Y,Y,None,N,,,,,,,F,18,
3,4,49,4,4,1,['d'],['k'],N,N,None,Y,25,34,25,,,,F,18,
3,5,50,10,10,2,['k'],['k'],Y,,,,,,,,,,F,18,
3,6,51,10,10,2,['d'],['k'],N,,,,,,,,,,F,18,
3,7,52,0,0,2,['d'],['d'],Y,N,['space'],N,,,,,,,F,18,
3,8,53,4,4,2,['k'],['d'],N,N,['space'],N,,,,,,,F,18,
3,9,54,12,12,2,['k'],['k'],Y,N,['space'],N,,,,,,,F,18,
3,10,55,7,7,2,['k'],['d'],N,N,None,Y,,,,,,,F,18,
3,11,56,7,7,2,['k'],['d'],N,N,None,Y,,,,,,,F,18,
3,12,57,0,0,2,['k'],['d'],N,N,None,Y,,,,,,,F,18,
3,13,58,6,6,2,['k'],['d'],N,Y,['space'],Y,,,,,,,F,18,
3,14,59,13,13,2,['d'],['k'],N,N,None,Y,,,,,,,F,18,
4,0,60,5,5,2,['k'],['d'],N,N,None,Y,,,,,,,F,18,
4,1,61,10,10,2,['k'],['d'],N,Y,['space'],Y,,,,,,,F,18,
4,2,62,10,10,2,['d'],['d'],Y,Y,['space'],Y,,,,,,,F,18,
4,3,63,13,13,2,['k'],['d'],N,N,None,Y,,,,,,,F,18,
4,4,64,0,0,2,['k'],['k'],Y,Y,['space'],Y,,,,,,,F,18,
4,5,65,11,11,2,['d'],['d'],Y,N,None,Y,,,,,,,F,18,
4,6,66,9,9,2,['k'],['d'],N,Y,None,N,,,,,,,F,18,
4,7,67,4,4,2,['k'],['d'],N,N,None,Y,,,,,,,F,18,
4,8,68,4,4,2,['k'],['k'],Y,Y,['space'],Y,,,,,,,F,18,
4,9,69,2,2,2,['k'],['d'],N,Y,None,N,,,,,,,F,18,
4,10,70,6,6,2,['k'],['d'],N,Y,None,N,,,,,,,F,18,
4,11,71,13,13,2,['k'],['d'],N,Y,['space'],Y,,,,,,,F,18,
4,12,72,9,9,2,['d'],['d'],Y,N,['space'],N,,,,,,,F,18,
4,13,73,14,14,2,['k'],['d'],N,Y,None,N,,,,,,,F,18,
4,14,74,12,12,2,['k'],['k'],Y,Y,['space'],Y,,,,,,,F,18,
5,0,75,11,11,2,['k'],['d'],N,N,['space'],N,,,,,,,F,18,
5,1,76,9,9,2,['d'],['d'],Y,N,None,Y,,,,,,,F,18,
5,2,77,6,6,2,['k'],['d'],N,Y,None,N,,,,,,,F,18,
5,3,78,1,1,2,['k'],['d'],N,Y,None,N,,,,,,,F,18,
5,4,79,3,3,2,['k'],['d'],N,Y,['space'],Y,,,,,,,F,18,
5,5,80,8,8,2,['k'],['d'],N,N,None,Y,,,,,,,F,18,
5,6,81,12,12,2,['k'],['k'],Y,Y,['space'],Y,,,,,,,F,18,
5,7,82,6,6,2,['d'],['k'],N,Y,None,N,,,,,,,F,18,
5,8,83,7,7,2,['d'],['d'],Y,Y,['space'],Y,,,,,,,F,18,
5,9,84,11,11,2,['d'],['d'],Y,Y,['space'],Y,,,,,,,F,18,
5,10,85,14,14,2,['d'],['k'],N,N,None,Y,,,,,,,F,18,
5,11,86,4,4,2,['k'],['d'],N,Y,['space'],Y,,,,,,,F,18,
5,12,87,7,7,2,['k'],['d'],N,Y,['space'],Y,,,,,,,F,18,
5,13,88,6,6,2,['k'],['k'],Y,N,None,Y,,,,,,,F,18,
5,14,89,4,4,2,None,,Timed out,N,None,Y,,,,,,,F,18,
6,0,90,5,5,2,['d'],['d'],Y,Y,['space'],Y,,,,,,,F,18,
6,1,91,3,3,2,['d'],['d'],Y,Y,['space'],Y,,,,,,,F,18,
6,2,92,5,5,2,['d'],['d'],Y,N,None,Y,,,,,,,F,18,
6,3,93,14,14,2,['d'],['d'],Y,Y,None,N,,,,,,,F,18,
6,4,94,1,1,2,['d'],['k'],N,Y,['space'],Y,,,,,,,F,18,
6,5,95,1,1,2,['d'],['d'],Y,N,None,Y,,,,,,,F,18,
6,6,96,7,7,2,['d'],['k'],N,N,['space'],N,,,,,,,F,18,
6,7,97,7,7,2,['d'],['d'],Y,Y,['space'],Y,,,,,,,F,18,
6,8,98,3,3,2,['k'],['k'],Y,N,None,Y,,,,,,,F,18,
6,9,99,4,4,2,['d'],['k'],N,N,None,Y,21,34,25,,,,F,18,
6,10,100,4,4,3,['k'],['d'],N,,,,,,,,,,F,18,
6,11,101,9,9,3,['k'],['k'],Y,,,,,,,,,,F,18,
6,12,102,9,9,3,['d'],['k'],N,N,None,Y,,,,,,,F,18,
6,13,103,3,3,3,['k'],['k'],Y,N,['space'],N,,,,,,,F,18,
6,14,104,6,6,3,['d'],['k'],N,Y,None,N,,,,,,,F,18,
7,0,105,6,6,3,['k'],['k'],Y,N,['space'],N,,,,,,,F,18,
7,1,106,4,4,3,['d'],['k'],N,Y,None,N,,,,,,,F,18,
7,2,107,2,2,3,['k'],['k'],Y,N,None,Y,,,,,,,F,18,
7,3,108,4,4,3,['k'],['k'],Y,Y,None,N,,,,,,,F,18,
7,4,109,7,7,3,['k'],['k'],Y,Y,['space'],Y,,,,,,,F,18,
7,5,110,2,2,3,['k'],['k'],Y,Y,None,N,,,,,,,F,18,
7,6,111,8,8,3,['k'],['k'],Y,Y,None,N,,,,,,,F,18,
7,7,112,8,8,3,['k'],['k'],Y,Y,None,N,,,,,,,F,18,
7,8,113,1,1,3,['k'],['d'],N,Y,['space'],Y,,,,,,,F,18,
7,9,114,4,4,3,['k'],['k'],Y,N,None,Y,,,,,,,F,18,
7,10,115,9,9,3,['k'],['k'],Y,Y,['space'],Y,,,,,,,F,18,
7,11,116,0,0,3,['k'],['k'],Y,N,['space'],N,,,,,,,F,18,
7,12,117,1,1,3,['k'],['k'],Y,N,['space'],N,,,,,,,F,18,
7,13,118,14,14,3,['k'],['k'],Y,Y,None,N,,,,,,,F,18,
7,14,119,1,1,3,['k'],['k'],Y,Y,None,N,,,,,,,F,18,
8,0,120,9,9,3,['d'],['d'],Y,Y,None,N,,,,,,,F,18,
8,1,121,12,12,3,['k'],['k'],Y,N,None,Y,,,,,,,F,18,
8,2,122,6,6,3,['k'],['k'],Y,Y,['d'],N,,,,,,,F,18,
8,3,123,13,13,3,['d'],['d'],Y,Y,['space'],Y,,,,,,,F,18,
8,4,124,9,9,3,['k'],['k'],Y,Y,None,N,,,,,,,F,18,
8,5,125,6,6,3,['k'],['k'],Y,Y,['space'],Y,,,,,,,F,18,
8,6,126,7,7,3,['d'],['d'],Y,Y,['space'],Y,,,,,,,F,18,
8,7,127,13,13,3,['k'],['k'],Y,Y,['space'],Y,,,,,,,F,18,
8,8,128,8,8,3,['d'],['d'],Y,Y,['space'],Y,,,,,,,F,18,
8,9,129,2,2,3,['k'],['k'],Y,Y,['space'],Y,,,,,,,F,18,
8,10,130,9,9,3,['d'],['d'],Y,Y,['space'],Y,,,,,,,F,18,
8,11,131,7,7,3,['d'],['d'],Y,N,None,Y,,,,,,,F,18,
8,12,132,1,1,3,['d'],['d'],Y,N,None,Y,,,,,,,F,18,
8,13,133,0,0,3,['k'],['k'],Y,Y,['space'],Y,,,,,,,F,18,
8,14,134,3,3,3,['k'],['k'],Y,Y,None,N,,,,,,,F,18,
9,0,135,10,10,3,['k'],['k'],Y,Y,None,N,,,,,,,F,18,
9,1,136,1,1,3,['k'],['k'],Y,N,None,Y,,,,,,,F,18,
9,2,137,4,4,3,['d'],['d'],Y,Y,None,N,,,,,,,F,18,
9,3,138,7,7,3,['k'],['k'],Y,N,None,Y,,,,,,,F,18,
9,4,139,8,8,3,['d'],['d'],Y,N,None,Y,,,,,,,F,18,
9,5,140,0,0,3,['d'],['d'],Y,N,['space'],N,,,,,,,F,18,
9,6,141,2,2,3,['d'],['d'],Y,N,None,Y,,,,,,,F,18,
9,7,142,8,8,3,['d'],['d'],Y,N,None,Y,,,,,,,F,18,
9,8,143,12,12,3,['d'],['d'],Y,N,None,Y,,,,,,,F,18,
9,9,144,0,0,3,['k'],['k'],Y,N,['space'],N,,,,,,,F,18,
9,10,145,14,14,3,['d'],['d'],Y,N,['space'],N,,,,,,,F,18,
9,11,146,11,11,3,['k'],['k'],Y,N,['space'],N,,,,,,,F,18,
9,12,147,3,3,3,['k'],['k'],Y,N,None,Y,,,,,,,F,18,
9,13,148,1,1,3,['d'],['d'],Y,N,None,Y,,,,,,,F,18,
9,14,149,2,2,3,['k'],['d'],N,N,None,Y,44,26,25,,,,F,18,
10,0,150,4,4,4,['d'],['d'],Y,,,,,,,,,,F,18,
10,1,151,12,12,4,['k'],['k'],Y,,,,,,,,,,F,18,
10,2,152,12,12,4,['d'],['d'],Y,Y,['space'],Y,,,,,,,F,18,
10,3,153,8,8,4,['k'],['d'],N,N,None,Y,,,,,,,F,18,
10,4,154,13,13,4,['d'],['d'],Y,N,None,Y,,,,,,,F,18,
10,5,155,12,12,4,['k'],['k'],Y,Y,None,N,,,,,,,F,18,
10,6,156,9,9,4,['k'],['k'],Y,Y,['space'],Y,,,,,,,F,18,
10,7,157,3,3,4,['k'],['k'],Y,Y,None,N,,,,,,,F,18,
10,8,158,11,11,4,['k'],['k'],Y,Y,['space'],Y,,,,,,,F,18,
10,9,159,7,7,4,['d'],['d'],Y,Y,None,N,,,,,,,F,18,
10,10,160,3,3,4,['k'],['k'],Y,Y,None,N,,,,,,,F,18,
10,11,161,12,12,4,['d'],['d'],Y,N,None,Y,,,,,,,F,18,
10,12,162,12,12,4,['k'],['k'],Y,N,None,Y,,,,,,,F,18,
10,13,163,13,13,4,['k'],['k'],Y,N,None,Y,,,,,,,F,18,
10,14,164,12,12,4,['k'],['k'],Y,N,None,Y,,,,,,,F,18,
11,0,165,3,3,4,None,,Timed out,N,None,Y,,,,,,,F,18,
11,1,166,0,0,4,['d'],['d'],Y,N,None,Y,,,,,,,F,18,
11,2,167,11,11,4,['d'],['d'],Y,N,None,Y,,,,,,,F,18,
11,3,168,0,0,4,['k'],['k'],Y,Y,['space'],Y,,,,,,,F,18,
11,4,169,1,1,4,['k'],['k'],Y,N,None,Y,,,,,,,F,18,
11,5,170,8,8,4,None,,Timed out,Y,None,N,,,,,,,F,18,
11,6,171,6,6,4,['k'],['k'],Y,Y,None,N,,,,,,,F,18,
11,7,172,9,9,4,['d'],['d'],Y,N,None,Y,,,,,,,F,18,
11,8,173,9,9,4,['k'],['k'],Y,N,None,Y,,,,,,,F,18,
11,9,174,10,10,4,['k'],['k'],Y,N,['space'],N,,,,,,,F,18,
11,10,175,3,3,4,['d'],['d'],Y,N,None,Y,,,,,,,F,18,
11,11,176,10,10,4,['d'],['d'],Y,Y,['space'],Y,,,,,,,F,18,
11,12,177,7,7,4,['k'],['k'],Y,Y,None,N,,,,,,,F,18,
11,13,178,3,3,4,['k'],['k'],Y,Y,None,N,,,,,,,F,18,
11,14,179,6,6,4,['d'],['d'],Y,Y,['space'],Y,,,,,,,F,18,
12,0,180,0,0,4,['d'],['d'],Y,Y,None,N,,,,,,,F,18,
12,1,181,1,1,4,None,,Timed out,N,None,Y,,,,,,,F,18,
12,2,182,10,10,4,['d'],['d'],Y,N,None,Y,,,,,,,F,18,
12,3,183,0,0,4,['k'],['k'],Y,Y,None,N,,,,,,,F,18,
12,4,184,5,5,4,['k'],['k'],Y,N,None,Y,,,,,,,F,18,
12,5,185,10,10,4,['d'],['d'],Y,Y,['space'],Y,,,,,,,F,18,
12,6,186,0,0,4,None,,Timed out,N,None,Y,,,,,,,F,18,
12,7,187,11,11,4,['k'],['k'],Y,N,None,Y,,,,,,,F,18,
12,8,188,0,0,4,['k'],['k'],Y,N,None,Y,,,,,,,F,18,
12,9,189,9,9,4,['k'],['k'],Y,Y,None,N,,,,,,,F,18,
12,10,190,4,4,4,None,,Timed out,N,None,Y,,,,,,,F,18,
12,11,191,1,1,4,['d'],['d'],Y,Y,None,N,,,,,,,F,18,
12,12,192,3,3,4,['k'],['k'],Y,N,None,Y,,,,,,,F,18,
12,13,193,1,1,4,['k'],['k'],Y,Y,['space'],Y,,,,,,,F,18,
12,14,194,0,0,4,['d'],['d'],Y,Y,['space'],Y,,,,,,,F,18,
13,0,195,7,7,4,None,,Timed out,N,None,Y,,,,,,,F,18,
13,1,196,0,0,4,['k'],['k'],Y,Y,['space'],Y,,,,,,,F,18,
13,2,197,7,7,4,['d'],['d'],Y,Y,None,N,,,,,,,F,18,
13,3,198,0,0,4,['d'],['d'],Y,N,None,Y,,,,,,,F,18,
13,4,199,6,6,4,None,,Timed out,Y,None,N,42,33,24,,,,F,18,
13,5,200,11,11,5,['d'],['d'],Y,,,,,,,,,,F,18,
13,6,201,2,2,5,['k'],['d'],N,,,,,,,,,,F,18,
13,7,202,7,7,5,['k'],['k'],Y,Y,None,N,,,,,,,F,18,
13,8,203,5,5,5,['d'],['d'],Y,Y,['space'],Y,,,,,,,F,18,
13,9,204,0,0,5,['k'],['k'],Y,N,None,Y,,,,,,,F,18,
13,10,205,10,10,5,['d'],['d'],Y,N,None,Y,,,,,,,F,18,
13,11,206,8,8,5,None,,Timed out,N,None,Y,,,,,,,F,18,
13,12,207,3,3,5,['k'],['k'],Y,N,['space'],N,,,,,,,F,18,
13,13,208,14,14,5,['k'],['k'],Y,Y,['space'],Y,,,,,,,F,18,
13,14,209,5,5,5,['d'],['d'],Y,Y,['k'],N,,,,,,,F,18,
14,0,210,4,4,5,['k'],['d'],N,N,['space'],N,,,,,,,F,18,
14,1,211,8,8,5,['d'],['d'],Y,Y,['space'],Y,,,,,,,F,18,
14,2,212,2,2,5,['k'],['k'],Y,N,None,Y,,,,,,,F,18,
14,3,213,9,9,5,None,,Timed out,N,None,Y,,,,,,,F,18,
14,4,214,14,14,5,['k'],['k'],Y,N,None,Y,,,,,,,F,18,
14,5,215,13,13,5,['d'],['d'],Y,N,None,Y,,,,,,,F,18,
14,6,216,12,12,5,['k'],['k'],Y,Y,['space'],Y,,,,,,,F,18,
14,7,217,5,5,5,None,,Timed out,Y,None,N,,,,,,,F,18,
14,8,218,14,14,5,['d'],['d'],Y,Y,None,N,,,,,,,F,18,
14,9,219,14,14,5,['k'],['k'],Y,N,['space'],N,,,,,,,F,18,
14,10,220,12,12,5,['d'],['d'],Y,N,None,Y,,,,,,,F,18,
14,11,221,8,8,5,['k'],['d'],N,N,None,Y,,,,,,,F,18,
14,12,222,11,11,5,['d'],['d'],Y,Y,['space'],Y,,,,,,,F,18,
14,13,223,0,0,5,['k'],['k'],Y,Y,['space'],Y,,,,,,,F,18,
14,14,224,12,12,5,['d'],['d'],Y,N,None,Y,,,,,,,F,18,
15,0,225,5,5,5,['k'],['k'],Y,Y,['space'],Y,,,,,,,F,18,
15,1,226,13,13,5,['d'],['d'],Y,N,None,Y,,,,,,,F,18,
15,2,227,12,12,5,['d'],['d'],Y,Y,['space'],Y,,,,,,,F,18,
15,3,228,9,9,5,['k'],['k'],Y,Y,['space'],Y,,,,,,,F,18,
15,4,229,7,7,5,['k'],['k'],Y,Y,None,N,,,,,,,F,18,
15,5,230,12,12,5,['d'],['d'],Y,N,['space'],N,,,,,,,F,18,
15,6,231,13,13,5,['k'],['k'],Y,N,['space'],N,,,,,,,F,18,
15,7,232,4,4,5,['d'],['d'],Y,N,['space'],N,,,,,,,F,18,
15,8,233,0,0,5,['k'],['k'],Y,Y,None,N,,,,,,,F,18,
15,9,234,9,9,5,['d'],['d'],Y,Y,['space'],Y,,,,,,,F,18,
15,10,235,10,10,5,['k'],['k'],Y,Y,['space'],Y,,,,,,,F,18,
15,11,236,10,10,5,['k'],['k'],Y,Y,['space'],Y,,,,,,,F,18,
15,12,237,10,10,5,['k'],['d'],N,Y,None,N,,,,,,,F,18,
15,13,238,14,14,5,['d'],['d'],Y,Y,['space'],Y,,,,,,,F,18,
15,14,239,14,14,5,['k'],['k'],Y,Y,None,N,,,,,,,F,18,
16,0,240,1,1,5,['k'],['k'],Y,Y,None,N,,,,,,,F,18,
16,1,241,13,13,5,['k'],['k'],Y,N,None,Y,,,,,,,F,18,
16,2,242,9,9,5,['d'],['d'],Y,Y,['space'],Y,,,,,,,F,18,
16,3,243,11,11,5,['k'],['k'],Y,N,None,Y,,,,,,,F,18,
16,4,244,11,11,5,None,,Timed out,N,None,Y,,,,,,,F,18,
16,5,245,4,4,5,['k'],['k'],Y,Y,None,N,,,,,,,F,18,
16,6,246,1,1,5,['k'],['k'],Y,N,None,Y,,,,,,,F,18,
16,7,247,11,11,5,['d'],['k'],N,Y,['space'],Y,,,,,,,F,18,
16,8,248,5,5,5,['k'],['k'],Y,N,None,Y,,,,,,,F,18,
16,9,249,4,4,5,['k'],['k'],Y,N,None,Y,41,32,25,,,,F,18,
16,10,250,3,3,6,['k'],['k'],Y,,,,,,,,,,F,18,
16,11,251,8,8,6,['d'],['d'],Y,,,,,,,,,,F,18,
16,12,252,7,7,6,['d'],['d'],Y,Y,None,N,,,,,,,F,18,
16,13,253,5,5,6,['k'],['k'],Y,Y,None,N,,,,,,,F,18,
16,14,254,12,12,6,['k'],['k'],Y,Y,['space'],Y,,,,,,,F,18,
17,0,255,8,8,6,['k'],['k'],Y,Y,['space'],Y,,,,,,,F,18,
17,1,256,14,14,6,['k'],['k'],Y,N,None,Y,,,,,,,F,18,
17,2,257,6,6,6,['k'],['k'],Y,N,None,Y,,,,,,,F,18,
17,3,258,13,13,6,['d'],['d'],Y,Y,None,N,,,,,,,F,18,
17,4,259,14,14,6,['d'],['d'],Y,Y,['space'],Y,,,,,,,F,18,
17,5,260,11,11,6,['d'],['d'],Y,N,None,Y,,,,,,,F,18,
17,6,261,2,2,6,['d'],['d'],Y,Y,['space'],Y,,,,,,,F,18,
17,7,262,10,10,6,['d'],['d'],Y,Y,['space'],Y,,,,,,,F,18,
17,8,263,11,11,6,['d'],['d'],Y,Y,['space'],Y,,,,,,,F,18,
17,9,264,3,3,6,['k'],['d'],N,Y,['space'],Y,,,,,,,F,18,
17,10,265,9,9,6,['k'],['k'],Y,Y,['space'],Y,,,,,,,F,18,
17,11,266,2,2,6,['k'],['k'],Y,Y,['space'],Y,,,,,,,F,18,
17,12,267,11,11,6,['k'],['k'],Y,Y,['space'],Y,,,,,,,F,18,
17,13,268,13,13,6,['d'],['d'],Y,N,None,Y,,,,,,,F,18,
17,14,269,12,12,6,['k'],['k'],Y,N,None,Y,,,,,,,F,18,
18,0,270,8,8,6,['d'],['d'],Y,Y,['space'],Y,,,,,,,F,18,
18,1,271,7,7,6,['k'],['k'],Y,Y,None,N,,,,,,,F,18,
18,2,272,2,2,6,['d'],['d'],Y,N,None,Y,,,,,,,F,18,
18,3,273,3,3,6,['d'],['d'],Y,N,None,Y,,,,,,,F,18,
18,4,274,0,0,6,['d'],['d'],Y,N,None,Y,,,,,,,F,18,
18,5,275,9,9,6,['k'],['k'],Y,Y,['space'],Y,,,,,,,F,18,
18,6,276,13,13,6,['d'],['d'],Y,Y,['space'],Y,,,,,,,F,18,
18,7,277,5,5,6,['k'],['k'],Y,Y,None,N,,,,,,,F,18,
18,8,278,4,4,6,['k'],['k'],Y,N,None,Y,,,,,,,F,18,
18,9,279,10,10,6,['d'],['d'],Y,N,None,Y,,,,,,,F,18,
18,10,280,1,1,6,['k'],['k'],Y,N,None,Y,,,,,,,F,18,
18,11,281,3,3,6,['d'],['d'],Y,Y,['space'],Y,,,,,,,F,18,
18,12,282,7,7,6,['k'],['k'],Y,N,None,Y,,,,,,,F,18,
18,13,283,11,11,6,['d'],['d'],Y,Y,['space'],Y,,,,,,,F,18,
18,14,284,10,10,6,['d'],['d'],Y,Y,None,N,,,,,,,F,18,
19,0,285,8,8,6,['k'],['k'],Y,Y,['space'],Y,,,,,,,F,18,
19,1,286,5,5,6,['d'],['d'],Y,Y,['space'],Y,,,,,,,F,18,
19,2,287,12,12,6,None,,Timed out,N,None,Y,,,,,,,F,18,
19,3,288,13,13,6,['k'],['k'],Y,Y,None,N,,,,,,,F,18,
19,4,289,11,11,6,['d'],['d'],Y,N,None,Y,,,,,,,F,18,
19,5,290,2,2,6,['d'],['d'],Y,N,None,Y,,,,,,,F,18,
19,6,291,8,8,6,['k'],['k'],Y,Y,['space'],Y,,,,,,,F,18,
19,7,292,13,13,6,['d'],['d'],Y,N,None,Y,,,,,,,F,18,
19,8,293,2,2,6,['d'],['d'],Y,N,['space'],N,,,,,,,F,18,
19,9,294,7,7,6,['d'],['d'],Y,N,None,Y,,,,,,,F,18,
19,10,295,7,7,6,['d'],['d'],Y,N,None,Y,,,,,,,F,18,
19,11,296,10,10,6,None,,Timed out,N,None,Y,,,,,,,F,18,
19,12,297,3,3,6,['k'],['k'],Y,N,None,Y,,,,,,,F,18,
19,13,298,11,11,6,['k'],['k'],Y,N,None,Y,,,,,,,F,18,
19,14,299,3,3,6,['d'],['d'],Y,N,None,Y,47,40,25,,,,F,18,
20,0,300,11,11,7,['d'],['d'],Y,,,,,,,,,,F,18,
20,1,301,14,14,7,['k'],['k'],Y,,,,,,,,,,F,18,
20,2,302,1,1,7,['k'],['d'],N,Y,['space'],Y,,,,,,,F,18,
20,3,303,12,12,7,['d'],['d'],Y,N,None,Y,,,,,,,F,18,
20,4,304,8,8,7,['k'],['k'],Y,Y,['space'],Y,,,,,,,F,18,
20,5,305,13,13,7,['k'],['k'],Y,N,['space'],N,,,,,,,F,18,
20,6,306,9,9,7,['d'],['d'],Y,Y,['space'],Y,,,,,,,F,18,
20,7,307,5,5,7,['k'],['k'],Y,Y,None,N,,,,,,,F,18,
20,8,308,2,2,7,['d'],['d'],Y,Y,['space'],Y,,,,,,,F,18,
20,9,309,7,7,7,['k'],['k'],Y,Y,None,N,,,,,,,F,18,
20,10,310,9,9,7,['d'],['d'],Y,N,None,Y,,,,,,,F,18,
20,11,311,7,7,7,['k'],['k'],Y,N,None,Y,,,,,,,F,18,
20,12,312,7,7,7,['d'],['d'],Y,Y,['space'],Y,,,,,,,F,18,
20,13,313,8,8,7,['k'],['k'],Y,N,None,Y,,,,,,,F,18,
20,14,314,6,6,7,['k'],['k'],Y,N,None,Y,,,,,,,F,18,
21,0,315,10,10,7,['k'],['k'],Y,N,None,Y,,,,,,,F,18,
21,1,316,5,5,7,['d'],['d'],Y,N,None,Y,,,,,,,F,18,
21,2,317,14,14,7,['d'],['d'],Y,N,None,Y,,,,,,,F,18,
21,3,318,8,8,7,['k'],['k'],Y,Y,None,N,,,,,,,F,18,
21,4,319,13,13,7,['d'],['d'],Y,Y,['space'],Y,,,,,,,F,18,
21,5,320,14,14,7,['d'],['d'],Y,Y,['space'],Y,,,,,,,F,18,
21,6,321,14,14,7,['d'],['d'],Y,Y,None,N,,,,,,,F,18,
21,7,322,6,6,7,['k'],['k'],Y,N,None,Y,,,,,,,F,18,
21,8,323,2,2,7,None,,Timed out,N,None,Y,,,,,,,F,18,
21,9,324,3,3,7,['k'],['k'],Y,Y,['space'],Y,,,,,,,F,18,
21,10,325,5,5,7,['d'],['d'],Y,N,None,Y,,,,,,,F,18,
21,11,326,7,7,7,['k'],['k'],Y,N,None,Y,,,,,,,F,18,
21,12,327,7,7,7,['d'],['d'],Y,N,None,Y,,,,,,,F,18,
21,13,328,0,0,7,['d'],['d'],Y,N,None,Y,,,,,,,F,18,
21,14,329,10,10,7,None,,Timed out,N,None,Y,,,,,,,F,18,
22,0,330,7,7,7,['k'],['k'],Y,N,None,Y,,,,,,,F,18,
22,1,331,0,0,7,['k'],['k'],Y,N,['space'],N,,,,,,,F,18,
22,2,332,5,5,7,['d'],['d'],Y,Y,None,N,,,,,,,F,18,
22,3,333,5,5,7,None,,Timed out,Y,None,N,,,,,,,F,18,
22,4,334,5,5,7,['k'],['k'],Y,N,None,Y,,,,,,,F,18,
22,5,335,3,3,7,None,,Timed out,N,None,Y,,,,,,,F,18,
22,6,336,8,8,7,['d'],['d'],Y,Y,None,N,,,,,,,F,18,
22,7,337,3,3,7,['d'],['d'],Y,N,None,Y,,,,,,,F,18,
22,8,338,12,12,7,['d'],['d'],Y,Y,['space'],Y,,,,,,,F,18,
22,9,339,12,12,7,['d'],['d'],Y,N,['space'],N,,,,,,,F,18,
22,10,340,9,9,7,['k'],['k'],Y,N,None,Y,,,,,,,F,18,
22,11,341,2,2,7,['d'],['d'],Y,N,None,Y,,,,,,,F,18,
22,12,342,14,14,7,['d'],['d'],Y,Y,None,N,,,,,,,F,18,
22,13,343,5,5,7,['d'],['d'],Y,N,None,Y,,,,,,,F,18,
22,14,344,10,10,7,['k'],['k'],Y,Y,['space'],Y,,,,,,,F,18,
23,0,345,8,8,7,['k'],['k'],Y,N,None,Y,,,,,,,F,18,
23,1,346,4,4,7,['k'],['k'],Y,Y,['space'],Y,,,,,,,F,18,
23,2,347,10,10,7,None,,Timed out,Y,['space'],Y,,,,,,,F,18,
23,3,348,10,10,7,['k'],['k'],Y,N,['space'],N,,,,,,,F,18,
23,4,349,5,5,7,['d'],['d'],Y,Y,None,N,44,35,21,,,,F,18,
23,5,350,1,1,8,['d'],['d'],Y,,,,,,,,,,F,18,
23,6,351,9,9,8,['k'],['k'],Y,,,,,,,,,,F,18,
23,7,352,7,7,8,['k'],['k'],Y,N,None,Y,,,,,,,F,18,
23,8,353,5,5,8,['d'],['d'],Y,N,None,Y,,,,,,,F,18,
23,9,354,12,12,8,['k'],['k'],Y,N,None,Y,,,,,,,F,18,
23,10,355,5,5,8,['k'],['k'],Y,N,None,Y,,,,,,,F,18,
23,11,356,10,10,8,['k'],['k'],Y,N,None,Y,,,,,,,F,18,
23,12,357,5,5,8,['k'],['k'],Y,Y,['space'],Y,,,,,,,F,18,
23,13,358,2,2,8,['d'],['d'],Y,N,None,Y,,,,,,,F,18,
23,14,359,6,6,8,['d'],['d'],Y,Y,['space'],Y,,,,,,,F,18,
24,0,360,0,0,8,['d'],['d'],Y,Y,None,N,,,,,,,F,18,
24,1,361,11,11,8,['k'],['k'],Y,N,None,Y,,,,,,,F,18,
24,2,362,13,13,8,['d'],['d'],Y,Y,['space'],Y,,,,,,,F,18,
24,3,363,4,4,8,['k'],['k'],Y,Y,['space'],Y,,,,,,,F,18,
24,4,364,13,13,8,['k'],['k'],Y,Y,['space'],Y,,,,,,,F,18,
24,5,365,5,5,8,['k'],['k'],Y,Y,['space'],Y,,,,,,,F,18,
24,6,366,5,5,8,['k'],['k'],Y,N,None,Y,,,,,,,F,18,
24,7,367,9,9,8,['d'],['d'],Y,N,None,Y,,,,,,,F,18,
24,8,368,10,10,8,['d'],['d'],Y,Y,['space'],Y,,,,,,,F,18,
24,9,369,6,6,8,['k'],['k'],Y,N,None,Y,,,,,,,F,18,
24,10,370,7,7,8,['d'],['d'],Y,Y,None,N,,,,,,,F,18,
24,11,371,14,14,8,['d'],['d'],Y,N,['space'],N,,,,,,,F,18,
24,12,372,6,6,8,['d'],['d'],Y,Y,None,N,,,,,,,F,18,
24,13,373,4,4,8,['k'],['k'],Y,Y,['space'],Y,,,,,,,F,18,
24,14,374,4,4,8,['d'],['d'],Y,N,None,Y,,,,,,,F,18,
25,0,375,8,8,8,['d'],['d'],Y,Y,['space'],Y,,,,,,,F,18,
25,1,376,3,3,8,['k'],['d'],N,Y,None,N,,,,,,,F,18,
25,2,377,4,4,8,['k'],['k'],Y,Y,['space'],Y,,,,,,,F,18,
25,3,378,9,9,8,['d'],['d'],Y,N,None,Y,,,,,,,F,18,
25,4,379,10,10,8,['k'],['k'],Y,Y,['space'],Y,,,,,,,F,18,
25,5,380,4,4,8,['k'],['k'],Y,Y,['space'],Y,,,,,,,F,18,
25,6,381,14,14,8,['k'],['k'],Y,Y,['space'],Y,,,,,,,F,18,
25,7,382,0,0,8,['d'],['d'],Y,Y,['space'],Y,,,,,,,F,18,
25,8,383,14,14,8,['k'],['k'],Y,Y,['space'],Y,,,,,,,F,18,
25,9,384,4,4,8,['d'],['d'],Y,Y,['space'],Y,,,,,,,F,18,
25,10,385,2,2,8,['d'],['d'],Y,N,None,Y,,,,,,,F,18,
25,11,386,14,14,8,['d'],['d'],Y,N,None,Y,,,,,,,F,18,
25,12,387,8,8,8,['k'],['k'],Y,Y,['space'],Y,,,,,,,F,18,
25,13,388,12,12,8,['k'],['d'],N,Y,['space'],Y,,,,,,,F,18,
25,14,389,8,8,8,['d'],['d'],Y,Y,['space'],Y,,,,,,,F,18,
26,0,390,11,11,8,['k'],['k'],Y,N,None,Y,,,,,,,F,18,
26,1,391,11,11,8,['d'],['d'],Y,Y,['space'],Y,,,,,,,F,18,
26,2,392,3,3,8,['k'],['k'],Y,N,None,Y,,,,,,,F,18,
26,3,393,3,3,8,['k'],['k'],Y,Y,['space'],Y,,,,,,,F,18,
26,4,394,8,8,8,['d'],['d'],Y,N,None,Y,,,,,,,F,18,
26,5,395,2,2,8,['k'],['k'],Y,N,['space'],N,,,,,,,F,18,
26,6,396,8,8,8,['d'],['d'],Y,N,None,Y,,,,,,,F,18,
26,7,397,12,12,8,['k'],['k'],Y,N,None,Y,,,,,,,F,18,
26,8,398,0,0,8,['k'],['k'],Y,N,None,Y,,,,,,,F,18,
26,9,399,2,2,8,['k'],['k'],Y,N,['space'],N,48,41,25,,,,F,18,
26,10,400,1,1,9,['k'],['k'],Y,,,,,,,,,,F,18,
26,11,401,14,14,9,['d'],['d'],Y,,,,,,,,,,F,18,
26,12,402,5,5,9,['d'],['k'],N,N,None,Y,,,,,,,F,18,
26,13,403,0,0,9,['k'],['k'],Y,Y,None,N,,,,,,,F,18,
26,14,404,11,11,9,['k'],['k'],Y,N,None,Y,,,,,,,F,18,
27,0,405,9,9,9,['k'],['k'],Y,N,None,Y,,,,,,,F,18,
27,1,406,14,14,9,['d'],['d'],Y,Y,['space'],Y,,,,,,,F,18,
27,2,407,14,14,9,['k'],['k'],Y,Y,['space'],Y,,,,,,,F,18,
27,3,408,13,13,9,None,,Timed out,N,None,Y,,,,,,,F,18,
27,4,409,0,0,9,['k'],['k'],Y,Y,['space'],Y,,,,,,,F,18,
27,5,410,3,3,9,['d'],['d'],Y,Y,['space'],Y,,,,,,,F,18,
27,6,411,2,2,9,['d'],['d'],Y,Y,['space'],Y,,,,,,,F,18,
27,7,412,6,6,9,['k'],['k'],Y,Y,['space'],Y,,,,,,,F,18,
27,8,413,13,13,9,['d'],['d'],Y,Y,['space'],Y,,,,,,,F,18,
27,9,414,12,12,9,['d'],['d'],Y,N,None,Y,,,,,,,F,18,
27,10,415,2,2,9,['k'],['k'],Y,N,None,Y,,,,,,,F,18,
27,11,416,12,12,9,['k'],['k'],Y,N,None,Y,,,,,,,F,18,
27,12,417,11,11,9,['k'],['k'],Y,Y,['space'],Y,,,,,,,F,18,
27,13,418,2,2,9,['k'],['k'],Y,N,None,Y,,,,,,,F,18,
27,14,419,13,13,9,['d'],['d'],Y,N,None,Y,,,,,,,F,18,
28,0,420,2,2,9,['d'],['d'],Y,N,None,Y,,,,,,,F,18,
28,1,421,5,5,9,['k'],['k'],Y,N,None,Y,,,,,,,F,18,
28,2,422,6,6,9,['k'],['k'],Y,N,None,Y,,,,,,,F,18,
28,3,423,12,12,9,['k'],['k'],Y,Y,['space'],Y,,,,,,,F,18,
28,4,424,12,12,9,['k'],['k'],Y,N,None,Y,,,,,,,F,18,
28,5,425,5,5,9,['k'],['k'],Y,Y,None,N,,,,,,,F,18,
28,6,426,12,12,9,['d'],['d'],Y,N,None,Y,,,,,,,F,18,
28,7,427,14,14,9,['d'],['d'],Y,N,['space'],N,,,,,,,F,18,
28,8,428,1,1,9,['k'],['k'],Y,N,None,Y,,,,,,,F,18,
28,9,429,9,9,9,['d'],['d'],Y,Y,None,N,,,,,,,F,18,
28,10,430,8,8,9,['k'],['k'],Y,Y,['space'],Y,,,,,,,F,18,
28,11,431,1,1,9,['d'],['d'],Y,Y,['space'],Y,,,,,,,F,18,
28,12,432,2,2,9,['d'],['d'],Y,Y,['space'],Y,,,,,,,F,18,
28,13,433,2,2,9,['k'],['k'],Y,Y,['space'],Y,,,,,,,F,18,
28,14,434,12,12,9,['k'],['k'],Y,Y,['space'],Y,,,,,,,F,18,
29,0,435,2,2,9,['d'],['d'],Y,N,None,Y,,,,,,,F,18,
29,1,436,6,6,9,['d'],['d'],Y,N,None,Y,,,,,,,F,18,
29,2,437,14,14,9,['d'],['d'],Y,Y,['space'],Y,,,,,,,F,18,
29,3,438,12,12,9,['d'],['d'],Y,Y,None,N,,,,,,,F,18,
29,4,439,0,0,9,['k'],['k'],Y,N,None,Y,,,,,,,F,18,
29,5,440,9,9,9,['d'],['d'],Y,Y,None,N,,,,,,,F,18,
29,6,441,4,4,9,['k'],['k'],Y,Y,['space'],Y,,,,,,,F,18,
29,7,442,9,9,9,['k'],['k'],Y,N,None,Y,,,,,,,F,18,
29,8,443,1,1,9,['k'],['k'],Y,N,['space'],N,,,,,,,F,18,
29,9,444,3,3,9,['d'],['d'],Y,N,None,Y,,,,,,,F,18,
29,10,445,7,7,9,['d'],['d'],Y,N,None,Y,,,,,,,F,18,
29,11,446,6,6,9,['k'],['k'],Y,N,None,Y,,,,,,,F,18,
29,12,447,4,4,9,['d'],['d'],Y,N,None,Y,,,,,,,F,18,
29,13,448,3,3,9,['k'],['k'],Y,Y,['space'],Y,,,,,,,F,18,
29,14,449,2,2,9,['d'],['d'],Y,N,None,Y,48,41,22,,,,F,18,
30,0,450,2,2,10,['d'],['d'],Y,,,,,,,,,,F,18,
30,1,451,14,14,10,['d'],['d'],Y,,,,,,,,,,F,18,
30,2,452,12,12,10,['k'],['d'],N,N,None,Y,,,,,,,F,18,
30,3,453,10,10,10,['k'],['k'],Y,N,None,Y,,,,,,,F,18,
30,4,454,3,3,10,['k'],['k'],Y,Y,['space'],Y,,,,,,,F,18,
30,5,455,8,8,10,['d'],['d'],Y,Y,['space'],Y,,,,,,,F,18,
30,6,456,5,5,10,['k'],['k'],Y,Y,['space'],Y,,,,,,,F,18,
30,7,457,2,2,10,['k'],['k'],Y,Y,['space'],Y,,,,,,,F,18,
30,8,458,10,10,10,['d'],['d'],Y,N,['space'],N,,,,,,,F,18,
30,9,459,8,8,10,['d'],['d'],Y,N,None,Y,,,,,,,F,18,
30,10,460,9,9,10,['k'],['k'],Y,N,None,Y,,,,,,,F,18,
30,11,461,2,2,10,['k'],['k'],Y,Y,['space'],Y,,,,,,,F,18,
30,12,462,1,1,10,['k'],['k'],Y,Y,None,N,,,,,,,F,18,
30,13,463,7,7,10,['k'],['k'],Y,Y,['space'],Y,,,,,,,F,18,
30,14,464,6,6,10,['k'],['k'],Y,Y,['space'],Y,,,,,,,F,18,
31,0,465,8,8,10,['d'],['d'],Y,Y,['space'],Y,,,,,,,F,18,
31,1,466,1,1,10,['d'],['d'],Y,N,['space'],N,,,,,,,F,18,
31,2,467,11,11,10,['d'],['d'],Y,N,None,Y,,,,,,,F,18,
31,3,468,4,4,10,['d'],['d'],Y,Y,None,N,,,,,,,F,18,
31,4,469,0,0,10,['d'],['d'],Y,N,None,Y,,,,,,,F,18,
31,5,470,2,2,10,['k'],['k'],Y,N,None,Y,,,,,,,F,18,
31,6,471,5,5,10,['d'],['d'],Y,Y,['space'],Y,,,,,,,F,18,
31,7,472,6,6,10,['d'],['d'],Y,Y,['space'],Y,,,,,,,F,18,
31,8,473,13,13,10,['k'],['k'],Y,Y,['space'],Y,,,,,,,F,18,
31,9,474,10,10,10,['d'],['d'],Y,Y,['space'],Y,,,,,,,F,18,
31,10,475,14,14,10,['d'],['d'],Y,N,None,Y,,,,,,,F,18,
31,11,476,1,1,10,['d'],['d'],Y,N,None,Y,,,,,,,F,18,
31,12,477,5,5,10,['d'],['d'],Y,N,None,Y,,,,,,,F,18,
31,13,478,10,10,10,['k'],['k'],Y,N,None,Y,,,,,,,F,18,
31,14,479,13,13,10,None,,Timed out,Y,None,N,,,,,,,F,18,
32,0,480,7,7,10,['k'],['k'],Y,N,None,Y,,,,,,,F,18,
32,1,481,5,5,10,['k'],['k'],Y,N,None,Y,,,,,,,F,18,
32,2,482,14,14,10,['k'],['k'],Y,N,None,Y,,,,,,,F,18,
32,3,483,4,4,10,['k'],['k'],Y,N,None,Y,,,,,,,F,18,
32,4,484,14,14,10,['k'],['k'],Y,N,['space'],N,,,,,,,F,18,
32,5,485,11,11,10,['k'],['k'],Y,N,['space'],N,,,,,,,F,18,
32,6,486,10,10,10,['d'],['d'],Y,Y,['space'],Y,,,,,,,F,18,
32,7,487,5,5,10,['d'],['d'],Y,N,None,Y,,,,,,,F,18,
32,8,488,9,9,10,['d'],['d'],Y,N,None,Y,,,,,,,F,18,
32,9,489,6,6,10,['d'],['d'],Y,Y,None,N,,,,,,,F,18,
32,10,490,9,9,10,['d'],['d'],Y,N,None,Y,,,,,,,F,18,
32,11,491,9,9,10,['d'],['d'],Y,N,['space'],N,,,,,,,F,18,
32,12,492,5,5,10,['d'],['d'],Y,N,['space'],N,,,,,,,F,18,
32,13,493,12,12,10,['d'],['d'],Y,Y,None,N,,,,,,,F,18,
32,14,494,11,11,10,['k'],['k'],Y,N,None,Y,,,,,,,F,18,
33,0,495,8,8,10,['k'],['k'],Y,N,None,Y,,,,,,,F,18,
33,1,496,11,11,10,['d'],['d'],Y,Y,['space'],Y,,,,,,,F,18,
33,2,497,14,14,10,['d'],['d'],Y,Y,['space'],Y,,,,,,,F,18,
33,3,498,14,14,10,None,,Timed out,N,None,Y,,,,,,,F,18,
33,4,499,1,1,10,['d'],['d'],Y,Y,['space'],Y,47,37,21,,,,F,18,
33,5,500,9,9,11,None,,Timed out,,,,,,,Y,Y,Y,F,18,
33,6,501,12,12,11,['d'],['k'],Y,,,,,,,,Y,Y,F,18,
33,7,502,8,8,11,['d'],['k'],Y,Y,['space'],Y,,,,,Y,Y,F,18,
33,8,503,8,8,11,['d'],['k'],Y,Y,None,N,,,,,Y,Y,F,18,
33,9,504,10,10,11,['d'],['k'],Y,Y,['space'],Y,,,,,Y,Y,F,18,
33,10,505,8,8,11,['k'],['d'],Y,Y,['space'],Y,,,,,Y,Y,F,18,
33,11,506,11,11,11,['d'],['k'],Y,Y,['space'],Y,,,,,Y,Y,F,18,
33,12,507,1,1,11,['k'],['d'],Y,N,None,Y,,,,,Y,Y,F,18,
33,13,508,6,6,11,['d'],['k'],Y,N,None,Y,,,,,Y,Y,F,18,
33,14,509,6,6,11,['d'],['k'],Y,Y,['space'],Y,,,,,Y,Y,F,18,
34,0,510,3,3,11,['k'],['d'],Y,N,None,Y,,,,,Y,Y,F,18,
34,1,511,2,2,11,['k'],['d'],Y,Y,['space'],Y,,,,,Y,Y,F,18,
34,2,512,1,1,11,['d'],['k'],Y,Y,['space'],Y,,,,,Y,Y,F,18,
34,3,513,4,4,11,['k'],['d'],Y,Y,['space'],Y,,,,,Y,Y,F,18,
34,4,514,14,14,11,['d'],['k'],Y,Y,['space'],Y,,,,,Y,Y,F,18,
34,5,515,10,10,11,['d'],['k'],Y,N,None,Y,,,,,Y,Y,F,18,
34,6,516,3,3,11,['k'],['d'],Y,Y,['space'],Y,,,,,Y,Y,F,18,
34,7,517,11,11,11,['d'],['k'],Y,N,None,Y,,,,,Y,Y,F,18,
34,8,518,6,6,11,['k'],['d'],Y,Y,['space'],Y,,,,,Y,Y,F,18,
34,9,519,13,13,11,['d'],['k'],Y,N,None,Y,,,,,Y,Y,F,18,
34,10,520,11,11,11,['k'],['d'],Y,Y,['space'],Y,,,,,Y,Y,F,18,
34,11,521,4,4,11,['d'],['k'],Y,Y,['space'],Y,,,,,Y,Y,F,18,
34,12,522,8,8,11,['d'],['k'],Y,N,None,Y,,,,,Y,Y,F,18,
34,13,523,7,7,11,['k'],['d'],Y,N,None,Y,,,,,Y,Y,F,18,
34,14,524,2,2,11,['k'],['d'],Y,N,None,Y,,,,,Y,Y,F,18,
35,0,525,5,5,11,['k'],['d'],Y,N,None,Y,,,,,Y,Y,F,18,
35,1,526,12,12,11,['d'],['k'],Y,N,None,Y,,,,,Y,Y,F,18,
35,2,527,13,13,11,['d'],['k'],Y,Y,None,N,,,,,Y,Y,F,18,
35,3,528,6,6,11,['d'],['k'],Y,N,None,Y,,,,,Y,Y,F,18,
35,4,529,2,2,11,['k'],['d'],Y,N,None,Y,,,,,Y,Y,F,18,
35,5,530,2,2,11,['k'],['d'],Y,N,None,Y,,,,,Y,Y,F,18,
35,6,531,10,10,11,['d'],['k'],Y,N,None,Y,,,,,Y,Y,F,18,
35,7,532,1,1,11,['k'],['d'],Y,N,None,Y,,,,,Y,Y,F,18,
35,8,533,10,10,11,['d'],['k'],Y,N,None,Y,,,,,Y,Y,F,18,
35,9,534,3,3,11,['k'],['d'],Y,Y,['space'],Y,,,,,Y,Y,F,18,
35,10,535,7,7,11,['d'],['k'],Y,N,None,Y,,,,,Y,Y,F,18,
35,11,536,13,13,11,['k'],['d'],Y,N,None,Y,,,,,Y,Y,F,18,
35,12,537,4,4,11,['d'],['k'],Y,Y,None,N,,,,,Y,Y,F,18,
35,13,538,6,6,11,['d'],['k'],Y,Y,['space'],Y,,,,,Y,Y,F,18,
35,14,539,9,9,11,['k'],['d'],Y,Y,['space'],Y,,,,,Y,Y,F,18,
36,0,540,8,8,11,['d'],['k'],Y,Y,['space'],Y,,,,,Y,Y,F,18,
36,1,541,11,11,11,None,,Timed out,Y,None,N,,,,,Y,Y,F,18,
36,2,542,1,1,11,['k'],['d'],Y,N,['space'],N,,,,,Y,Y,F,18,
36,3,543,6,6,11,['d'],['d'],N,Y,['space'],Y,,,,,Y,Y,F,18,
36,4,544,10,10,11,['k'],['d'],Y,N,None,Y,,,,,Y,Y,F,18,
36,5,545,12,12,11,['k'],['d'],Y,N,None,Y,,,,,Y,Y,F,18,
36,6,546,9,9,11,['k'],['d'],Y,N,None,Y,,,,,Y,Y,F,18,
36,7,547,12,12,11,['k'],['d'],Y,N,None,Y,,,,,Y,Y,F,18,
36,8,548,11,11,11,['k'],['d'],Y,N,None,Y,,,,,Y,Y,F,18,
36,9,549,0,0,11,['k'],['d'],Y,Y,None,N,47,42,23,,Y,Y,F,18,
36,10,550,4,4,12,['d'],['k'],Y,,,,,,,,Y,Y,F,18,
36,11,551,13,13,12,['d'],['k'],Y,,,,,,,,Y,Y,F,18,
36,12,552,9,9,12,['d'],['k'],Y,N,None,Y,,,,,Y,Y,F,18,
36,13,553,14,14,12,['d'],['k'],Y,N,None,Y,,,,,Y,Y,F,18,
36,14,554,6,6,12,['d'],['k'],Y,Y,['space'],Y,,,,,Y,Y,F,18,
37,0,555,4,4,12,['k'],['d'],Y,Y,None,N,,,,,Y,Y,F,18,
37,1,556,10,10,12,['d'],['k'],Y,N,None,Y,,,,,Y,Y,F,18,
37,2,557,5,5,12,['d'],['k'],Y,Y,None,N,,,,,Y,Y,F,18,
37,3,558,11,11,12,['k'],['d'],Y,N,None,Y,,,,,Y,Y,F,18,
37,4,559,3,3,12,['k'],['d'],Y,N,None,Y,,,,,Y,Y,F,18,
37,5,560,14,14,12,['d'],['k'],Y,N,None,Y,,,,,Y,Y,F,18,
37,6,561,1,1,12,['d'],['k'],Y,Y,None,N,,,,,Y,Y,F,18,
37,7,562,10,10,12,['k'],['d'],Y,Y,['space'],Y,,,,,Y,Y,F,18,
37,8,563,7,7,12,['d'],['k'],Y,Y,['space'],Y,,,,,Y,Y,F,18,
37,9,564,1,1,12,['d'],['k'],Y,N,None,Y,,,,,Y,Y,F,18,
37,10,565,14,14,12,['k'],['d'],Y,N,['space'],N,,,,,Y,Y,F,18,
37,11,566,11,11,12,['d'],['k'],Y,Y,None,N,,,,,Y,Y,F,18,
37,12,567,0,0,12,None,,Timed out,N,None,Y,,,,,Y,Y,F,18,
37,13,568,13,13,12,['d'],['k'],Y,N,None,Y,,,,,Y,Y,F,18,
37,14,569,1,1,12,['k'],['d'],Y,N,None,Y,,,,,Y,Y,F,18,
38,0,570,0,0,12,['k'],['d'],Y,Y,['space'],Y,,,,,Y,Y,F,18,
38,1,571,2,2,12,['d'],['k'],Y,Y,['space'],Y,,,,,Y,Y,F,18,
38,2,572,4,4,12,['d'],['k'],Y,Y,['space'],Y,,,,,Y,Y,F,18,
38,3,573,3,3,12,['d'],['k'],Y,Y,['space'],Y,,,,,Y,Y,F,18,
38,4,574,0,0,12,['k'],['d'],Y,N,None,Y,,,,,Y,Y,F,18,
38,5,575,4,4,12,['k'],['d'],Y,Y,['space'],Y,,,,,Y,Y,F,18,
38,6,576,3,3,12,['d'],['k'],Y,N,None,Y,,,,,Y,Y,F,18,
38,7,577,10,10,12,['k'],['d'],Y,N,None,Y,,,,,Y,Y,F,18,
38,8,578,11,11,12,['k'],['d'],Y,N,None,Y,,,,,Y,Y,F,18,
38,9,579,5,5,12,['d'],['k'],Y,N,None,Y,,,,,Y,Y,F,18,
38,10,580,8,8,12,['k'],['d'],Y,N,None,Y,,,,,Y,Y,F,18,
38,11,581,13,13,12,['d'],['k'],Y,N,['space'],N,,,,,Y,Y,F,18,
38,12,582,9,9,12,['k'],['d'],Y,N,None,Y,,,,,Y,Y,F,18,
38,13,583,0,0,12,['d'],['k'],Y,Y,['k'],N,,,,,Y,Y,F,18,
38,14,584,1,1,12,['k'],['d'],Y,Y,None,N,,,,,Y,Y,F,18,
39,0,585,13,13,12,['d'],['k'],Y,N,None,Y,,,,,Y,Y,F,18,
39,1,586,0,0,12,['d'],['k'],Y,Y,['space'],Y,,,,,Y,Y,F,18,
39,2,587,13,13,12,['k'],['d'],Y,N,None,Y,,,,,Y,Y,F,18,
39,3,588,8,8,12,['k'],['d'],Y,Y,['space'],Y,,,,,Y,Y,F,18,
39,4,589,0,0,12,['d'],['k'],Y,N,None,Y,,,,,Y,Y,F,18,
39,5,590,13,13,12,['d'],['k'],Y,Y,['space'],Y,,,,,Y,Y,F,18,
39,6,591,10,10,12,['d'],['k'],Y,N,None,Y,,,,,Y,Y,F,18,
39,7,592,6,6,12,['k'],['d'],Y,Y,['space'],Y,,,,,Y,Y,F,18,
39,8,593,3,3,12,['k'],['d'],Y,N,None,Y,,,,,Y,Y,F,18,
39,9,594,3,3,12,['k'],['d'],Y,N,None,Y,,,,,Y,Y,F,18,
39,10,595,12,12,12,['k'],['d'],Y,Y,['space'],Y,,,,,Y,Y,F,18,
39,11,596,7,7,12,['k'],['d'],Y,Y,['k'],N,,,,,Y,Y,F,18,
39,12,597,1,1,12,['d'],['k'],Y,Y,['k'],N,,,,,Y,Y,F,18,
39,13,598,5,5,12,None,,Timed out,Y,['k'],N,,,,,Y,Y,F,18,
39,14,599,2,2,12,['k'],['d'],Y,Y,['space'],Y,48,37,23,,Y,Y,F,18,
