.thisRepN,.thisTrialN,.thisN,.thisIndex,.thisTrial,Block Number,Key pressed,Category,Correct?,Int Match?,Int Response,Int Correct?,Line Accuracy,Interference Accuracy,Matching Interferences,New instruction shown?,Buttons switched?,Fast?,gender,age,
0,0,0,3,3,1,['k'],['k'],Y,,,,,,,,,,,,
0,1,1,8,8,1,['d'],['d'],Y,,,,,,,,,,,,
0,2,2,9,9,1,['d'],['d'],Y,N,None,Y,,,,,,,,,
0,3,3,12,12,1,['d'],['k'],N,N,None,Y,,,,,,,,,
0,4,4,14,14,1,['d'],['d'],Y,Y,None,N,,,,,,,,,
0,5,5,7,7,1,['k'],['d'],N,Y,['space'],Y,,,,,,,,,
0,6,6,4,4,1,['d'],['d'],Y,N,None,Y,,,,,,,,,
0,7,7,3,3,1,['k'],['k'],Y,Y,['space'],Y,,,,,,,,,
0,8,8,4,4,1,['d'],['d'],Y,Y,None,N,,,,,,,,,
0,9,9,8,8,1,['d'],['k'],N,Y,['space'],Y,,,,,,,,,
0,10,10,0,0,1,['d'],['d'],Y,Y,['space'],Y,,,,,,,,,
0,11,11,9,9,1,['k'],['k'],Y,N,None,Y,,,,,,,,,
0,12,12,3,3,1,['d'],['d'],Y,Y,['space'],Y,,,,,,,,,
0,13,13,2,2,1,['d'],['d'],Y,Y,None,N,,,,,,,,,
0,14,14,10,10,1,['k'],['k'],Y,Y,None,N,,,,,,,,,
1,0,15,5,5,1,['k'],['d'],N,Y,['space'],Y,,,,,,,,,
1,1,16,4,4,1,['k'],['k'],Y,N,None,Y,,,,,,,,,
1,2,17,1,1,1,['d'],['d'],Y,N,None,Y,,,,,,,,,
1,3,18,5,5,1,['k'],['d'],N,Y,['space'],Y,,,,,,,,,
1,4,19,11,11,1,['d'],['d'],Y,Y,['space'],Y,,,,,,,,,
1,5,20,5,5,1,['d'],['d'],Y,Y,None,N,,,,,,,,,
1,6,21,0,0,1,['k'],['k'],Y,Y,['space'],Y,,,,,,,,,
1,7,22,14,14,1,['k'],['d'],N,N,None,Y,,,,,,,,,
1,8,23,10,10,1,['k'],['k'],Y,Y,['space'],Y,,,,,,,,,
1,9,24,6,6,1,['d'],['k'],N,Y,None,N,,,,,,,,,
1,10,25,6,6,1,['k'],['d'],N,N,['space'],N,,,,,,,,,
1,11,26,12,12,1,['d'],['k'],N,Y,None,N,,,,,,,,,
1,12,27,10,10,1,['k'],['k'],Y,N,None,Y,,,,,,,,,
1,13,28,7,7,1,['d'],['d'],Y,N,None,Y,,,,,,,,,
1,14,29,1,1,1,['d'],['k'],N,N,None,Y,,,,,,,,,
2,0,30,1,1,1,['k'],['d'],N,N,['space'],N,,,,,,,,,
2,1,31,14,14,1,['d'],['d'],Y,Y,None,N,,,,,,,,,
2,2,32,9,9,1,['d'],['k'],N,Y,['space'],Y,,,,,,,,,
2,3,33,0,0,1,['k'],['k'],Y,Y,['k'],N,,,,,,,,,
2,4,34,11,11,1,['d'],['d'],Y,Y,['d'],N,,,,,,,,,
2,5,35,8,8,1,['d'],['d'],Y,Y,['space'],Y,,,,,,,,,
2,6,36,1,1,1,['k'],['d'],N,N,None,Y,,,,,,,,,
2,7,37,2,2,1,['d'],['k'],N,N,None,Y,,,,,,,,,
2,8,38,5,5,1,['k'],['k'],Y,N,None,Y,,,,,,,,,
2,9,39,4,4,1,['d'],['k'],N,N,None,Y,,,,,,,,,
2,10,40,12,12,1,['d'],['d'],Y,N,None,Y,,,,,,,,,
2,11,41,14,14,1,['k'],['d'],N,Y,['space'],Y,,,,,,,,,
2,12,42,12,12,1,['k'],['d'],N,N,None,Y,,,,,,,,,
2,13,43,1,1,1,['k'],['k'],Y,Y,['space'],Y,,,,,,,,,
2,14,44,13,13,1,['d'],['d'],Y,Y,None,N,,,,,,,,,
3,0,45,11,11,1,['d'],['d'],Y,N,['space'],N,,,,,,,,,
3,1,46,11,11,1,['k'],['k'],Y,N,['space'],N,,,,,,,,,
3,2,47,7,7,1,['d'],['d'],Y,N,None,Y,,,,,,,,,
3,3,48,8,8,1,['d'],['k'],N,N,None,Y,,,,,,,,,
3,4,49,11,11,1,['k'],['k'],Y,N,['d'],N,32,32,25,,,,,,
3,5,50,5,5,2,['k'],['k'],Y,,,,,,,,,,,,
3,6,51,14,14,2,['k'],['d'],N,,,,,,,,,,,,
3,7,52,7,7,2,['d'],['d'],Y,Y,None,N,,,,,,,,,
3,8,53,12,12,2,['d'],['d'],Y,N,['d'],N,,,,,,,,,
3,9,54,13,13,2,['k'],['k'],Y,N,None,Y,,,,,,,,,
3,10,55,7,7,2,['k'],['k'],Y,N,None,Y,,,,,,,,,
3,11,56,4,4,2,['d'],['k'],N,Y,None,N,,,,,,,,,
3,12,57,13,13,2,['k'],['k'],Y,N,['space'],N,,,,,,,,,
3,13,58,7,7,2,['k'],['d'],N,N,None,Y,,,,,,,,,
3,14,59,9,9,2,['d'],['d'],Y,N,None,Y,,,,,,,,,
4,0,60,5,5,2,['d'],['d'],Y,N,['space'],N,,,,,,,,,
4,1,61,6,6,2,['k'],['d'],N,Y,['space'],Y,,,,,,,,,
4,2,62,2,2,2,['k'],['d'],N,N,None,Y,,,,,,,,,
4,3,63,5,5,2,['k'],['k'],Y,N,None,Y,,,,,,,,,
4,4,64,6,6,2,['k'],['k'],Y,Y,None,N,,,,,,,,,
4,5,65,1,1,2,['d'],['k'],N,Y,['space'],Y,,,,,,,,,
4,6,66,13,13,2,['k'],['k'],Y,N,None,Y,,,,,,,,,
4,7,67,0,0,2,['k'],['k'],Y,Y,['space'],Y,,,,,,,,,
4,8,68,4,4,2,['k'],['d'],N,N,None,Y,,,,,,,,,
4,9,69,13,13,2,['k'],['k'],Y,Y,['space'],Y,,,,,,,,,
4,10,70,9,9,2,['k'],['k'],Y,N,None,Y,,,,,,,,,
4,11,71,8,8,2,['k'],['d'],N,Y,['space'],Y,,,,,,,,,
4,12,72,9,9,2,['d'],['k'],N,N,None,Y,,,,,,,,,
4,13,73,14,14,2,['k'],['k'],Y,N,None,Y,,,,,,,,,
4,14,74,8,8,2,['k'],['d'],N,Y,None,N,,,,,,,,,
5,0,75,6,6,2,['k'],['d'],N,N,None,Y,,,,,,,,,
5,1,76,11,11,2,['k'],['k'],Y,N,None,Y,,,,,,,,,
5,2,77,8,8,2,['d'],['d'],Y,Y,['space'],Y,,,,,,,,,
5,3,78,6,6,2,['d'],['k'],N,Y,None,N,,,,,,,,,
5,4,79,9,9,2,['d'],['d'],Y,Y,None,N,,,,,,,,,
5,5,80,3,3,2,['k'],['k'],Y,Y,None,N,,,,,,,,,
5,6,81,9,9,2,['d'],['k'],N,Y,['space'],Y,,,,,,,,,
5,7,82,4,4,2,['k'],['d'],N,N,None,Y,,,,,,,,,
5,8,83,7,7,2,['k'],['d'],N,Y,None,N,,,,,,,,,
5,9,84,4,4,2,['d'],['d'],Y,Y,['space'],Y,,,,,,,,,
5,10,85,9,9,2,['k'],['k'],Y,N,None,Y,,,,,,,,,
5,11,86,2,2,2,['d'],['k'],N,N,None,Y,,,,,,,,,
5,12,87,12,12,2,['d'],['d'],Y,N,None,Y,,,,,,,,,
5,13,88,14,14,2,['k'],['k'],Y,Y,['space'],Y,,,,,,,,,
5,14,89,6,6,2,['d'],['k'],N,Y,['d'],N,,,,,,,,,
6,0,90,6,6,2,['k'],['d'],N,N,None,Y,,,,,,,,,
6,1,91,10,10,2,['d'],['d'],Y,N,None,Y,,,,,,,,,
6,2,92,10,10,2,['d'],['k'],N,N,['space'],N,,,,,,,,,
6,3,93,2,2,2,['k'],['d'],N,Y,None,N,,,,,,,,,
6,4,94,5,5,2,['d'],['k'],N,Y,['d'],N,,,,,,,,,
6,5,95,9,9,2,['k'],['d'],N,Y,None,N,,,,,,,,,
6,6,96,6,6,2,['d'],['d'],Y,Y,None,N,,,,,,,,,
6,7,97,12,12,2,['d'],['d'],Y,N,None,Y,,,,,,,,,
6,8,98,4,4,2,['k'],['k'],Y,N,None,Y,,,,,,,,,
6,9,99,6,6,2,['d'],['d'],Y,Y,['space'],Y,28,31,23,,,,,,
6,10,100,10,10,3,['d'],['d'],Y,,,,,,,,,,,,
6,11,101,7,7,3,['k'],['k'],Y,,,,,,,,,,,,
6,12,102,10,10,3,['k'],['k'],Y,Y,None,N,,,,,,,,,
6,13,103,2,2,3,['d'],['k'],N,N,['space'],N,,,,,,,,,
6,14,104,2,2,3,['k'],['d'],N,N,['k'],N,,,,,,,,,
7,0,105,14,14,3,['d'],['d'],Y,Y,['space'],Y,,,,,,,,,
7,1,106,2,2,3,['d'],['d'],Y,Y,None,N,,,,,,,,,
7,2,107,3,3,3,['k'],['d'],N,N,None,Y,,,,,,,,,
7,3,108,2,2,3,['d'],['k'],N,N,None,Y,,,,,,,,,
7,4,109,1,1,3,['d'],['k'],N,N,None,Y,,,,,,,,,
7,5,110,10,10,3,['d'],['d'],Y,N,None,Y,,,,,,,,,
7,6,111,3,3,3,['k'],['k'],Y,N,None,Y,,,,,,,,,
7,7,112,13,13,3,['d'],['d'],Y,N,None,Y,,,,,,,,,
7,8,113,4,4,3,['d'],['d'],Y,N,['space'],N,,,,,,,,,
7,9,114,4,4,3,['d'],['k'],N,N,None,Y,,,,,,,,,
7,10,115,9,9,3,['d'],['k'],N,Y,['space'],Y,,,,,,,,,
7,11,116,11,11,3,['d'],['k'],N,N,None,Y,,,,,,,,,
7,12,117,7,7,3,['d'],['k'],N,N,None,Y,,,,,,,,,
7,13,118,10,10,3,['d'],['k'],N,Y,['space'],Y,,,,,,,,,
7,14,119,5,5,3,['d'],['k'],N,N,None,Y,,,,,,,,,
8,0,120,7,7,3,['d'],['d'],Y,Y,None,N,,,,,,,,,
8,1,121,11,11,3,['d'],['d'],Y,Y,None,N,,,,,,,,,
8,2,122,14,14,3,['k'],['k'],Y,Y,['space'],Y,,,,,,,,,
8,3,123,7,7,3,['d'],['k'],N,Y,['space'],Y,,,,,,,,,
8,4,124,3,3,3,['k'],['d'],N,N,None,Y,,,,,,,,,
8,5,125,0,0,3,['d'],['d'],Y,N,None,Y,,,,,,,,,
8,6,126,11,11,3,['d'],['k'],N,N,None,Y,,,,,,,,,
8,7,127,8,8,3,['k'],['d'],N,Y,None,N,,,,,,,,,
8,8,128,10,10,3,['d'],['d'],Y,N,['space'],N,,,,,,,,,
8,9,129,10,10,3,['d'],['k'],N,Y,['space'],Y,,,,,,,,,
8,10,130,12,12,3,['k'],['k'],Y,Y,None,N,,,,,,,,,
8,11,131,14,14,3,['d'],['k'],N,N,['space'],N,,,,,,,,,
8,12,132,14,14,3,['d'],['k'],N,Y,None,N,,,,,,,,,
8,13,133,10,10,3,['k'],['d'],N,Y,None,N,,,,,,,,,
8,14,134,3,3,3,['d'],['k'],N,N,['d'],N,,,,,,,,,
9,0,135,13,13,3,['k'],['d'],N,N,None,Y,,,,,,,,,
9,1,136,8,8,3,['d'],['k'],N,N,None,Y,,,,,,,,,
9,2,137,10,10,3,['k'],['k'],Y,N,['space'],N,,,,,,,,,
9,3,138,11,11,3,['k'],['d'],N,Y,None,N,,,,,,,,,
9,4,139,4,4,3,['d'],['d'],Y,Y,['space'],Y,,,,,,,,,
9,5,140,2,2,3,['d'],['k'],N,Y,['k'],N,,,,,,,,,
9,6,141,12,12,3,['k'],['k'],Y,N,None,Y,,,,,,,,,
9,7,142,0,0,3,['k'],['d'],N,N,None,Y,,,,,,,,,
9,8,143,13,13,3,['d'],['d'],Y,N,None,Y,,,,,,,,,
9,9,144,0,0,3,['d'],['d'],Y,N,None,Y,,,,,,,,,
9,10,145,0,0,3,['k'],['d'],N,Y,None,N,,,,,,,,,
9,11,146,3,3,3,['k'],['k'],Y,Y,None,N,,,,,,,,,
9,12,147,6,6,3,['d'],['d'],Y,N,None,Y,,,,,,,,,
9,13,148,5,5,3,['k'],['k'],Y,N,None,Y,,,,,,,,,
9,14,149,11,11,3,['k'],['k'],Y,Y,['space'],Y,24,29,20,,,,,,
10,0,150,0,0,4,['k'],['k'],Y,,,,,,,,,,,,
10,1,151,10,10,4,['d'],['d'],Y,,,,,,,,,,,,
10,2,152,4,4,4,['d'],['d'],Y,N,None,Y,,,,,,,,,
10,3,153,3,3,4,['d'],['d'],Y,Y,['space'],Y,,,,,,,,,
10,4,154,5,5,4,['k'],['k'],Y,Y,None,N,,,,,,,,,
10,5,155,14,14,4,['d'],['d'],Y,Y,None,N,,,,,,,,,
10,6,156,1,1,4,['d'],['d'],Y,Y,['space'],Y,,,,,,,,,
10,7,157,1,1,4,['d'],['d'],Y,N,None,Y,,,,,,,,,
10,8,158,5,5,4,['k'],['k'],Y,Y,None,N,,,,,,,,,
10,9,159,0,0,4,['d'],['k'],N,N,None,Y,,,,,,,,,
10,10,160,11,11,4,['d'],['d'],Y,Y,['space'],Y,,,,,,,,,
10,11,161,14,14,4,['d'],['d'],Y,N,None,Y,,,,,,,,,
10,12,162,10,10,4,['d'],['d'],Y,N,None,Y,,,,,,,,,
10,13,163,9,9,4,['d'],['d'],Y,Y,None,N,,,,,,,,,
10,14,164,12,12,4,['d'],['d'],Y,N,None,Y,,,,,,,,,
11,0,165,8,8,4,['k'],['k'],Y,Y,None,N,,,,,,,,,
11,1,166,8,8,4,['k'],['k'],Y,Y,['space'],Y,,,,,,,,,
11,2,167,7,7,4,['d'],['d'],Y,Y,['space'],Y,,,,,,,,,
11,3,168,9,9,4,['k'],['k'],Y,N,['space'],N,,,,,,,,,
11,4,169,0,0,4,['k'],['k'],Y,N,None,Y,,,,,,,,,
11,5,170,11,11,4,['d'],['d'],Y,Y,['space'],Y,,,,,,,,,
11,6,171,8,8,4,['d'],['d'],Y,N,None,Y,,,,,,,,,
11,7,172,6,6,4,['k'],['k'],Y,Y,['space'],Y,,,,,,,,,
11,8,173,3,3,4,['d'],['d'],Y,N,None,Y,,,,,,,,,
11,9,174,12,12,4,['d'],['k'],N,Y,['space'],Y,,,,,,,,,
11,10,175,4,4,4,['d'],['d'],Y,N,None,Y,,,,,,,,,
11,11,176,1,1,4,['k'],['k'],Y,N,None,Y,,,,,,,,,
11,12,177,13,13,4,['d'],['d'],Y,Y,None,N,,,,,,,,,
11,13,178,0,0,4,['d'],['d'],Y,Y,['space'],Y,,,,,,,,,
11,14,179,12,12,4,['k'],['k'],Y,N,['space'],N,,,,,,,,,
12,0,180,11,11,4,['d'],['d'],Y,Y,None,N,,,,,,,,,
12,1,181,8,8,4,['k'],['k'],Y,N,None,Y,,,,,,,,,
12,2,182,13,13,4,['d'],['d'],Y,Y,None,N,,,,,,,,,
12,3,183,4,4,4,['k'],['k'],Y,N,None,Y,,,,,,,,,
12,4,184,5,5,4,['k'],['k'],Y,N,None,Y,,,,,,,,,
12,5,185,11,11,4,['k'],['k'],Y,Y,['space'],Y,,,,,,,,,
12,6,186,3,3,4,['d'],['d'],Y,N,['space'],N,,,,,,,,,
12,7,187,0,0,4,['k'],['k'],Y,Y,['space'],Y,,,,,,,,,
12,8,188,2,2,4,['d'],['k'],N,N,None,Y,,,,,,,,,
12,9,189,12,12,4,['d'],['d'],Y,Y,None,N,,,,,,,,,
12,10,190,10,10,4,['k'],['k'],Y,N,None,Y,,,,,,,,,
12,11,191,14,14,4,['d'],['d'],Y,Y,None,N,,,,,,,,,
12,12,192,1,1,4,['d'],['d'],Y,N,['k'],N,,,,,,,,,
12,13,193,14,14,4,['k'],['k'],Y,N,['space'],N,,,,,,,,,
12,14,194,13,13,4,['d'],['d'],Y,Y,None,N,,,,,,,,,
13,0,195,5,5,4,['k'],['d'],N,N,None,Y,,,,,,,,,
13,1,196,11,11,4,['d'],['d'],Y,Y,['space'],Y,,,,,,,,,
13,2,197,2,2,4,['k'],['k'],Y,Y,['space'],Y,,,,,,,,,
13,3,198,0,0,4,['d'],['k'],N,N,None,Y,,,,,,,,,
13,4,199,13,13,4,['k'],['d'],N,Y,['k'],N,44,31,25,,,,,,
13,5,200,8,8,5,['d'],['d'],Y,,,,,,,,,,,,
13,6,201,13,13,5,['d'],['d'],Y,,,,,,,,,,,,
13,7,202,6,6,5,['d'],['d'],Y,N,['space'],N,,,,,,,,,
13,8,203,13,13,5,['k'],['k'],Y,Y,None,N,,,,,,,,,
13,9,204,9,9,5,['d'],['d'],Y,N,None,Y,,,,,,,,,
13,10,205,4,4,5,['d'],['d'],Y,N,None,Y,,,,,,,,,
13,11,206,4,4,5,['d'],['d'],Y,N,['space'],N,,,,,,,,,
13,12,207,1,1,5,['k'],['k'],Y,N,None,Y,,,,,,,,,
13,13,208,1,1,5,['k'],['k'],Y,Y,['space'],Y,,,,,,,,,
13,14,209,1,1,5,['k'],['k'],Y,Y,None,N,,,,,,,,,
14,0,210,10,10,5,['k'],['k'],Y,N,None,Y,,,,,,,,,
14,1,211,14,14,5,['d'],['d'],Y,N,None,Y,,,,,,,,,
14,2,212,1,1,5,['k'],['k'],Y,Y,None,N,,,,,,,,,
14,3,213,12,12,5,['d'],['d'],Y,N,['space'],N,,,,,,,,,
14,4,214,6,6,5,['k'],['k'],Y,N,['space'],N,,,,,,,,,
14,5,215,4,4,5,['d'],['d'],Y,N,None,Y,,,,,,,,,
14,6,216,10,10,5,['k'],['k'],Y,N,['space'],N,,,,,,,,,
14,7,217,10,10,5,['k'],['k'],Y,Y,None,N,,,,,,,,,
14,8,218,1,1,5,['k'],['d'],N,N,['space'],N,,,,,,,,,
14,9,219,0,0,5,['d'],['d'],Y,N,None,Y,,,,,,,,,
14,10,220,12,12,5,['d'],['k'],N,Y,None,N,,,,,,,,,
14,11,221,3,3,5,['d'],['d'],Y,N,None,Y,,,,,,,,,
14,12,222,6,6,5,['d'],['d'],Y,N,None,Y,,,,,,,,,
14,13,223,4,4,5,['d'],['d'],Y,Y,None,N,,,,,,,,,
14,14,224,9,9,5,['d'],['k'],N,Y,['space'],Y,,,,,,,,,
15,0,225,14,14,5,['d'],['d'],Y,Y,['d'],N,,,,,,,,,
15,1,226,3,3,5,['k'],['k'],Y,N,None,Y,,,,,,,,,
15,2,227,6,6,5,['d'],['d'],Y,Y,None,N,,,,,,,,,
15,3,228,13,13,5,['k'],['k'],Y,Y,['space'],Y,,,,,,,,,
15,4,229,5,5,5,['d'],['d'],Y,N,None,Y,,,,,,,,,
15,5,230,0,0,5,['d'],['k'],N,N,None,Y,,,,,,,,,
15,6,231,5,5,5,['k'],['k'],Y,N,['space'],N,,,,,,,,,
15,7,232,5,5,5,['d'],['k'],N,Y,['space'],Y,,,,,,,,,
15,8,233,4,4,5,['k'],['k'],Y,Y,['space'],Y,,,,,,,,,
15,9,234,0,0,5,['d'],['k'],N,Y,None,N,,,,,,,,,
15,10,235,11,11,5,['d'],['d'],Y,Y,None,N,,,,,,,,,
15,11,236,11,11,5,['d'],['d'],Y,N,['space'],N,,,,,,,,,
15,12,237,1,1,5,['d'],['k'],N,N,None,Y,,,,,,,,,
15,13,238,3,3,5,['d'],['d'],Y,Y,['space'],Y,,,,,,,,,
15,14,239,1,1,5,['k'],['k'],Y,Y,['space'],Y,,,,,,,,,
16,0,240,4,4,5,['d'],['d'],Y,Y,['space'],Y,,,,,,,,,
16,1,241,2,2,5,['d'],['d'],Y,Y,['k'],N,,,,,,,,,
16,2,242,6,6,5,['d'],['d'],Y,N,None,Y,,,,,,,,,
16,3,243,9,9,5,['k'],['d'],N,Y,None,N,,,,,,,,,
16,4,244,10,10,5,['d'],['k'],N,Y,None,N,,,,,,,,,
16,5,245,5,5,5,['d'],['d'],Y,Y,['space'],Y,,,,,,,,,
16,6,246,9,9,5,['k'],['k'],Y,Y,None,N,,,,,,,,,
16,7,247,2,2,5,['d'],['k'],N,Y,['space'],Y,,,,,,,,,
16,8,248,0,0,5,['d'],['d'],Y,Y,None,N,,,,,,,,,
16,9,249,10,10,5,['d'],['d'],Y,N,None,Y,40,25,25,,,,,,
16,10,250,5,5,6,['d'],['d'],Y,,,,,,,,,,,,
16,11,251,14,14,6,['k'],['k'],Y,,,,,,,,,,,,
16,12,252,0,0,6,['d'],['k'],N,N,None,Y,,,,,,,,,
16,13,253,11,11,6,['d'],['k'],N,N,None,Y,,,,,,,,,
16,14,254,12,12,6,['d'],['k'],N,N,None,Y,,,,,,,,,
17,0,255,7,7,6,['d'],['d'],Y,N,['space'],N,,,,,,,,,
17,1,256,2,2,6,['d'],['d'],Y,N,None,Y,,,,,,,,,
17,2,257,1,1,6,['d'],['k'],N,Y,['space'],Y,,,,,,,,,
17,3,258,5,5,6,['d'],['d'],Y,Y,['space'],Y,,,,,,,,,
17,4,259,2,2,6,['k'],['k'],Y,N,['d'],N,,,,,,,,,
17,5,260,1,1,6,['k'],['k'],Y,N,None,Y,,,,,,,,,
17,6,261,14,14,6,['d'],['d'],Y,Y,None,N,,,,,,,,,
17,7,262,6,6,6,['k'],['k'],Y,Y,None,N,,,,,,,,,
17,8,263,6,6,6,['k'],['k'],Y,N,None,Y,,,,,,,,,
17,9,264,1,1,6,['k'],['k'],Y,Y,None,N,,,,,,,,,
17,10,265,0,0,6,['k'],['k'],Y,N,None,Y,,,,,,,,,
17,11,266,3,3,6,['d'],['d'],Y,N,None,Y,,,,,,,,,
17,12,267,7,7,6,['k'],['k'],Y,Y,None,N,,,,,,,,,
17,13,268,4,4,6,['k'],['k'],Y,N,['space'],N,,,,,,,,,
17,14,269,12,12,6,['d'],['d'],Y,N,None,Y,,,,,,,,,
18,0,270,5,5,6,['d'],['d'],Y,Y,['space'],Y,,,,,,,,,
18,1,271,8,8,6,['d'],['d'],Y,Y,None,N,,,,,,,,,
18,2,272,13,13,6,['k'],['k'],Y,N,None,Y,,,,,,,,,
18,3,273,2,2,6,['d'],['k'],N,Y,None,N,,,,,,,,,
18,4,274,4,4,6,['d'],['d'],Y,Y,['space'],Y,,,,,,,,,
18,5,275,4,4,6,['k'],['k'],Y,N,None,Y,,,,,,,,,
18,6,276,11,11,6,['k'],['k'],Y,N,['space'],N,,,,,,,,,
18,7,277,4,4,6,['k'],['k'],Y,N,None,Y,,,,,,,,,
18,8,278,5,5,6,['d'],['d'],Y,N,None,Y,,,,,,,,,
18,9,279,6,6,6,['d'],['d'],Y,N,None,Y,,,,,,,,,
18,10,280,9,9,6,['d'],['d'],Y,Y,['space'],Y,,,,,,,,,
18,11,281,9,9,6,['k'],['k'],Y,N,None,Y,,,,,,,,,
18,12,282,3,3,6,['d'],['d'],Y,N,['space'],N,,,,,,,,,
18,13,283,7,7,6,['d'],['d'],Y,N,['space'],N,,,,,,,,,
18,14,284,3,3,6,['d'],['k'],N,N,['space'],N,,,,,,,,,
19,0,285,12,12,6,['d'],['k'],N,N,None,Y,,,,,,,,,
19,1,286,14,14,6,['k'],['k'],Y,Y,['space'],Y,,,,,,,,,
19,2,287,12,12,6,['d'],['k'],N,Y,['space'],Y,,,,,,,,,
19,3,288,6,6,6,['k'],['k'],Y,Y,['space'],Y,,,,,,,,,
19,4,289,13,13,6,['d'],['k'],N,Y,None,N,,,,,,,,,
19,5,290,11,11,6,['k'],['k'],Y,Y,None,N,,,,,,,,,
19,6,291,8,8,6,['d'],['d'],Y,N,None,Y,,,,,,,,,
19,7,292,0,0,6,['k'],['k'],Y,N,None,Y,,,,,,,,,
19,8,293,10,10,6,['d'],['d'],Y,Y,None,N,,,,,,,,,
19,9,294,6,6,6,['k'],['k'],Y,Y,None,N,,,,,,,,,
19,10,295,7,7,6,['k'],['d'],N,N,None,Y,,,,,,,,,
19,11,296,8,8,6,['k'],['k'],Y,N,None,Y,,,,,,,,,
19,12,297,8,8,6,['k'],['k'],Y,N,None,Y,,,,,,,,,
19,13,298,0,0,6,['k'],['d'],N,Y,None,N,,,,,,,,,
19,14,299,14,14,6,['d'],['d'],Y,N,None,Y,39,30,19,,,,,,
20,0,300,3,3,7,['d'],['d'],Y,,,,,,,,,,,,
20,1,301,13,13,7,['k'],['k'],Y,,,,,,,,,,,,
20,2,302,4,4,7,['d'],['d'],Y,N,None,Y,,,,,,,,,
20,3,303,8,8,7,['d'],['d'],Y,Y,None,N,,,,,,,,,
20,4,304,8,8,7,['d'],['d'],Y,N,None,Y,,,,,,,,,
20,5,305,11,11,7,['k'],['k'],Y,Y,None,N,,,,,,,,,
20,6,306,13,13,7,['d'],['d'],Y,Y,None,N,,,,,,,,,
20,7,307,8,8,7,['d'],['d'],Y,N,None,Y,,,,,,,,,
20,8,308,9,9,7,['d'],['d'],Y,Y,None,N,,,,,,,,,
20,9,309,11,11,7,['k'],['k'],Y,N,['space'],N,,,,,,,,,
20,10,310,8,8,7,['d'],['d'],Y,N,None,Y,,,,,,,,,
20,11,311,2,2,7,['k'],['k'],Y,N,None,Y,,,,,,,,,
20,12,312,12,12,7,['k'],['k'],Y,N,None,Y,,,,,,,,,
20,13,313,6,6,7,['d'],['d'],Y,Y,None,N,,,,,,,,,
20,14,314,6,6,7,['d'],['d'],Y,N,None,Y,,,,,,,,,
21,0,315,3,3,7,['k'],['k'],Y,Y,['space'],Y,,,,,,,,,
21,1,316,4,4,7,['k'],['k'],Y,Y,['space'],Y,,,,,,,,,
21,2,317,5,5,7,['k'],['k'],Y,Y,None,N,,,,,,,,,
21,3,318,7,7,7,['k'],['k'],Y,N,None,Y,,,,,,,,,
21,4,319,2,2,7,['d'],['d'],Y,Y,None,N,,,,,,,,,
21,5,320,1,1,7,['d'],['d'],Y,N,None,Y,,,,,,,,,
21,6,321,7,7,7,['d'],['d'],Y,Y,None,N,,,,,,,,,
21,7,322,13,13,7,['d'],['d'],Y,Y,None,N,,,,,,,,,
21,8,323,12,12,7,['d'],['d'],Y,Y,None,N,,,,,,,,,
21,9,324,3,3,7,['d'],['d'],Y,Y,['space'],Y,,,,,,,,,
21,10,325,7,7,7,['k'],['k'],Y,Y,['space'],Y,,,,,,,,,
21,11,326,10,10,7,['d'],['d'],Y,Y,None,N,,,,,,,,,
21,12,327,3,3,7,['k'],['k'],Y,Y,None,N,,,,,,,,,
21,13,328,4,4,7,['k'],['k'],Y,Y,['space'],Y,,,,,,,,,
21,14,329,9,9,7,['d'],['d'],Y,N,['d'],N,,,,,,,,,
22,0,330,4,4,7,['d'],['d'],Y,N,None,Y,,,,,,,,,
22,1,331,5,5,7,['k'],['k'],Y,N,['space'],N,,,,,,,,,
22,2,332,1,1,7,['d'],['d'],Y,Y,['space'],Y,,,,,,,,,
22,3,333,2,2,7,['k'],['k'],Y,N,['space'],N,,,,,,,,,
22,4,334,6,6,7,['d'],['d'],Y,N,['space'],N,,,,,,,,,
22,5,335,0,0,7,['k'],['k'],Y,Y,None,N,,,,,,,,,
22,6,336,7,7,7,['k'],['k'],Y,Y,None,N,,,,,,,,,
22,7,337,5,5,7,['k'],['k'],Y,N,None,Y,,,,,,,,,
22,8,338,12,12,7,['d'],['d'],Y,N,['d'],N,,,,,,,,,
22,9,339,8,8,7,['k'],['k'],Y,Y,['space'],Y,,,,,,,,,
22,10,340,6,6,7,['d'],['d'],Y,Y,['space'],Y,,,,,,,,,
22,11,341,8,8,7,['d'],['d'],Y,Y,['space'],Y,,,,,,,,,
22,12,342,6,6,7,['d'],['d'],Y,N,None,Y,,,,,,,,,
22,13,343,1,1,7,['d'],['k'],N,Y,None,N,,,,,,,,,
22,14,344,4,4,7,['d'],['d'],Y,Y,['space'],Y,,,,,,,,,
23,0,345,5,5,7,['d'],['d'],Y,N,None,Y,,,,,,,,,
23,1,346,14,14,7,['d'],['d'],Y,N,['space'],N,,,,,,,,,
23,2,347,6,6,7,['k'],['k'],Y,N,None,Y,,,,,,,,,
23,3,348,7,7,7,['k'],['k'],Y,N,['space'],N,,,,,,,,,
23,4,349,3,3,7,['d'],['d'],Y,N,['space'],N,49,24,25,,,,,,
23,5,350,1,1,8,['d'],['d'],Y,,,,,,,,,,,,
23,6,351,8,8,8,['k'],['k'],Y,,,,,,,,,,,,
23,7,352,11,11,8,['d'],['d'],Y,Y,['space'],Y,,,,,,,,,
23,8,353,0,0,8,['d'],['d'],Y,Y,['space'],Y,,,,,,,,,
23,9,354,8,8,8,['d'],['d'],Y,N,['space'],N,,,,,,,,,
23,10,355,9,9,8,['d'],['k'],N,Y,None,N,,,,,,,,,
23,11,356,11,11,8,['d'],['k'],N,N,None,Y,,,,,,,,,
23,12,357,9,9,8,['d'],['k'],N,N,None,Y,,,,,,,,,
23,13,358,5,5,8,['k'],['k'],Y,N,None,Y,,,,,,,,,
23,14,359,12,12,8,['d'],['k'],N,Y,None,N,,,,,,,,,
24,0,360,5,5,8,['d'],['d'],Y,N,['space'],N,,,,,,,,,
24,1,361,7,7,8,['d'],['d'],Y,Y,['space'],Y,,,,,,,,,
24,2,362,10,10,8,['d'],['d'],Y,N,['space'],N,,,,,,,,,
24,3,363,5,5,8,['d'],['d'],Y,N,None,Y,,,,,,,,,
24,4,364,2,2,8,['k'],['k'],Y,N,None,Y,,,,,,,,,
24,5,365,12,12,8,['k'],['k'],Y,Y,None,N,,,,,,,,,
24,6,366,8,8,8,['k'],['k'],Y,N,None,Y,,,,,,,,,
24,7,367,3,3,8,['d'],['d'],Y,Y,['space'],Y,,,,,,,,,
24,8,368,3,3,8,['d'],['d'],Y,N,['space'],N,,,,,,,,,
24,9,369,7,7,8,['k'],['k'],Y,N,None,Y,,,,,,,,,
24,10,370,10,10,8,['k'],['k'],Y,Y,None,N,,,,,,,,,
24,11,371,2,2,8,['k'],['k'],Y,Y,None,N,,,,,,,,,
24,12,372,13,13,8,['d'],['d'],Y,Y,None,N,,,,,,,,,
24,13,373,9,9,8,['k'],['k'],Y,Y,None,N,,,,,,,,,
24,14,374,13,13,8,['d'],['d'],Y,Y,['space'],Y,,,,,,,,,
25,0,375,14,14,8,['d'],['d'],Y,Y,['space'],Y,,,,,,,,,
25,1,376,12,12,8,['k'],['k'],Y,N,['space'],N,,,,,,,,,
25,2,377,2,2,8,['d'],['k'],N,N,None,Y,,,,,,,,,
25,3,378,5,5,8,['k'],['k'],Y,Y,['d'],N,,,,,,,,,
25,4,379,0,0,8,['d'],['d'],Y,N,['space'],N,,,,,,,,,
25,5,380,14,14,8,['d'],['d'],Y,Y,['space'],Y,,,,,,,,,
25,6,381,7,7,8,['k'],['k'],Y,Y,['space'],Y,,,,,,,,,
25,7,382,5,5,8,['d'],['d'],Y,N,['space'],N,,,,,,,,,
25,8,383,14,14,8,['k'],['k'],Y,Y,['space'],Y,,,,,,,,,
25,9,384,7,7,8,['k'],['k'],Y,Y,None,N,,,,,,,,,
25,10,385,3,3,8,['k'],['k'],Y,Y,['space'],Y,,,,,,,,,
25,11,386,2,2,8,['d'],['d'],Y,N,None,Y,,,,,,,,,
25,12,387,10,10,8,['d'],['d'],Y,N,None,Y,,,,,,,,,
25,13,388,1,1,8,['d'],['d'],Y,N,None,Y,,,,,,,,,
25,14,389,7,7,8,['k'],['k'],Y,N,['space'],N,,,,,,,,,
26,0,390,9,9,8,['k'],['k'],Y,Y,None,N,,,,,,,,,
26,1,391,10,10,8,['d'],['k'],N,Y,None,N,,,,,,,,,
26,2,392,14,14,8,['d'],['d'],Y,Y,None,N,,,,,,,,,
26,3,393,13,13,8,['k'],['k'],Y,Y,['d'],N,,,,,,,,,
26,4,394,11,11,8,['d'],['d'],Y,Y,['space'],Y,,,,,,,,,
26,5,395,9,9,8,['k'],['k'],Y,N,['space'],N,,,,,,,,,
26,6,396,4,4,8,['k'],['k'],Y,N,['space'],N,,,,,,,,,
26,7,397,0,0,8,['d'],['d'],Y,Y,None,N,,,,,,,,,
26,8,398,2,2,8,['d'],['k'],N,N,['space'],N,,,,,,,,,
26,9,399,5,5,8,['d'],['d'],Y,N,None,Y,43,23,25,,,,,,
26,10,400,6,6,9,['k'],['k'],Y,,,,,,,,,,,,
26,11,401,12,12,9,['k'],['k'],Y,,,,,,,,,,,,
26,12,402,3,3,9,['k'],['k'],Y,N,['space'],N,,,,,,,,,
26,13,403,9,9,9,['d'],['d'],Y,Y,['space'],Y,,,,,,,,,
26,14,404,13,13,9,['d'],['k'],N,Y,['space'],Y,,,,,,,,,
27,0,405,7,7,9,['k'],['k'],Y,N,['space'],N,,,,,,,,,
27,1,406,7,7,9,['d'],['d'],Y,Y,['d'],N,,,,,,,,,
27,2,407,2,2,9,['d'],['d'],Y,N,None,Y,,,,,,,,,
27,3,408,9,9,9,['k'],['k'],Y,Y,None,N,,,,,,,,,
27,4,409,3,3,9,['d'],['k'],N,Y,None,N,,,,,,,,,
27,5,410,8,8,9,['d'],['d'],Y,N,None,Y,,,,,,,,,
27,6,411,3,3,9,['k'],['k'],Y,N,None,Y,,,,,,,,,
27,7,412,12,12,9,['k'],['k'],Y,N,None,Y,,,,,,,,,
27,8,413,0,0,9,['d'],['d'],Y,N,['space'],N,,,,,,,,,
27,9,414,9,9,9,['k'],['d'],N,Y,['space'],Y,,,,,,,,,
27,10,415,5,5,9,['d'],['d'],Y,N,None,Y,,,,,,,,,
27,11,416,13,13,9,['k'],['k'],Y,Y,None,N,,,,,,,,,
27,12,417,13,13,9,['d'],['d'],Y,Y,['space'],Y,,,,,,,,,
27,13,418,10,10,9,['k'],['k'],Y,N,['space'],N,,,,,,,,,
27,14,419,8,8,9,['k'],['k'],Y,N,['space'],N,,,,,,,,,
28,0,420,4,4,9,['d'],['d'],Y,Y,None,N,,,,,,,,,
28,1,421,11,11,9,['k'],['k'],Y,N,None,Y,,,,,,,,,
28,2,422,14,14,9,['k'],['k'],Y,N,None,Y,,,,,,,,,
28,3,423,6,6,9,['d'],['k'],N,Y,None,N,,,,,,,,,
28,4,424,5,5,9,['k'],['k'],Y,N,['space'],N,,,,,,,,,
28,5,425,7,7,9,['k'],['k'],Y,Y,['space'],Y,,,,,,,,,
28,6,426,10,10,9,['d'],['k'],N,Y,None,N,,,,,,,,,
28,7,427,0,0,9,['d'],['d'],Y,Y,['space'],Y,,,,,,,,,
28,8,428,13,13,9,['d'],['d'],Y,N,None,Y,,,,,,,,,
28,9,429,2,2,9,['d'],['d'],Y,N,['space'],N,,,,,,,,,
28,10,430,11,11,9,['k'],['k'],Y,N,['space'],N,,,,,,,,,
28,11,431,13,13,9,['k'],['k'],Y,Y,None,N,,,,,,,,,
28,12,432,6,6,9,['k'],['k'],Y,N,None,Y,,,,,,,,,
28,13,433,9,9,9,['d'],['k'],N,N,None,Y,,,,,,,,,
28,14,434,0,0,9,['d'],['k'],N,N,None,Y,,,,,,,,,
29,0,435,3,3,9,['k'],['k'],Y,Y,None,N,,,,,,,,,
29,1,436,5,5,9,['d'],['d'],Y,N,None,Y,,,,,,,,,
29,2,437,13,13,9,['k'],['k'],Y,Y,['space'],Y,,,,,,,,,
29,3,438,11,11,9,['k'],['k'],Y,N,None,Y,,,,,,,,,
29,4,439,3,3,9,['d'],['d'],Y,Y,None,N,,,,,,,,,
29,5,440,3,3,9,['k'],['k'],Y,N,None,Y,,,,,,,,,
29,6,441,1,1,9,['d'],['k'],N,Y,['space'],Y,,,,,,,,,
29,7,442,7,7,9,['d'],['d'],Y,Y,['space'],Y,,,,,,,,,
29,8,443,13,13,9,['d'],['d'],Y,N,None,Y,,,,,,,,,
29,9,444,14,14,9,['d'],['d'],Y,N,None,Y,,,,,,,,,
29,10,445,8,8,9,['d'],['d'],Y,N,['space'],N,,,,,,,,,
29,11,446,7,7,9,['k'],['k'],Y,N,None,Y,,,,,,,,,
29,12,447,2,2,9,['k'],['k'],Y,Y,None,N,,,,,,,,,
29,13,448,9,9,9,['k'],['k'],Y,N,None,Y,,,,,,,,,
29,14,449,3,3,9,['k'],['k'],Y,N,None,Y,42,28,20,,,,,,
30,0,450,10,10,10,['d'],['d'],Y,,,,,,,,,,,,
30,1,451,8,8,10,['d'],['d'],Y,,,,,,,,,,,,
30,2,452,0,0,10,['d'],['d'],Y,Y,None,N,,,,,,,,,
30,3,453,7,7,10,['d'],['d'],Y,Y,None,N,,,,,,,,,
30,4,454,6,6,10,['k'],['k'],Y,Y,None,N,,,,,,,,,
30,5,455,10,10,10,['d'],['d'],Y,Y,['space'],Y,,,,,,,,,
30,6,456,9,9,10,['k'],['k'],Y,Y,['space'],Y,,,,,,,,,
30,7,457,12,12,10,['d'],['d'],Y,Y,['space'],Y,,,,,,,,,
30,8,458,1,1,10,['d'],['d'],Y,N,None,Y,,,,,,,,,
30,9,459,9,9,10,['d'],['d'],Y,Y,None,N,,,,,,,,,
30,10,460,12,12,10,['d'],['d'],Y,Y,['space'],Y,,,,,,,,,
30,11,461,13,13,10,['k'],['k'],Y,N,None,Y,,,,,,,,,
30,12,462,14,14,10,['d'],['d'],Y,Y,None,N,,,,,,,,,
30,13,463,4,4,10,['d'],['d'],Y,Y,None,N,,,,,,,,,
30,14,464,14,14,10,['d'],['d'],Y,N,None,Y,,,,,,,,,
31,0,465,12,12,10,['d'],['d'],Y,N,None,Y,,,,,,,,,
31,1,466,0,0,10,['k'],['k'],Y,N,None,Y,,,,,,,,,
31,2,467,14,14,10,['d'],['k'],N,N,['space'],N,,,,,,,,,
31,3,468,0,0,10,['k'],['k'],Y,N,None,Y,,,,,,,,,
31,4,469,6,6,10,['d'],['k'],N,Y,None,N,,,,,,,,,
31,5,470,10,10,10,['d'],['d'],Y,N,None,Y,,,,,,,,,
31,6,471,6,6,10,['d'],['d'],Y,N,['space'],N,,,,,,,,,
31,7,472,14,14,10,['d'],['d'],Y,N,['space'],N,,,,,,,,,
31,8,473,6,6,10,['d'],['d'],Y,N,None,Y,,,,,,,,,
31,9,474,11,11,10,['k'],['k'],Y,N,None,Y,,,,,,,,,
31,10,475,0,0,10,['d'],['d'],Y,Y,['space'],Y,,,,,,,,,
31,11,476,8,8,10,['d'],['d'],Y,N,None,Y,,,,,,,,,
31,12,477,13,13,10,['d'],['d'],Y,Y,None,N,,,,,,,,,
31,13,478,1,1,10,['k'],['k'],Y,Y,['space'],Y,,,,,,,,,
31,14,479,7,7,10,['d'],['d'],Y,Y,['space'],Y,,,,,,,,,
32,0,480,4,4,10,['k'],['k'],Y,N,None,Y,,,,,,,,,
32,1,481,2,2,10,['d'],['d'],Y,N,['space'],N,,,,,,,,,
32,2,482,13,13,10,['k'],['k'],Y,Y,['space'],Y,,,,,,,,,
32,3,483,1,1,10,['d'],['d'],Y,Y,['space'],Y,,,,,,,,,
32,4,484,0,0,10,['d'],['d'],Y,N,['space'],N,,,,,,,,,
32,5,485,8,8,10,['d'],['d'],Y,N,['space'],N,,,,,,,,,
32,6,486,7,7,10,['k'],['k'],Y,Y,None,N,,,,,,,,,
32,7,487,3,3,10,['d'],['k'],N,N,['space'],N,,,,,,,,,
32,8,488,10,10,10,['d'],['d'],Y,Y,['space'],Y,,,,,,,,,
32,9,489,1,1,10,['d'],['k'],N,N,['space'],N,,,,,,,,,
32,10,490,13,13,10,['k'],['k'],Y,N,['space'],N,,,,,,,,,
32,11,491,12,12,10,['d'],['d'],Y,N,['space'],N,,,,,,,,,
32,12,492,5,5,10,['k'],['d'],N,N,['space'],N,,,,,,,,,
32,13,493,11,11,10,['d'],['d'],Y,N,['space'],N,,,,,,,,,
32,14,494,11,11,10,['k'],['k'],Y,N,['space'],N,,,,,,,,,
33,0,495,11,11,10,['d'],['d'],Y,Y,None,N,,,,,,,,,
33,1,496,9,9,10,['k'],['d'],N,N,None,Y,,,,,,,,,
33,2,497,12,12,10,['d'],['d'],Y,Y,['space'],Y,,,,,,,,,
33,3,498,10,10,10,['d'],['d'],Y,N,None,Y,,,,,,,,,
33,4,499,10,10,10,['k'],['k'],Y,N,None,Y,44,25,21,,,,,,
33,5,500,10,10,11,['d'],['d'],N,,,,,,,Y,Y,Y,,,
33,6,501,2,2,11,['d'],['k'],Y,,,,,,,,Y,Y,,,
33,7,502,3,3,11,['k'],['d'],Y,N,None,Y,,,,,Y,Y,,,
33,8,503,2,2,11,['d'],['k'],Y,Y,['space'],Y,,,,,Y,Y,,,
33,9,504,14,14,11,['k'],['d'],Y,N,['space'],N,,,,,Y,Y,,,
33,10,505,4,4,11,['k'],['d'],Y,Y,['space'],Y,,,,,Y,Y,,,
33,11,506,12,12,11,['d'],['d'],N,Y,['space'],Y,,,,,Y,Y,,,
33,12,507,0,0,11,['d'],['k'],Y,N,['space'],N,,,,,Y,Y,,,
33,13,508,9,9,11,['k'],['d'],Y,Y,None,N,,,,,Y,Y,,,
33,14,509,8,8,11,['d'],['k'],Y,N,['space'],N,,,,,Y,Y,,,
34,0,510,8,8,11,['k'],['d'],Y,N,None,Y,,,,,Y,Y,,,
34,1,511,4,4,11,['d'],['k'],Y,Y,None,N,,,,,Y,Y,,,
34,2,512,12,12,11,['k'],['d'],Y,Y,None,N,,,,,Y,Y,,,
34,3,513,9,9,11,['d'],['k'],Y,Y,['space'],Y,,,,,Y,Y,,,
34,4,514,6,6,11,['k'],['d'],Y,N,['space'],N,,,,,Y,Y,,,
34,5,515,2,2,11,['d'],['k'],Y,Y,['space'],Y,,,,,Y,Y,,,
34,6,516,13,13,11,['k'],['d'],Y,Y,['space'],Y,,,,,Y,Y,,,
34,7,517,14,14,11,['d'],['k'],Y,Y,None,N,,,,,Y,Y,,,
34,8,518,13,13,11,['k'],['d'],Y,N,None,Y,,,,,Y,Y,,,
34,9,519,1,1,11,['d'],['k'],Y,Y,['space'],Y,,,,,Y,Y,,,
34,10,520,14,14,11,['k'],['d'],Y,Y,None,N,,,,,Y,Y,,,
34,11,521,11,11,11,None,,Timed out,Y,None,N,,,,,Y,Y,,,
34,12,522,1,1,11,['d'],['k'],Y,Y,['space'],Y,,,,,Y,Y,,,
34,13,523,9,9,11,['k'],['d'],Y,N,['space'],N,,,,,Y,Y,,,
34,14,524,14,14,11,['d'],['k'],Y,N,None,Y,,,,,Y,Y,,,
35,0,525,14,14,11,['k'],['d'],Y,N,['space'],N,,,,,Y,Y,,,
35,1,526,5,5,11,['d'],['k'],Y,Y,None,N,,,,,Y,Y,,,
35,2,527,4,4,11,['k'],['d'],Y,N,['space'],N,,,,,Y,Y,,,
35,3,528,0,0,11,['k'],['d'],Y,N,['space'],N,,,,,Y,Y,,,
35,4,529,1,1,11,['d'],['k'],Y,Y,['space'],Y,,,,,Y,Y,,,
35,5,530,4,4,11,None,,Timed out,N,['space'],N,,,,,Y,Y,,,
35,6,531,13,13,11,['d'],['k'],Y,Y,None,N,,,,,Y,Y,,,
35,7,532,14,14,11,['d'],['d'],N,Y,['space'],Y,,,,,Y,Y,,,
35,8,533,9,9,11,['d'],['d'],N,N,['space'],N,,,,,Y,Y,,,
35,9,534,9,9,11,['k'],['d'],Y,Y,None,N,,,,,Y,Y,,,
35,10,535,13,13,11,['d'],['k'],Y,N,['space'],N,,,,,Y,Y,,,
35,11,536,12,12,11,['d'],['k'],Y,Y,['space'],Y,,,,,Y,Y,,,
35,12,537,10,10,11,['d'],['k'],Y,N,None,Y,,,,,Y,Y,,,
35,13,538,13,13,11,['k'],['d'],Y,N,['space'],N,,,,,Y,Y,,,
35,14,539,2,2,11,['d'],['k'],Y,N,None,Y,,,,,Y,Y,,,
36,0,540,0,0,11,['d'],['k'],Y,Y,['k'],N,,,,,Y,Y,,,
36,1,541,2,2,11,['k'],['d'],Y,Y,['space'],Y,,,,,Y,Y,,,
36,2,542,5,5,11,['d'],['k'],Y,Y,None,N,,,,,Y,Y,,,
36,3,543,2,2,11,['k'],['d'],Y,Y,['space'],Y,,,,,Y,Y,,,
36,4,544,3,3,11,['k'],['d'],Y,N,['space'],N,,,,,Y,Y,,,
36,5,545,0,0,11,['d'],['k'],Y,Y,['space'],Y,,,,,Y,Y,,,
36,6,546,7,7,11,['k'],['d'],Y,N,['space'],N,,,,,Y,Y,,,
36,7,547,6,6,11,['d'],['d'],N,N,['space'],N,,,,,Y,Y,,,
36,8,548,7,7,11,['k'],['d'],Y,N,['space'],N,,,,,Y,Y,,,
36,9,549,11,11,11,['d'],['k'],Y,N,['space'],N,43,20,25,,Y,Y,,,
36,10,550,2,2,12,['k'],['d'],Y,,,,,,,,Y,Y,,,
36,11,551,4,4,12,['d'],['k'],Y,,,,,,,,Y,Y,,,
36,12,552,11,11,12,['k'],['d'],Y,N,None,Y,,,,,Y,Y,,,
36,13,553,10,10,12,['k'],['d'],Y,N,['space'],N,,,,,Y,Y,,,
36,14,554,11,11,12,['k'],['d'],Y,Y,['space'],Y,,,,,Y,Y,,,
37,0,555,1,1,12,['k'],['d'],Y,Y,['space'],Y,,,,,Y,Y,,,
37,1,556,13,13,12,['k'],['d'],Y,Y,None,N,,,,,Y,Y,,,
37,2,557,7,7,12,['k'],['d'],Y,N,None,Y,,,,,Y,Y,,,
37,3,558,1,1,12,['k'],['d'],Y,Y,['space'],Y,,,,,Y,Y,,,
37,4,559,3,3,12,['k'],['d'],Y,Y,['space'],Y,,,,,Y,Y,,,
37,5,560,7,7,12,['d'],['k'],Y,N,['space'],N,,,,,Y,Y,,,
37,6,561,8,8,12,['d'],['k'],Y,N,None,Y,,,,,Y,Y,,,
37,7,562,7,7,12,['d'],['k'],Y,Y,None,N,,,,,Y,Y,,,
37,8,563,2,2,12,['d'],['k'],Y,N,None,Y,,,,,Y,Y,,,
37,9,564,6,6,12,['d'],['k'],Y,N,None,Y,,,,,Y,Y,,,
37,10,565,14,14,12,['d'],['k'],Y,Y,['space'],Y,,,,,Y,Y,,,
37,11,566,14,14,12,None,,Timed out,N,None,Y,,,,,Y,Y,,,
37,12,567,8,8,12,['d'],['k'],Y,Y,None,N,,,,,Y,Y,,,
37,13,568,12,12,12,['d'],['k'],Y,Y,None,N,,,,,Y,Y,,,
37,14,569,6,6,12,['d'],['k'],Y,N,['d'],N,,,,,Y,Y,,,
38,0,570,7,7,12,['k'],['d'],Y,N,['space'],N,,,,,Y,Y,,,
38,1,571,5,5,12,['k'],['d'],Y,N,['space'],N,,,,,Y,Y,,,
38,2,572,3,3,12,['d'],['k'],Y,N,['space'],N,,,,,Y,Y,,,
38,3,573,0,0,12,['d'],['k'],Y,Y,None,N,,,,,Y,Y,,,
38,4,574,1,1,12,['d'],['k'],Y,N,['space'],N,,,,,Y,Y,,,
38,5,575,12,12,12,['d'],['k'],Y,Y,['space'],Y,,,,,Y,Y,,,
38,6,576,11,11,12,['k'],['d'],Y,N,['space'],N,,,,,Y,Y,,,
38,7,577,9,9,12,['d'],['k'],Y,N,None,Y,,,,,Y,Y,,,
38,8,578,2,2,12,['k'],['d'],Y,N,None,Y,,,,,Y,Y,,,
38,9,579,8,8,12,['d'],['k'],Y,Y,['space'],Y,,,,,Y,Y,,,
38,10,580,1,1,12,['d'],['k'],Y,Y,['space'],Y,,,,,Y,Y,,,
38,11,581,11,11,12,['d'],['k'],Y,N,['space'],N,,,,,Y,Y,,,
38,12,582,8,8,12,['d'],['k'],Y,Y,['space'],Y,,,,,Y,Y,,,
38,13,583,3,3,12,['d'],['k'],Y,N,None,Y,,,,,Y,Y,,,
38,14,584,10,10,12,['d'],['k'],Y,Y,['space'],Y,,,,,Y,Y,,,
39,0,585,5,5,12,['d'],['k'],Y,Y,None,N,,,,,Y,Y,,,
39,1,586,11,11,12,['d'],['k'],Y,N,['space'],N,,,,,Y,Y,,,
39,2,587,12,12,12,['d'],['k'],Y,N,['d'],N,,,,,Y,Y,,,
39,3,588,12,12,12,['k'],['d'],Y,N,['space'],N,,,,,Y,Y,,,
39,4,589,12,12,12,['k'],['d'],Y,N,['space'],N,,,,,Y,Y,,,
39,5,590,1,1,12,['k'],['d'],Y,Y,['space'],Y,,,,,Y,Y,,,
39,6,591,10,10,12,['d'],['k'],Y,N,None,Y,,,,,Y,Y,,,
39,7,592,2,2,12,['d'],['k'],Y,Y,None,N,,,,,Y,Y,,,
39,8,593,6,6,12,['d'],['k'],Y,Y,['space'],Y,,,,,Y,Y,,,
39,9,594,4,4,12,['k'],['d'],Y,Y,['space'],Y,,,,,Y,Y,,,
39,10,595,1,1,12,['k'],['d'],Y,N,['space'],N,,,,,Y,Y,,,
39,11,596,3,3,12,['d'],['k'],Y,N,['space'],N,,,,,Y,Y,,,
39,12,597,2,2,12,['d'],['k'],Y,Y,['space'],Y,,,,,Y,Y,,,
39,13,598,0,0,12,['d'],['k'],Y,N,None,Y,,,,,Y,Y,,,
39,14,599,8,8,12,['d'],['k'],Y,Y,None,N,49,25,22,,Y,Y,,,
