.thisRepN,.thisTrialN,.thisN,.thisIndex,.thisTrial,Block Number,Key pressed,Correct?,Category,Int Match?,Int Response,Int Correct?,Line Accuracy,Interference Accuracy,Matching Interferences,New instruction shown?,Buttons switched?,Fast?,gender,age,
0,0,0,14,14,1,None,Timed out,,,,,,,,,,,F,22,
0,1,1,0,0,1,['k'],Y,['k'],,,,,,,,,,F,22,
0,2,2,4,4,1,['d'],N,['k'],Y,None,N,,,,,,,F,22,
0,3,3,4,4,1,['d'],Y,['d'],N,None,Y,,,,,,,F,22,
0,4,4,1,1,1,['d'],N,['k'],Y,None,N,,,,,,,F,22,
0,5,5,13,13,1,['k'],Y,['k'],Y,['space'],Y,,,,,,,F,22,
0,6,6,12,12,1,['d'],N,['k'],Y,None,N,,,,,,,F,22,
0,7,7,3,3,1,['k'],N,['d'],Y,None,N,,,,,,,F,22,
0,8,8,8,8,1,['d'],N,['k'],N,None,Y,,,,,,,F,22,
0,9,9,10,10,1,['k'],Y,['k'],N,None,Y,,,,,,,F,22,
0,10,10,4,4,1,['d'],N,['k'],Y,None,N,,,,,,,F,22,
0,11,11,12,12,1,['d'],N,['k'],Y,None,N,,,,,,,F,22,
0,12,12,2,2,1,['k'],Y,['k'],N,None,Y,,,,,,,F,22,
0,13,13,14,14,1,['k'],Y,['k'],N,None,Y,,,,,,,F,22,
0,14,14,2,2,1,['k'],N,['d'],Y,None,N,,,,,,,F,22,
1,0,15,13,13,1,['k'],N,['d'],Y,['space'],Y,,,,,,,F,22,
1,1,16,14,14,1,['k'],Y,['k'],Y,['space'],Y,,,,,,,F,22,
1,2,17,1,1,1,['d'],Y,['d'],Y,None,N,,,,,,,F,22,
1,3,18,10,10,1,['k'],N,['d'],N,None,Y,,,,,,,F,22,
1,4,19,13,13,1,['d'],Y,['d'],Y,None,N,,,,,,,F,22,
1,5,20,7,7,1,['k'],Y,['k'],Y,None,N,,,,,,,F,22,
1,6,21,11,11,1,['d'],Y,['d'],N,None,Y,,,,,,,F,22,
1,7,22,11,11,1,['d'],Y,['d'],Y,None,N,,,,,,,F,22,
1,8,23,14,14,1,['k'],N,['d'],N,None,Y,,,,,,,F,22,
1,9,24,9,9,1,['d'],N,['k'],Y,None,N,,,,,,,F,22,
1,10,25,2,2,1,['k'],N,['d'],Y,['space'],Y,,,,,,,F,22,
1,11,26,7,7,1,['d'],Y,['d'],Y,None,N,,,,,,,F,22,
1,12,27,6,6,1,['d'],Y,['d'],N,None,Y,,,,,,,F,22,
1,13,28,7,7,1,['d'],N,['k'],Y,None,N,,,,,,,F,22,
1,14,29,14,14,1,['d'],Y,['d'],Y,None,N,,,,,,,F,22,
2,0,30,10,10,1,['k'],Y,['k'],Y,None,N,,,,,,,F,22,
2,1,31,7,7,1,['d'],Y,['d'],N,None,Y,,,,,,,F,22,
2,2,32,12,12,1,['d'],Y,['d'],N,None,Y,,,,,,,F,22,
2,3,33,1,1,1,['k'],N,['d'],Y,None,N,,,,,,,F,22,
2,4,34,11,11,1,['d'],Y,['d'],N,None,Y,,,,,,,F,22,
2,5,35,11,11,1,['d'],N,['k'],Y,None,N,,,,,,,F,22,
2,6,36,3,3,1,['k'],Y,['k'],N,None,Y,,,,,,,F,22,
2,7,37,4,4,1,['d'],N,['k'],N,None,Y,,,,,,,F,22,
2,8,38,7,7,1,['k'],Y,['k'],Y,None,N,,,,,,,F,22,
2,9,39,14,14,1,['d'],N,['k'],Y,None,N,,,,,,,F,22,
2,10,40,13,13,1,['k'],Y,['k'],N,None,Y,,,,,,,F,22,
2,11,41,1,1,1,['d'],Y,['d'],Y,None,N,,,,,,,F,22,
2,12,42,3,3,1,['d'],Y,['d'],N,None,Y,,,,,,,F,22,
2,13,43,12,12,1,['d'],N,['k'],N,None,Y,,,,,,,F,22,
2,14,44,1,1,1,['k'],Y,['k'],N,None,Y,,,,,,,F,22,
3,0,45,6,6,1,['d'],N,['k'],N,None,Y,,,,,,,F,22,
3,1,46,5,5,1,['k'],Y,['k'],N,None,Y,,,,,,,F,22,
3,2,47,4,4,1,['d'],Y,['d'],N,None,Y,,,,,,,F,22,
3,3,48,11,11,1,['k'],Y,['k'],N,None,Y,,,,,,,F,22,
3,4,49,3,3,1,['k'],N,['d'],N,None,Y,28,27,25,,,,F,22,
3,5,50,4,4,2,['k'],N,['d'],,,,,,,,,,F,22,
3,6,51,9,9,2,['k'],N,['d'],,,,,,,,,,F,22,
3,7,52,4,4,2,['d'],Y,['d'],Y,['space'],Y,,,,,,,F,22,
3,8,53,7,7,2,['k'],Y,['k'],Y,None,N,,,,,,,F,22,
3,9,54,3,3,2,['k'],Y,['k'],Y,None,N,,,,,,,F,22,
3,10,55,8,8,2,['d'],Y,['d'],Y,None,N,,,,,,,F,22,
3,11,56,6,6,2,['k'],Y,['k'],N,None,Y,,,,,,,F,22,
3,12,57,5,5,2,['d'],Y,['d'],N,None,Y,,,,,,,F,22,
3,13,58,1,1,2,['k'],Y,['k'],N,None,Y,,,,,,,F,22,
3,14,59,8,8,2,['d'],Y,['d'],Y,None,N,,,,,,,F,22,
4,0,60,12,12,2,['k'],Y,['k'],Y,None,N,,,,,,,F,22,
4,1,61,7,7,2,['d'],Y,['d'],N,None,Y,,,,,,,F,22,
4,2,62,5,5,2,['d'],N,['k'],Y,None,N,,,,,,,F,22,
4,3,63,10,10,2,['d'],N,['k'],Y,None,N,,,,,,,F,22,
4,4,64,11,11,2,['k'],N,['d'],Y,None,N,,,,,,,F,22,
4,5,65,9,9,2,['k'],Y,['k'],N,None,Y,,,,,,,F,22,
4,6,66,13,13,2,['k'],Y,['k'],Y,None,N,,,,,,,F,22,
4,7,67,2,2,2,['k'],Y,['k'],N,None,Y,,,,,,,F,22,
4,8,68,12,12,2,['k'],Y,['k'],Y,None,N,,,,,,,F,22,
4,9,69,13,13,2,['k'],Y,['k'],N,None,Y,,,,,,,F,22,
4,10,70,13,13,2,['k'],N,['d'],Y,None,N,,,,,,,F,22,
4,11,71,6,6,2,['d'],N,['k'],Y,None,N,,,,,,,F,22,
4,12,72,0,0,2,['d'],N,['k'],Y,None,N,,,,,,,F,22,
4,13,73,1,1,2,['k'],Y,['k'],Y,None,N,,,,,,,F,22,
4,14,74,5,5,2,['d'],N,['k'],N,None,Y,,,,,,,F,22,
5,0,75,4,4,2,['k'],N,['d'],N,None,Y,,,,,,,F,22,
5,1,76,6,6,2,['k'],N,['d'],N,None,Y,,,,,,,F,22,
5,2,77,8,8,2,['d'],Y,['d'],N,None,Y,,,,,,,F,22,
5,3,78,0,0,2,['d'],N,['k'],N,None,Y,,,,,,,F,22,
5,4,79,1,1,2,['k'],Y,['k'],N,None,Y,,,,,,,F,22,
5,5,80,1,1,2,['k'],N,['d'],Y,None,N,,,,,,,F,22,
5,6,81,14,14,2,['k'],N,['d'],Y,None,N,,,,,,,F,22,
5,7,82,8,8,2,['d'],N,['k'],Y,None,N,,,,,,,F,22,
5,8,83,0,0,2,['k'],N,['d'],N,None,Y,,,,,,,F,22,
5,9,84,11,11,2,['d'],N,['k'],N,None,Y,,,,,,,F,22,
5,10,85,0,0,2,['k'],N,['d'],N,None,Y,,,,,,,F,22,
5,11,86,5,5,2,['k'],N,['d'],N,None,Y,,,,,,,F,22,
5,12,87,14,14,2,['d'],Y,['d'],N,None,Y,,,,,,,F,22,
5,13,88,13,13,2,['k'],Y,['k'],Y,None,N,,,,,,,F,22,
5,14,89,13,13,2,['d'],Y,['d'],N,None,Y,,,,,,,F,22,
6,0,90,12,12,2,['d'],Y,['d'],N,None,Y,,,,,,,F,22,
6,1,91,3,3,2,['d'],Y,['d'],Y,None,N,,,,,,,F,22,
6,2,92,14,14,2,['d'],N,['k'],N,None,Y,,,,,,,F,22,
6,3,93,10,10,2,['k'],N,['d'],Y,None,N,,,,,,,F,22,
6,4,94,13,13,2,['d'],N,['k'],N,None,Y,,,,,,,F,22,
6,5,95,8,8,2,['d'],N,['k'],Y,None,N,,,,,,,F,22,
6,6,96,0,0,2,['k'],N,['d'],Y,None,N,,,,,,,F,22,
6,7,97,13,13,2,['k'],N,['d'],Y,None,N,,,,,,,F,22,
6,8,98,0,0,2,['d'],N,['k'],N,None,Y,,,,,,,F,22,
6,9,99,3,3,2,['k'],N,['d'],N,None,Y,23,25,24,,,,F,22,
6,10,100,7,7,3,['k'],Y,['k'],,,,,,,,,,F,22,
6,11,101,5,5,3,['k'],N,['d'],,,,,,,,,,F,22,
6,12,102,7,7,3,['k'],N,['d'],Y,['space'],Y,,,,,,,F,22,
6,13,103,9,9,3,['d'],Y,['d'],N,None,Y,,,,,,,F,22,
6,14,104,8,8,3,['k'],Y,['k'],N,None,Y,,,,,,,F,22,
7,0,105,2,2,3,['k'],Y,['k'],Y,None,N,,,,,,,F,22,
7,1,106,2,2,3,['k'],N,['d'],Y,['space'],Y,,,,,,,F,22,
7,2,107,3,3,3,['d'],Y,['d'],Y,None,N,,,,,,,F,22,
7,3,108,9,9,3,['k'],N,['d'],Y,None,N,,,,,,,F,22,
7,4,109,1,1,3,['d'],N,['k'],Y,['space'],Y,,,,,,,F,22,
7,5,110,12,12,3,['k'],Y,['k'],Y,['space'],Y,,,,,,,F,22,
7,6,111,3,3,3,['d'],Y,['d'],Y,['space'],Y,,,,,,,F,22,
7,7,112,5,5,3,['k'],N,['d'],Y,['space'],Y,,,,,,,F,22,
7,8,113,10,10,3,['d'],N,['k'],N,None,Y,,,,,,,F,22,
7,9,114,9,9,3,['k'],N,['d'],N,['space'],N,,,,,,,F,22,
7,10,115,2,2,3,['d'],N,['k'],Y,['space'],Y,,,,,,,F,22,
7,11,116,1,1,3,['k'],Y,['k'],N,None,Y,,,,,,,F,22,
7,12,117,1,1,3,['k'],Y,['k'],N,None,Y,,,,,,,F,22,
7,13,118,0,0,3,['k'],N,['d'],Y,['space'],Y,,,,,,,F,22,
7,14,119,11,11,3,['k'],Y,['k'],Y,None,N,,,,,,,F,22,
8,0,120,2,2,3,['k'],N,['d'],N,None,Y,,,,,,,F,22,
8,1,121,4,4,3,['d'],Y,['d'],N,None,Y,,,,,,,F,22,
8,2,122,8,8,3,['d'],N,['k'],Y,['space'],Y,,,,,,,F,22,
8,3,123,12,12,3,['k'],N,['d'],N,None,Y,,,,,,,F,22,
8,4,124,0,0,3,['d'],Y,['d'],N,None,Y,,,,,,,F,22,
8,5,125,6,6,3,['k'],Y,['k'],N,['space'],N,,,,,,,F,22,
8,6,126,14,14,3,['d'],Y,['d'],Y,None,N,,,,,,,F,22,
8,7,127,8,8,3,['d'],N,['k'],Y,None,N,,,,,,,F,22,
8,8,128,8,8,3,['k'],Y,['k'],Y,None,N,,,,,,,F,22,
8,9,129,4,4,3,['k'],N,['d'],N,['space'],N,,,,,,,F,22,
8,10,130,9,9,3,['k'],Y,['k'],N,None,Y,,,,,,,F,22,
8,11,131,14,14,3,['k'],N,['d'],N,None,Y,,,,,,,F,22,
8,12,132,0,0,3,['k'],Y,['k'],Y,['d'],N,,,,,,,F,22,
8,13,133,7,7,3,['d'],N,['k'],Y,['space'],Y,,,,,,,F,22,
8,14,134,8,8,3,['k'],N,['d'],Y,['k'],N,,,,,,,F,22,
9,0,135,7,7,3,['k'],N,['d'],N,['space'],N,,,,,,,F,22,
9,1,136,12,12,3,['d'],Y,['d'],Y,None,N,,,,,,,F,22,
9,2,137,10,10,3,['d'],Y,['d'],N,None,Y,,,,,,,F,22,
9,3,138,3,3,3,['d'],Y,['d'],Y,['space'],Y,,,,,,,F,22,
9,4,139,6,6,3,['k'],N,['d'],Y,None,N,,,,,,,F,22,
9,5,140,1,1,3,['d'],N,['k'],Y,None,N,,,,,,,F,22,
9,6,141,6,6,3,['k'],N,['d'],N,None,Y,,,,,,,F,22,
9,7,142,13,13,3,['d'],Y,['d'],N,None,Y,,,,,,,F,22,
9,8,143,10,10,3,['k'],N,['d'],N,['space'],N,,,,,,,F,22,
9,9,144,0,0,3,['d'],N,['k'],N,None,Y,,,,,,,F,22,
9,10,145,2,2,3,['k'],N,['d'],Y,['k'],N,,,,,,,F,22,
9,11,146,2,2,3,['d'],Y,['d'],Y,['space'],Y,,,,,,,F,22,
9,12,147,2,2,3,['k'],N,['d'],N,None,Y,,,,,,,F,22,
9,13,148,4,4,3,['d'],Y,['d'],N,['d'],N,,,,,,,F,22,
9,14,149,14,14,3,['k'],Y,['k'],N,None,Y,24,29,25,,,,F,22,
10,0,150,12,12,4,['k'],N,['d'],,,,,,,,,,F,22,
10,1,151,8,8,4,['k'],N,['d'],,,,,,,,,,F,22,
10,2,152,10,10,4,['k'],N,['d'],Y,['space'],Y,,,,,,,F,22,
10,3,153,14,14,4,['k'],N,['d'],Y,['space'],Y,,,,,,,F,22,
10,4,154,0,0,4,['d'],N,['k'],Y,None,N,,,,,,,F,22,
10,5,155,7,7,4,['d'],Y,['d'],Y,['k'],N,,,,,,,F,22,
10,6,156,3,3,4,['k'],N,['d'],Y,['space'],Y,,,,,,,F,22,
10,7,157,8,8,4,['d'],N,['k'],Y,['space'],Y,,,,,,,F,22,
10,8,158,11,11,4,['k'],Y,['k'],Y,['space'],Y,,,,,,,F,22,
10,9,159,8,8,4,['k'],N,['d'],N,None,Y,,,,,,,F,22,
10,10,160,9,9,4,['d'],Y,['d'],N,None,Y,,,,,,,F,22,
10,11,161,5,5,4,['k'],N,['d'],Y,['space'],Y,,,,,,,F,22,
10,12,162,3,3,4,['d'],N,['k'],Y,['space'],Y,,,,,,,F,22,
10,13,163,12,12,4,['k'],N,['d'],N,None,Y,,,,,,,F,22,
10,14,164,5,5,4,['d'],N,['k'],Y,['space'],Y,,,,,,,F,22,
11,0,165,2,2,4,['k'],N,['d'],Y,['k'],N,,,,,,,F,22,
11,1,166,12,12,4,['d'],Y,['d'],N,['d'],N,,,,,,,F,22,
11,2,167,4,4,4,['k'],Y,['k'],N,['k'],N,,,,,,,F,22,
11,3,168,10,10,4,['k'],N,['d'],N,['d'],N,,,,,,,F,22,
11,4,169,0,0,4,['k'],Y,['k'],N,None,Y,,,,,,,F,22,
11,5,170,14,14,4,['k'],Y,['k'],Y,None,N,,,,,,,F,22,
11,6,171,13,13,4,['k'],N,['d'],Y,None,N,,,,,,,F,22,
11,7,172,9,9,4,['k'],N,['d'],N,None,Y,,,,,,,F,22,
11,8,173,13,13,4,['d'],N,['k'],N,['space'],N,,,,,,,F,22,
11,9,174,7,7,4,['d'],Y,['d'],N,['k'],N,,,,,,,F,22,
11,10,175,10,10,4,['d'],N,['k'],Y,None,N,,,,,,,F,22,
11,11,176,2,2,4,['k'],N,['d'],N,None,Y,,,,,,,F,22,
11,12,177,5,5,4,['k'],N,['d'],Y,None,N,,,,,,,F,22,
11,13,178,6,6,4,['d'],N,['k'],Y,['space'],Y,,,,,,,F,22,
11,14,179,4,4,4,['k'],Y,['k'],Y,['k'],N,,,,,,,F,22,
12,0,180,8,8,4,['k'],N,['d'],N,None,Y,,,,,,,F,22,
12,1,181,3,3,4,['k'],N,['d'],Y,None,N,,,,,,,F,22,
12,2,182,11,11,4,['d'],N,['k'],N,None,Y,,,,,,,F,22,
12,3,183,9,9,4,['k'],Y,['k'],N,None,Y,,,,,,,F,22,
12,4,184,5,5,4,['k'],N,['d'],Y,['space'],Y,,,,,,,F,22,
12,5,185,4,4,4,['d'],N,['k'],Y,None,N,,,,,,,F,22,
12,6,186,3,3,4,['d'],N,['k'],N,['k'],N,,,,,,,F,22,
12,7,187,5,5,4,['k'],N,['d'],N,['k'],N,,,,,,,F,22,
12,8,188,4,4,4,['k'],Y,['k'],Y,None,N,,,,,,,F,22,
12,9,189,7,7,4,['d'],Y,['d'],N,None,Y,,,,,,,F,22,
12,10,190,8,8,4,['k'],Y,['k'],Y,None,N,,,,,,,F,22,
12,11,191,11,11,4,['k'],N,['d'],Y,['space'],Y,,,,,,,F,22,
12,12,192,6,6,4,['k'],Y,['k'],Y,None,N,,,,,,,F,22,
12,13,193,7,7,4,['d'],Y,['d'],N,None,Y,,,,,,,F,22,
12,14,194,8,8,4,['k'],N,['d'],Y,['space'],Y,,,,,,,F,22,
13,0,195,2,2,4,['k'],N,['d'],N,None,Y,,,,,,,F,22,
13,1,196,6,6,4,['k'],N,['d'],N,None,Y,,,,,,,F,22,
13,2,197,6,6,4,['d'],N,['k'],N,None,Y,,,,,,,F,22,
13,3,198,10,10,4,['k'],N,['d'],N,None,Y,,,,,,,F,22,
13,4,199,11,11,4,['k'],N,['d'],N,['d'],N,15,27,25,,,,F,22,
13,5,200,4,4,5,['k'],Y,['k'],,,,,,,,,,F,22,
13,6,201,7,7,5,['k'],Y,['k'],,,,,,,,,,F,22,
13,7,202,7,7,5,['d'],Y,['d'],N,None,Y,,,,,,,F,22,
13,8,203,6,6,5,['d'],N,['k'],N,None,Y,,,,,,,F,22,
13,9,204,1,1,5,['k'],N,['d'],N,None,Y,,,,,,,F,22,
13,10,205,5,5,5,['k'],Y,['k'],N,None,Y,,,,,,,F,22,
13,11,206,10,10,5,['k'],N,['d'],Y,None,N,,,,,,,F,22,
13,12,207,12,12,5,['d'],Y,['d'],N,None,Y,,,,,,,F,22,
13,13,208,3,3,5,['k'],N,['d'],N,None,Y,,,,,,,F,22,
13,14,209,7,7,5,['d'],N,['k'],N,None,Y,,,,,,,F,22,
14,0,210,9,9,5,['k'],Y,['k'],N,None,Y,,,,,,,F,22,
14,1,211,7,7,5,['k'],Y,['k'],Y,None,N,,,,,,,F,22,
14,2,212,5,5,5,['k'],Y,['k'],N,None,Y,,,,,,,F,22,
14,3,213,14,14,5,['k'],N,['d'],Y,None,N,,,,,,,F,22,
14,4,214,6,6,5,['k'],N,['d'],Y,None,N,,,,,,,F,22,
14,5,215,12,12,5,['k'],N,['d'],Y,None,N,,,,,,,F,22,
14,6,216,12,12,5,['d'],Y,['d'],Y,None,N,,,,,,,F,22,
14,7,217,2,2,5,['k'],N,['d'],Y,None,N,,,,,,,F,22,
14,8,218,2,2,5,['d'],N,['k'],Y,None,N,,,,,,,F,22,
14,9,219,0,0,5,['k'],N,['d'],Y,None,N,,,,,,,F,22,
14,10,220,4,4,5,['d'],Y,['d'],Y,None,N,,,,,,,F,22,
14,11,221,6,6,5,['k'],Y,['k'],Y,None,N,,,,,,,F,22,
14,12,222,11,11,5,['k'],N,['d'],N,['k'],N,,,,,,,F,22,
14,13,223,7,7,5,['k'],Y,['k'],N,None,Y,,,,,,,F,22,
14,14,224,11,11,5,['d'],N,['k'],N,None,Y,,,,,,,F,22,
15,0,225,1,1,5,['k'],N,['d'],N,None,Y,,,,,,,F,22,
15,1,226,7,7,5,['d'],Y,['d'],Y,None,N,,,,,,,F,22,
15,2,227,0,0,5,['k'],N,['d'],N,None,Y,,,,,,,F,22,
15,3,228,14,14,5,['d'],Y,['d'],Y,None,N,,,,,,,F,22,
15,4,229,2,2,5,['d'],Y,['d'],N,None,Y,,,,,,,F,22,
15,5,230,10,10,5,['k'],N,['d'],Y,None,N,,,,,,,F,22,
15,6,231,9,9,5,['k'],Y,['k'],Y,None,N,,,,,,,F,22,
15,7,232,3,3,5,['k'],Y,['k'],N,None,Y,,,,,,,F,22,
15,8,233,9,9,5,['d'],N,['k'],N,None,Y,,,,,,,F,22,
15,9,234,3,3,5,['k'],Y,['k'],Y,None,N,,,,,,,F,22,
15,10,235,13,13,5,['k'],Y,['k'],N,None,Y,,,,,,,F,22,
15,11,236,4,4,5,['d'],Y,['d'],N,None,Y,,,,,,,F,22,
15,12,237,6,6,5,['k'],N,['d'],N,None,Y,,,,,,,F,22,
15,13,238,2,2,5,['d'],Y,['d'],Y,None,N,,,,,,,F,22,
15,14,239,14,14,5,['k'],N,['d'],Y,['space'],Y,,,,,,,F,22,
16,0,240,2,2,5,['k'],Y,['k'],N,None,Y,,,,,,,F,22,
16,1,241,10,10,5,['k'],N,['d'],N,None,Y,,,,,,,F,22,
16,2,242,6,6,5,['k'],Y,['k'],N,None,Y,,,,,,,F,22,
16,3,243,10,10,5,['d'],N,['k'],Y,['space'],Y,,,,,,,F,22,
16,4,244,13,13,5,['k'],N,['d'],Y,None,N,,,,,,,F,22,
16,5,245,0,0,5,['k'],Y,['k'],Y,['space'],Y,,,,,,,F,22,
16,6,246,1,1,5,['d'],N,['k'],Y,['space'],Y,,,,,,,F,22,
16,7,247,0,0,5,['k'],Y,['k'],N,None,Y,,,,,,,F,22,
16,8,248,3,3,5,['k'],N,['d'],N,None,Y,,,,,,,F,22,
16,9,249,10,10,5,['d'],Y,['d'],Y,['d'],N,26,28,23,,,,F,22,
16,10,250,12,12,6,['k'],Y,['k'],,,,,,,,,,F,22,
16,11,251,4,4,6,['k'],N,['d'],,,,,,,,,,F,22,
16,12,252,14,14,6,['k'],N,['d'],Y,None,N,,,,,,,F,22,
16,13,253,12,12,6,['d'],Y,['d'],Y,None,N,,,,,,,F,22,
16,14,254,11,11,6,['d'],Y,['d'],Y,['space'],Y,,,,,,,F,22,
17,0,255,4,4,6,['d'],Y,['d'],Y,None,N,,,,,,,F,22,
17,1,256,10,10,6,['k'],Y,['k'],Y,['space'],Y,,,,,,,F,22,
17,2,257,13,13,6,['d'],N,['k'],N,None,Y,,,,,,,F,22,
17,3,258,12,12,6,['k'],Y,['k'],N,None,Y,,,,,,,F,22,
17,4,259,0,0,6,['d'],N,['k'],Y,None,N,,,,,,,F,22,
17,5,260,5,5,6,['d'],N,['k'],N,['space'],N,,,,,,,F,22,
17,6,261,9,9,6,['k'],N,['d'],Y,['space'],Y,,,,,,,F,22,
17,7,262,1,1,6,['k'],Y,['k'],Y,None,N,,,,,,,F,22,
17,8,263,8,8,6,['k'],N,['d'],N,None,Y,,,,,,,F,22,
17,9,264,5,5,6,['d'],Y,['d'],Y,['space'],Y,,,,,,,F,22,
17,10,265,13,13,6,['k'],Y,['k'],Y,None,N,,,,,,,F,22,
17,11,266,11,11,6,['d'],N,['k'],Y,None,N,,,,,,,F,22,
17,12,267,5,5,6,['k'],Y,['k'],N,None,Y,,,,,,,F,22,
17,13,268,3,3,6,['k'],N,['d'],Y,None,N,,,,,,,F,22,
17,14,269,0,0,6,['k'],N,['d'],N,['d'],N,,,,,,,F,22,
18,0,270,12,12,6,['d'],N,['k'],Y,None,N,,,,,,,F,22,
18,1,271,8,8,6,['k'],N,['d'],N,None,Y,,,,,,,F,22,
18,2,272,4,4,6,['d'],N,['k'],N,None,Y,,,,,,,F,22,
18,3,273,4,4,6,['k'],N,['d'],N,None,Y,,,,,,,F,22,
18,4,274,13,13,6,['d'],N,['k'],Y,None,N,,,,,,,F,22,
18,5,275,14,14,6,['k'],N,['d'],N,None,Y,,,,,,,F,22,
18,6,276,1,1,6,['k'],Y,['k'],N,None,Y,,,,,,,F,22,
18,7,277,1,1,6,['d'],N,['k'],N,None,Y,,,,,,,F,22,
18,8,278,8,8,6,['k'],N,['d'],Y,None,N,,,,,,,F,22,
18,9,279,3,3,6,['d'],N,['k'],N,['d'],N,,,,,,,F,22,
18,10,280,14,14,6,['k'],Y,['k'],N,None,Y,,,,,,,F,22,
18,11,281,0,0,6,['d'],Y,['d'],Y,None,N,,,,,,,F,22,
18,12,282,10,10,6,['k'],Y,['k'],Y,None,N,,,,,,,F,22,
18,13,283,2,2,6,['d'],Y,['d'],Y,None,N,,,,,,,F,22,
18,14,284,6,6,6,['k'],Y,['k'],N,None,Y,,,,,,,F,22,
19,0,285,9,9,6,['d'],N,['k'],N,None,Y,,,,,,,F,22,
19,1,286,3,3,6,['k'],N,['d'],Y,None,N,,,,,,,F,22,
19,2,287,6,6,6,['k'],N,['d'],Y,None,N,,,,,,,F,22,
19,3,288,13,13,6,['d'],N,['k'],N,None,Y,,,,,,,F,22,
19,4,289,6,6,6,['d'],N,['k'],Y,None,N,,,,,,,F,22,
19,5,290,6,6,6,['k'],N,['d'],N,None,Y,,,,,,,F,22,
19,6,291,11,11,6,['d'],N,['k'],N,None,Y,,,,,,,F,22,
19,7,292,3,3,6,['k'],N,['d'],Y,None,N,,,,,,,F,22,
19,8,293,6,6,6,['k'],Y,['k'],Y,None,N,,,,,,,F,22,
19,9,294,3,3,6,['k'],Y,['k'],Y,None,N,,,,,,,F,22,
19,10,295,0,0,6,['k'],N,['d'],Y,None,N,,,,,,,F,22,
19,11,296,11,11,6,['k'],Y,['k'],N,None,Y,,,,,,,F,22,
19,12,297,7,7,6,['k'],N,['d'],N,None,Y,,,,,,,F,22,
19,13,298,10,10,6,['k'],N,['d'],N,['k'],N,,,,,,,F,22,
19,14,299,1,1,6,['d'],N,['k'],N,['space'],N,19,22,25,,,,F,22,
20,0,300,12,12,7,['k'],N,['d'],,,,,,,,,,F,22,
20,1,301,13,13,7,['k'],N,['d'],,,,,,,,,,F,22,
20,2,302,0,0,7,['k'],N,['d'],N,None,Y,,,,,,,F,22,
20,3,303,9,9,7,['d'],Y,['d'],N,None,Y,,,,,,,F,22,
20,4,304,10,10,7,['d'],Y,['d'],N,None,Y,,,,,,,F,22,
20,5,305,4,4,7,['k'],N,['d'],Y,None,N,,,,,,,F,22,
20,6,306,1,1,7,['d'],N,['k'],N,None,Y,,,,,,,F,22,
20,7,307,0,0,7,['k'],Y,['k'],Y,['k'],N,,,,,,,F,22,
20,8,308,7,7,7,['k'],N,['d'],Y,['d'],N,,,,,,,F,22,
20,9,309,2,2,7,['k'],Y,['k'],Y,['d'],N,,,,,,,F,22,
20,10,310,12,12,7,['d'],N,['k'],N,None,Y,,,,,,,F,22,
20,11,311,5,5,7,['k'],Y,['k'],N,None,Y,,,,,,,F,22,
20,12,312,10,10,7,['k'],N,['d'],Y,None,N,,,,,,,F,22,
20,13,313,4,4,7,['d'],N,['k'],N,None,Y,,,,,,,F,22,
20,14,314,10,10,7,['k'],N,['d'],Y,None,N,,,,,,,F,22,
21,0,315,6,6,7,['d'],N,['k'],Y,['d'],N,,,,,,,F,22,
21,1,316,12,12,7,['k'],Y,['k'],N,None,Y,,,,,,,F,22,
21,2,317,7,7,7,['d'],N,['k'],Y,None,N,,,,,,,F,22,
21,3,318,10,10,7,['k'],N,['d'],Y,None,N,,,,,,,F,22,
21,4,319,6,6,7,['d'],N,['k'],N,None,Y,,,,,,,F,22,
21,5,320,1,1,7,['k'],Y,['k'],Y,None,N,,,,,,,F,22,
21,6,321,1,1,7,['d'],N,['k'],N,None,Y,,,,,,,F,22,
21,7,322,2,2,7,['k'],N,['d'],Y,None,N,,,,,,,F,22,
21,8,323,13,13,7,['d'],N,['k'],N,['space'],N,,,,,,,F,22,
21,9,324,8,8,7,['k'],N,['d'],N,None,Y,,,,,,,F,22,
21,10,325,10,10,7,['d'],Y,['d'],N,['space'],N,,,,,,,F,22,
21,11,326,3,3,7,['k'],Y,['k'],N,['space'],N,,,,,,,F,22,
21,12,327,1,1,7,['d'],Y,['d'],N,['space'],N,,,,,,,F,22,
21,13,328,12,12,7,['k'],N,['d'],N,['space'],N,,,,,,,F,22,
21,14,329,10,10,7,['d'],Y,['d'],Y,['space'],Y,,,,,,,F,22,
22,0,330,11,11,7,['d'],N,['k'],Y,['space'],Y,,,,,,,F,22,
22,1,331,14,14,7,['k'],Y,['k'],Y,['space'],Y,,,,,,,F,22,
22,2,332,3,3,7,['k'],N,['d'],Y,['space'],Y,,,,,,,F,22,
22,3,333,8,8,7,['d'],Y,['d'],N,['space'],N,,,,,,,F,22,
22,4,334,11,11,7,['k'],N,['d'],Y,['space'],Y,,,,,,,F,22,
22,5,335,5,5,7,['d'],N,['k'],N,['space'],N,,,,,,,F,22,
22,6,336,10,10,7,['k'],N,['d'],Y,['space'],Y,,,,,,,F,22,
22,7,337,14,14,7,['d'],Y,['d'],Y,['space'],Y,,,,,,,F,22,
22,8,338,6,6,7,['k'],Y,['k'],Y,['space'],Y,,,,,,,F,22,
22,9,339,0,0,7,['k'],Y,['k'],N,['space'],N,,,,,,,F,22,
22,10,340,5,5,7,['d'],Y,['d'],Y,['space'],Y,,,,,,,F,22,
22,11,341,10,10,7,['k'],Y,['k'],N,['space'],N,,,,,,,F,22,
22,12,342,7,7,7,['d'],N,['k'],N,['space'],N,,,,,,,F,22,
22,13,343,8,8,7,['d'],Y,['d'],N,['space'],N,,,,,,,F,22,
22,14,344,5,5,7,['k'],N,['d'],N,['space'],N,,,,,,,F,22,
23,0,345,11,11,7,['d'],Y,['d'],N,['space'],N,,,,,,,F,22,
23,1,346,1,1,7,['k'],N,['d'],N,['space'],N,,,,,,,F,22,
23,2,347,8,8,7,['d'],Y,['d'],Y,['space'],Y,,,,,,,F,22,
23,3,348,9,9,7,['k'],Y,['k'],Y,['space'],Y,,,,,,,F,22,
23,4,349,7,7,7,['d'],N,['k'],N,['space'],N,22,22,22,,,,F,22,
23,5,350,8,8,8,['k'],N,['d'],,,,,,,,,,F,22,
23,6,351,2,2,8,['k'],Y,['k'],,,,,,,,,,F,22,
23,7,352,5,5,8,['d'],N,['k'],N,None,Y,,,,,,,F,22,
23,8,353,12,12,8,['d'],N,['k'],N,None,Y,,,,,,,F,22,
23,9,354,5,5,8,['k'],Y,['k'],N,None,Y,,,,,,,F,22,
23,10,355,5,5,8,['k'],Y,['k'],Y,['space'],Y,,,,,,,F,22,
23,11,356,12,12,8,['k'],N,['d'],Y,['space'],Y,,,,,,,F,22,
23,12,357,10,10,8,['d'],N,['k'],N,None,Y,,,,,,,F,22,
23,13,358,9,9,8,['d'],Y,['d'],N,['k'],N,,,,,,,F,22,
23,14,359,6,6,8,['k'],Y,['k'],Y,None,N,,,,,,,F,22,
24,0,360,4,4,8,['d'],N,['k'],N,['space'],N,,,,,,,F,22,
24,1,361,4,4,8,['k'],Y,['k'],N,['space'],N,,,,,,,F,22,
24,2,362,13,13,8,['d'],Y,['d'],Y,['space'],Y,,,,,,,F,22,
24,3,363,9,9,8,['k'],N,['d'],N,['k'],N,,,,,,,F,22,
24,4,364,9,9,8,['d'],N,['k'],Y,['space'],Y,,,,,,,F,22,
24,5,365,10,10,8,['k'],Y,['k'],N,['d'],N,,,,,,,F,22,
24,6,366,14,14,8,['d'],Y,['d'],Y,['space'],Y,,,,,,,F,22,
24,7,367,0,0,8,['k'],N,['d'],N,None,Y,,,,,,,F,22,
24,8,368,14,14,8,['d'],N,['k'],N,['space'],N,,,,,,,F,22,
24,9,369,6,6,8,['k'],N,['d'],Y,['space'],Y,,,,,,,F,22,
24,10,370,2,2,8,['d'],Y,['d'],N,['space'],N,,,,,,,F,22,
24,11,371,0,0,8,['k'],N,['d'],N,['k'],N,,,,,,,F,22,
24,12,372,2,2,8,['d'],N,['k'],Y,['space'],Y,,,,,,,F,22,
24,13,373,12,12,8,['d'],Y,['d'],Y,['k'],N,,,,,,,F,22,
24,14,374,6,6,8,['d'],Y,['d'],Y,['k'],N,,,,,,,F,22,
25,0,375,5,5,8,['d'],N,['k'],Y,['k'],N,,,,,,,F,22,
25,1,376,0,0,8,['k'],N,['d'],Y,['space'],Y,,,,,,,F,22,
25,2,377,13,13,8,['d'],N,['k'],N,['k'],N,,,,,,,F,22,
25,3,378,5,5,8,['k'],N,['d'],Y,['space'],Y,,,,,,,F,22,
25,4,379,2,2,8,['d'],N,['k'],Y,['d'],N,,,,,,,F,22,
25,5,380,0,0,8,['k'],Y,['k'],Y,['k'],N,,,,,,,F,22,
25,6,381,5,5,8,['d'],Y,['d'],N,['space'],N,,,,,,,F,22,
25,7,382,4,4,8,['k'],N,['d'],N,None,Y,,,,,,,F,22,
25,8,383,1,1,8,['k'],N,['d'],N,['space'],N,,,,,,,F,22,
25,9,384,11,11,8,['d'],N,['k'],Y,None,N,,,,,,,F,22,
25,10,385,7,7,8,['k'],N,['d'],N,['space'],N,,,,,,,F,22,
25,11,386,8,8,8,['d'],N,['k'],Y,['d'],N,,,,,,,F,22,
25,12,387,3,3,8,['k'],Y,['k'],N,None,Y,,,,,,,F,22,
25,13,388,0,0,8,['k'],Y,['k'],Y,['space'],Y,,,,,,,F,22,
25,14,389,8,8,8,['k'],N,['d'],N,None,Y,,,,,,,F,22,
26,0,390,3,3,8,['k'],Y,['k'],Y,['d'],N,,,,,,,F,22,
26,1,391,1,1,8,['d'],N,['k'],N,['d'],N,,,,,,,F,22,
26,2,392,7,7,8,['k'],Y,['k'],Y,['k'],N,,,,,,,F,22,
26,3,393,9,9,8,['k'],Y,['k'],N,['d'],N,,,,,,,F,22,
26,4,394,2,2,8,['k'],Y,['k'],Y,['space'],Y,,,,,,,F,22,
26,5,395,13,13,8,['k'],Y,['k'],N,['space'],N,,,,,,,F,22,
26,6,396,5,5,8,['d'],Y,['d'],N,['space'],N,,,,,,,F,22,
26,7,397,14,14,8,['k'],Y,['k'],N,['space'],N,,,,,,,F,22,
26,8,398,6,6,8,['k'],N,['d'],N,None,Y,,,,,,,F,22,
26,9,399,13,13,8,['k'],N,['d'],Y,None,N,23,20,22,,,,F,22,
26,10,400,3,3,9,['d'],Y,['d'],,,,,,,,,,F,22,
26,11,401,5,5,9,['k'],Y,['k'],,,,,,,,,,F,22,
26,12,402,8,8,9,['k'],Y,['k'],N,None,Y,,,,,,,F,22,
26,13,403,3,3,9,['d'],N,['k'],Y,['space'],Y,,,,,,,F,22,
26,14,404,8,8,9,['k'],Y,['k'],N,None,Y,,,,,,,F,22,
27,0,405,11,11,9,['k'],N,['d'],N,None,Y,,,,,,,F,22,
27,1,406,14,14,9,['k'],Y,['k'],N,None,Y,,,,,,,F,22,
27,2,407,9,9,9,['d'],Y,['d'],Y,None,N,,,,,,,F,22,
27,3,408,0,0,9,['k'],Y,['k'],Y,None,N,,,,,,,F,22,
27,4,409,11,11,9,['d'],Y,['d'],Y,None,N,,,,,,,F,22,
27,5,410,7,7,9,['k'],N,['d'],N,['k'],N,,,,,,,F,22,
27,6,411,9,9,9,['k'],Y,['k'],Y,['d'],N,,,,,,,F,22,
27,7,412,3,3,9,['d'],Y,['d'],Y,None,N,,,,,,,F,22,
27,8,413,1,1,9,['d'],N,['k'],Y,['space'],Y,,,,,,,F,22,
27,9,414,12,12,9,['k'],Y,['k'],Y,None,N,,,,,,,F,22,
27,10,415,4,4,9,['d'],Y,['d'],Y,None,N,,,,,,,F,22,
27,11,416,13,13,9,['d'],N,['k'],N,None,Y,,,,,,,F,22,
27,12,417,14,14,9,['k'],Y,['k'],Y,None,N,,,,,,,F,22,
27,13,418,11,11,9,['d'],N,['k'],Y,['d'],N,,,,,,,F,22,
27,14,419,5,5,9,['k'],N,['d'],Y,['space'],Y,,,,,,,F,22,
28,0,420,9,9,9,['d'],Y,['d'],N,None,Y,,,,,,,F,22,
28,1,421,9,9,9,['k'],N,['d'],Y,['space'],Y,,,,,,,F,22,
28,2,422,5,5,9,['k'],Y,['k'],N,['d'],N,,,,,,,F,22,
28,3,423,3,3,9,['k'],N,['d'],N,['d'],N,,,,,,,F,22,
28,4,424,5,5,9,['d'],N,['k'],Y,['space'],Y,,,,,,,F,22,
28,5,425,8,8,9,['k'],N,['d'],N,['space'],N,,,,,,,F,22,
28,6,426,12,12,9,['k'],N,['d'],N,['d'],N,,,,,,,F,22,
28,7,427,9,9,9,['d'],N,['k'],N,['space'],N,,,,,,,F,22,
28,8,428,6,6,9,['k'],N,['d'],N,None,Y,,,,,,,F,22,
28,9,429,13,13,9,['d'],N,['k'],Y,None,N,,,,,,,F,22,
28,10,430,7,7,9,['k'],N,['d'],Y,None,N,,,,,,,F,22,
28,11,431,2,2,9,['k'],N,['d'],N,None,Y,,,,,,,F,22,
28,12,432,5,5,9,['k'],Y,['k'],N,None,Y,,,,,,,F,22,
28,13,433,3,3,9,['d'],Y,['d'],N,None,Y,,,,,,,F,22,
28,14,434,8,8,9,['k'],Y,['k'],N,None,Y,,,,,,,F,22,
29,0,435,7,7,9,['d'],Y,['d'],N,None,Y,,,,,,,F,22,
29,1,436,7,7,9,['k'],N,['d'],N,None,Y,,,,,,,F,22,
29,2,437,9,9,9,['d'],Y,['d'],N,None,Y,,,,,,,F,22,
29,3,438,13,13,9,['k'],N,['d'],Y,None,N,,,,,,,F,22,
29,4,439,0,0,9,['d'],N,['k'],Y,['space'],Y,,,,,,,F,22,
29,5,440,8,8,9,['k'],N,['d'],Y,['space'],Y,,,,,,,F,22,
29,6,441,10,10,9,['k'],N,['d'],Y,['d'],N,,,,,,,F,22,
29,7,442,4,4,9,['d'],Y,['d'],N,['space'],N,,,,,,,F,22,
29,8,443,1,1,9,['k'],N,['d'],N,None,Y,,,,,,,F,22,
29,9,444,3,3,9,['d'],N,['k'],Y,None,N,,,,,,,F,22,
29,10,445,6,6,9,['k'],Y,['k'],N,['k'],N,,,,,,,F,22,
29,11,446,11,11,9,['d'],Y,['d'],N,None,Y,,,,,,,F,22,
29,12,447,5,5,9,['k'],Y,['k'],N,['space'],N,,,,,,,F,22,
29,13,448,3,3,9,['d'],N,['k'],Y,['space'],Y,,,,,,,F,22,
29,14,449,4,4,9,['k'],Y,['k'],Y,['space'],Y,25,25,23,,,,F,22,
30,0,450,11,11,10,['k'],N,['d'],,,,,,,,,,F,22,
30,1,451,11,11,10,['d'],N,['k'],,,,,,,,,,F,22,
30,2,452,11,11,10,['k'],N,['d'],Y,['space'],Y,,,,,,,F,22,
30,3,453,4,4,10,['k'],N,['d'],N,['space'],N,,,,,,,F,22,
30,4,454,2,2,10,['k'],Y,['k'],Y,['space'],Y,,,,,,,F,22,
30,5,455,14,14,10,['k'],N,['d'],N,['space'],N,,,,,,,F,22,
30,6,456,4,4,10,['d'],N,['k'],Y,['space'],Y,,,,,,,F,22,
30,7,457,4,4,10,['k'],Y,['k'],N,['space'],N,,,,,,,F,22,
30,8,458,9,9,10,['k'],N,['d'],N,['space'],N,,,,,,,F,22,
30,9,459,14,14,10,['d'],Y,['d'],N,['space'],N,,,,,,,F,22,
30,10,460,9,9,10,['k'],N,['d'],Y,['space'],Y,,,,,,,F,22,
30,11,461,13,13,10,['d'],N,['k'],N,['space'],N,,,,,,,F,22,
30,12,462,3,3,10,['k'],Y,['k'],Y,['space'],Y,,,,,,,F,22,
30,13,463,6,6,10,['d'],N,['k'],N,['space'],N,,,,,,,F,22,
30,14,464,12,12,10,['k'],N,['d'],N,['space'],N,,,,,,,F,22,
31,0,465,14,14,10,['k'],N,['d'],N,['space'],N,,,,,,,F,22,
31,1,466,1,1,10,['d'],Y,['d'],N,['space'],N,,,,,,,F,22,
31,2,467,8,8,10,['k'],N,['d'],Y,['space'],Y,,,,,,,F,22,
31,3,468,9,9,10,['d'],Y,['d'],Y,['space'],Y,,,,,,,F,22,
31,4,469,7,7,10,['d'],N,['k'],N,None,Y,,,,,,,F,22,
31,5,470,2,2,10,['k'],Y,['k'],N,['space'],N,,,,,,,F,22,
31,6,471,4,4,10,['d'],Y,['d'],N,['space'],N,,,,,,,F,22,
31,7,472,14,14,10,['k'],Y,['k'],N,['space'],N,,,,,,,F,22,
31,8,473,2,2,10,['d'],N,['k'],Y,None,N,,,,,,,F,22,
31,9,474,10,10,10,['k'],Y,['k'],Y,['space'],Y,,,,,,,F,22,
31,10,475,14,14,10,['d'],N,['k'],N,['space'],N,,,,,,,F,22,
31,11,476,5,5,10,['k'],Y,['k'],Y,None,N,,,,,,,F,22,
31,12,477,3,3,10,['k'],N,['d'],N,['space'],N,,,,,,,F,22,
31,13,478,11,11,10,['d'],Y,['d'],Y,['space'],Y,,,,,,,F,22,
31,14,479,1,1,10,['d'],Y,['d'],Y,['space'],Y,,,,,,,F,22,
32,0,480,1,1,10,['k'],Y,['k'],N,None,Y,,,,,,,F,22,
32,1,481,11,11,10,['d'],Y,['d'],N,None,Y,,,,,,,F,22,
32,2,482,2,2,10,['k'],Y,['k'],Y,['space'],Y,,,,,,,F,22,
32,3,483,9,9,10,['d'],N,['k'],N,None,Y,,,,,,,F,22,
32,4,484,12,12,10,['k'],Y,['k'],Y,None,N,,,,,,,F,22,
32,5,485,7,7,10,['d'],N,['k'],Y,['space'],Y,,,,,,,F,22,
32,6,486,8,8,10,['k'],N,['d'],N,None,Y,,,,,,,F,22,
32,7,487,12,12,10,['d'],N,['k'],Y,['space'],Y,,,,,,,F,22,
32,8,488,2,2,10,['k'],N,['d'],Y,['space'],Y,,,,,,,F,22,
32,9,489,13,13,10,['k'],N,['d'],N,['space'],N,,,,,,,F,22,
32,10,490,13,13,10,['d'],Y,['d'],Y,['space'],Y,,,,,,,F,22,
32,11,491,0,0,10,['k'],Y,['k'],Y,['space'],Y,,,,,,,F,22,
32,12,492,6,6,10,['d'],N,['k'],Y,['space'],Y,,,,,,,F,22,
32,13,493,1,1,10,['k'],Y,['k'],Y,['space'],Y,,,,,,,F,22,
32,14,494,9,9,10,['d'],N,['k'],Y,['space'],Y,,,,,,,F,22,
33,0,495,14,14,10,['k'],Y,['k'],Y,['space'],Y,,,,,,,F,22,
33,1,496,6,6,10,['d'],N,['k'],Y,None,N,,,,,,,F,22,
33,2,497,14,14,10,['k'],Y,['k'],N,None,Y,,,,,,,F,22,
33,3,498,0,0,10,['k'],N,['d'],N,None,Y,,,,,,,F,22,
33,4,499,1,1,10,['d'],N,['k'],N,['space'],N,22,27,24,,,,F,22,
33,5,500,6,6,11,['d'],Y,['k'],,,,,,,Y,Y,Y,F,22,
33,6,501,13,13,11,['k'],N,['k'],,,,,,,,Y,Y,F,22,
33,7,502,2,2,11,['k'],Y,['d'],N,['d'],N,,,,,Y,Y,F,22,
33,8,503,9,9,11,['d'],N,['d'],N,None,Y,,,,,Y,Y,F,22,
33,9,504,14,14,11,['k'],Y,['d'],Y,['space'],Y,,,,,Y,Y,F,22,
33,10,505,12,12,11,['d'],Y,['k'],Y,['space'],Y,,,,,Y,Y,F,22,
33,11,506,12,12,11,['k'],N,['k'],Y,['space'],Y,,,,,Y,Y,F,22,
33,12,507,14,14,11,['k'],N,['k'],N,['space'],N,,,,,Y,Y,F,22,
33,13,508,10,10,11,['d'],Y,['k'],N,['space'],N,,,,,Y,Y,F,22,
33,14,509,1,1,11,['k'],N,['k'],N,['space'],N,,,,,Y,Y,F,22,
34,0,510,10,10,11,['d'],N,['d'],Y,['space'],Y,,,,,Y,Y,F,22,
34,1,511,11,11,11,['k'],N,['k'],Y,['space'],Y,,,,,Y,Y,F,22,
34,2,512,7,7,11,['d'],N,['d'],Y,['space'],Y,,,,,Y,Y,F,22,
34,3,513,9,9,11,['k'],Y,['d'],N,['space'],N,,,,,Y,Y,F,22,
34,4,514,3,3,11,['d'],N,['d'],Y,['space'],Y,,,,,Y,Y,F,22,
34,5,515,10,10,11,['k'],Y,['d'],N,['space'],N,,,,,Y,Y,F,22,
34,6,516,14,14,11,['k'],Y,['d'],N,['space'],N,,,,,Y,Y,F,22,
34,7,517,10,10,11,['k'],N,['k'],N,['space'],N,,,,,Y,Y,F,22,
34,8,518,6,6,11,['k'],N,['k'],Y,['space'],Y,,,,,Y,Y,F,22,
34,9,519,13,13,11,['k'],N,['k'],Y,['k'],N,,,,,Y,Y,F,22,
34,10,520,6,6,11,['k'],Y,['d'],N,['space'],N,,,,,Y,Y,F,22,
34,11,521,13,13,11,['k'],N,['k'],Y,['space'],Y,,,,,Y,Y,F,22,
34,12,522,1,1,11,['k'],Y,['d'],N,['space'],N,,,,,Y,Y,F,22,
34,13,523,9,9,11,['k'],Y,['d'],Y,['space'],Y,,,,,Y,Y,F,22,
34,14,524,7,7,11,None,Timed out,,N,['k'],N,,,,,Y,Y,F,22,
35,0,525,0,0,11,['k'],Y,['d'],N,['k'],N,,,,,Y,Y,F,22,
35,1,526,4,4,11,None,Timed out,,Y,['space'],Y,,,,,Y,Y,F,22,
35,2,527,12,12,11,['d'],Y,['k'],Y,None,N,,,,,Y,Y,F,22,
35,3,528,12,12,11,None,Timed out,,Y,['space'],Y,,,,,Y,Y,F,22,
35,4,529,8,8,11,['k'],N,['k'],N,None,Y,,,,,Y,Y,F,22,
35,5,530,11,11,11,['k'],N,['k'],Y,None,N,,,,,Y,Y,F,22,
35,6,531,1,1,11,['k'],Y,['d'],N,None,Y,,,,,Y,Y,F,22,
35,7,532,0,0,11,['d'],N,['d'],Y,None,N,,,,,Y,Y,F,22,
35,8,533,2,2,11,['k'],N,['k'],N,None,Y,,,,,Y,Y,F,22,
35,9,534,14,14,11,['d'],N,['d'],N,None,Y,,,,,Y,Y,F,22,
35,10,535,14,14,11,['k'],Y,['d'],Y,None,N,,,,,Y,Y,F,22,
35,11,536,7,7,11,['k'],N,['k'],N,['d'],N,,,,,Y,Y,F,22,
35,12,537,2,2,11,['d'],N,['d'],Y,['space'],Y,,,,,Y,Y,F,22,
35,13,538,0,0,11,['d'],Y,['k'],Y,None,N,,,,,Y,Y,F,22,
35,14,539,11,11,11,['d'],Y,['k'],N,None,Y,,,,,Y,Y,F,22,
36,0,540,5,5,11,['d'],N,['d'],N,None,Y,,,,,Y,Y,F,22,
36,1,541,12,12,11,['d'],Y,['k'],N,None,Y,,,,,Y,Y,F,22,
36,2,542,11,11,11,['k'],N,['k'],N,None,Y,,,,,Y,Y,F,22,
36,3,543,0,0,11,['d'],N,['d'],Y,['space'],Y,,,,,Y,Y,F,22,
36,4,544,8,8,11,['d'],N,['d'],N,None,Y,,,,,Y,Y,F,22,
36,5,545,7,7,11,['d'],Y,['k'],N,None,Y,,,,,Y,Y,F,22,
36,6,546,8,8,11,['k'],N,['k'],N,None,Y,,,,,Y,Y,F,22,
36,7,547,6,6,11,['d'],Y,['k'],N,None,Y,,,,,Y,Y,F,22,
36,8,548,3,3,11,['k'],N,['k'],Y,None,N,,,,,Y,Y,F,22,
36,9,549,6,6,11,['d'],Y,['k'],N,None,Y,21,28,21,,Y,Y,F,22,
36,10,550,5,5,12,['k'],N,['k'],,,,,,,,Y,Y,F,22,
36,11,551,7,7,12,['k'],N,['k'],,,,,,,,Y,Y,F,22,
36,12,552,11,11,12,['d'],Y,['k'],Y,None,N,,,,,Y,Y,F,22,
36,13,553,2,2,12,['d'],Y,['k'],N,None,Y,,,,,Y,Y,F,22,
36,14,554,13,13,12,['k'],N,['k'],Y,None,N,,,,,Y,Y,F,22,
37,0,555,2,2,12,['d'],N,['d'],N,None,Y,,,,,Y,Y,F,22,
37,1,556,9,9,12,['k'],N,['k'],Y,['space'],Y,,,,,Y,Y,F,22,
37,2,557,13,13,12,['k'],N,['k'],N,None,Y,,,,,Y,Y,F,22,
37,3,558,4,4,12,['d'],N,['d'],N,None,Y,,,,,Y,Y,F,22,
37,4,559,13,13,12,['k'],Y,['d'],Y,None,N,,,,,Y,Y,F,22,
37,5,560,12,12,12,['k'],N,['k'],Y,None,N,,,,,Y,Y,F,22,
37,6,561,6,6,12,['k'],Y,['d'],Y,None,N,,,,,Y,Y,F,22,
37,7,562,9,9,12,['k'],Y,['d'],N,None,Y,,,,,Y,Y,F,22,
37,8,563,13,13,12,['k'],N,['k'],Y,None,N,,,,,Y,Y,F,22,
37,9,564,8,8,12,['k'],N,['k'],Y,None,N,,,,,Y,Y,F,22,
37,10,565,11,11,12,['d'],Y,['k'],N,None,Y,,,,,Y,Y,F,22,
37,11,566,8,8,12,['k'],Y,['d'],N,None,Y,,,,,Y,Y,F,22,
37,12,567,11,11,12,['d'],N,['d'],N,None,Y,,,,,Y,Y,F,22,
37,13,568,4,4,12,['k'],N,['k'],N,None,Y,,,,,Y,Y,F,22,
37,14,569,8,8,12,['d'],N,['d'],N,None,Y,,,,,Y,Y,F,22,
38,0,570,4,4,12,['k'],Y,['d'],N,None,Y,,,,,Y,Y,F,22,
38,1,571,3,3,12,['d'],N,['d'],Y,None,N,,,,,Y,Y,F,22,
38,2,572,9,9,12,['k'],N,['k'],Y,None,N,,,,,Y,Y,F,22,
38,3,573,4,4,12,['d'],Y,['k'],N,None,Y,,,,,Y,Y,F,22,
38,4,574,10,10,12,['k'],N,['k'],N,None,Y,,,,,Y,Y,F,22,
38,5,575,14,14,12,['d'],N,['d'],Y,None,N,,,,,Y,Y,F,22,
38,6,576,2,2,12,['k'],N,['k'],N,None,Y,,,,,Y,Y,F,22,
38,7,577,5,5,12,['d'],N,['d'],Y,None,N,,,,,Y,Y,F,22,
38,8,578,1,1,12,['k'],Y,['d'],Y,None,N,,,,,Y,Y,F,22,
38,9,579,10,10,12,['d'],N,['d'],Y,None,N,,,,,Y,Y,F,22,
38,10,580,5,5,12,None,Timed out,,N,None,Y,,,,,Y,Y,F,22,
38,11,581,7,7,12,['k'],Y,['d'],N,['k'],N,,,,,Y,Y,F,22,
38,12,582,1,1,12,['d'],N,['d'],Y,['space'],Y,,,,,Y,Y,F,22,
38,13,583,0,0,12,['k'],Y,['d'],Y,['space'],Y,,,,,Y,Y,F,22,
38,14,584,11,11,12,['d'],Y,['k'],Y,None,N,,,,,Y,Y,F,22,
39,0,585,13,13,12,['k'],Y,['d'],N,['space'],N,,,,,Y,Y,F,22,
39,1,586,10,10,12,['d'],Y,['k'],N,None,Y,,,,,Y,Y,F,22,
39,2,587,4,4,12,['k'],Y,['d'],N,['space'],N,,,,,Y,Y,F,22,
39,3,588,10,10,12,['d'],N,['d'],Y,['d'],N,,,,,Y,Y,F,22,
39,4,589,1,1,12,['k'],N,['k'],N,['space'],N,,,,,Y,Y,F,22,
39,5,590,5,5,12,['k'],N,['k'],Y,['space'],Y,,,,,Y,Y,F,22,
39,6,591,3,3,12,['d'],Y,['k'],Y,['space'],Y,,,,,Y,Y,F,22,
39,7,592,9,9,12,['k'],N,['k'],N,None,Y,,,,,Y,Y,F,22,
39,8,593,12,12,12,['d'],Y,['k'],Y,['space'],Y,,,,,Y,Y,F,22,
39,9,594,11,11,12,['k'],Y,['d'],Y,['space'],Y,,,,,Y,Y,F,22,
39,10,595,0,0,12,['d'],Y,['k'],N,['space'],N,,,,,Y,Y,F,22,
39,11,596,0,0,12,['k'],N,['k'],N,['space'],N,,,,,Y,Y,F,22,
39,12,597,2,2,12,['d'],Y,['k'],N,['space'],N,,,,,Y,Y,F,22,
39,13,598,12,12,12,['k'],N,['k'],N,['space'],N,,,,,Y,Y,F,22,
39,14,599,9,9,12,['d'],Y,['k'],N,['space'],N,22,24,22,,Y,Y,F,22,
