.thisRepN,.thisTrialN,.thisN,.thisIndex,.thisTrial,Block Number,Key pressed,Category,Correct?,Int Match?,Int Response,Int Correct?,Line Accuracy,Interference Accuracy,Matching Interferences,New instruction shown?,Buttons switched?,Fast?,gender,age,
0,0,0,10,10,1,['d'],['d'],Y,,,,,,,,,,F,,
0,1,1,4,4,1,['k'],['d'],N,,,,,,,,,,F,,
0,2,2,14,14,1,['d'],['d'],Y,N,None,Y,,,,,,,F,,
0,3,3,4,4,1,['k'],['k'],Y,N,None,Y,,,,,,,F,,
0,4,4,2,2,1,['k'],['d'],N,Y,['space'],Y,,,,,,,F,,
0,5,5,9,9,1,['d'],['d'],Y,N,None,Y,,,,,,,F,,
0,6,6,13,13,1,['k'],['k'],Y,Y,None,N,,,,,,,F,,
0,7,7,11,11,1,['d'],['d'],Y,N,None,Y,,,,,,,F,,
0,8,8,10,10,1,['k'],['k'],Y,Y,None,N,,,,,,,F,,
0,9,9,4,4,1,['d'],['d'],Y,Y,['space'],Y,,,,,,,F,,
0,10,10,4,4,1,['d'],['d'],Y,Y,None,N,,,,,,,F,,
0,11,11,1,1,1,['k'],['k'],Y,N,None,Y,,,,,,,F,,
0,12,12,1,1,1,['d'],['k'],N,Y,['space'],Y,,,,,,,F,,
0,13,13,13,13,1,['k'],['d'],N,Y,['space'],Y,,,,,,,F,,
0,14,14,6,6,1,['k'],['d'],N,N,['space'],N,,,,,,,F,,
1,0,15,5,5,1,['d'],['d'],Y,Y,['space'],Y,,,,,,,F,,
1,1,16,5,5,1,['d'],['k'],N,Y,None,N,,,,,,,F,,
1,2,17,2,2,1,['k'],['k'],Y,N,['k'],N,,,,,,,F,,
1,3,18,0,0,1,['k'],['k'],Y,N,['space'],N,,,,,,,F,,
1,4,19,1,1,1,['k'],['k'],Y,Y,None,N,,,,,,,F,,
1,5,20,4,4,1,['d'],['k'],N,N,None,Y,,,,,,,F,,
1,6,21,14,14,1,['k'],['k'],Y,Y,['space'],Y,,,,,,,F,,
1,7,22,0,0,1,['k'],['d'],N,Y,['space'],Y,,,,,,,F,,
1,8,23,7,7,1,['d'],['k'],N,N,None,Y,,,,,,,F,,
1,9,24,2,2,1,['d'],['d'],Y,N,['space'],N,,,,,,,F,,
1,10,25,6,6,1,['k'],['d'],N,Y,None,N,,,,,,,F,,
1,11,26,3,3,1,['d'],['k'],N,Y,['space'],Y,,,,,,,F,,
1,12,27,4,4,1,['d'],['d'],Y,N,['space'],N,,,,,,,F,,
1,13,28,11,11,1,['k'],['d'],N,Y,None,N,,,,,,,F,,
1,14,29,0,0,1,['k'],['k'],Y,N,['space'],N,,,,,,,F,,
2,0,30,9,9,1,['d'],['k'],N,Y,None,N,,,,,,,F,,
2,1,31,7,7,1,['k'],['k'],Y,N,['space'],N,,,,,,,F,,
2,2,32,10,10,1,['k'],['d'],N,Y,None,N,,,,,,,F,,
2,3,33,11,11,1,['d'],['d'],Y,Y,['space'],Y,,,,,,,F,,
2,4,34,5,5,1,['k'],['k'],Y,N,None,Y,,,,,,,F,,
2,5,35,7,7,1,['k'],['k'],Y,Y,['space'],Y,,,,,,,F,,
2,6,36,9,9,1,['d'],['d'],Y,N,['space'],N,,,,,,,F,,
2,7,37,11,11,1,['d'],['d'],Y,Y,None,N,,,,,,,F,,
2,8,38,14,14,1,['k'],['k'],Y,Y,None,N,,,,,,,F,,
2,9,39,9,9,1,['k'],['k'],Y,N,None,Y,,,,,,,F,,
2,10,40,6,6,1,['k'],['k'],Y,Y,None,N,,,,,,,F,,
2,11,41,9,9,1,['d'],['d'],Y,N,None,Y,,,,,,,F,,
2,12,42,10,10,1,['d'],['d'],Y,N,None,Y,,,,,,,F,,
2,13,43,7,7,1,['k'],['k'],Y,Y,['space'],Y,,,,,,,F,,
2,14,44,0,0,1,['k'],['k'],Y,Y,['space'],Y,,,,,,,F,,
3,0,45,9,9,1,['d'],['d'],Y,Y,['space'],Y,,,,,,,F,,
3,1,46,10,10,1,['k'],['k'],Y,N,None,Y,,,,,,,F,,
3,2,47,8,8,1,['k'],['k'],Y,N,None,Y,,,,,,,F,,
3,3,48,13,13,1,['d'],['d'],Y,N,None,Y,,,,,,,F,,
3,4,49,7,7,1,['k'],['k'],Y,N,None,Y,36,28,25,,,,F,,
3,5,50,5,5,2,['d'],['k'],N,,,,,,,,,,F,,
3,6,51,11,11,2,['k'],['d'],N,,,,,,,,,,F,,
3,7,52,12,12,2,['d'],['d'],Y,N,None,Y,,,,,,,F,,
3,8,53,13,13,2,['d'],['d'],Y,N,None,Y,,,,,,,F,,
3,9,54,13,13,2,['k'],['k'],Y,N,['space'],N,,,,,,,F,,
3,10,55,12,12,2,['k'],['k'],Y,Y,['space'],Y,,,,,,,F,,
3,11,56,2,2,2,['d'],['d'],Y,N,None,Y,,,,,,,F,,
3,12,57,1,1,2,['k'],['d'],N,Y,['space'],Y,,,,,,,F,,
3,13,58,0,0,2,['d'],['d'],Y,Y,['space'],Y,,,,,,,F,,
3,14,59,1,1,2,['d'],['d'],Y,N,None,Y,,,,,,,F,,
4,0,60,0,0,2,['d'],['d'],Y,Y,None,N,,,,,,,F,,
4,1,61,7,7,2,['k'],['k'],Y,Y,['space'],Y,,,,,,,F,,
4,2,62,4,4,2,['k'],['k'],Y,Y,['space'],Y,,,,,,,F,,
4,3,63,0,0,2,['k'],['k'],Y,Y,['space'],Y,,,,,,,F,,
4,4,64,11,11,2,['d'],['d'],Y,Y,None,N,,,,,,,F,,
4,5,65,13,13,2,['k'],['k'],Y,Y,['space'],Y,,,,,,,F,,
4,6,66,12,12,2,['d'],['d'],Y,Y,['space'],Y,,,,,,,F,,
4,7,67,5,5,2,['k'],['d'],N,Y,None,N,,,,,,,F,,
4,8,68,2,2,2,['k'],['k'],Y,Y,['space'],Y,,,,,,,F,,
4,9,69,1,1,2,['k'],['k'],Y,Y,['space'],Y,,,,,,,F,,
4,10,70,2,2,2,['d'],['d'],Y,Y,['space'],Y,,,,,,,F,,
4,11,71,14,14,2,['k'],['k'],Y,N,None,Y,,,,,,,F,,
4,12,72,7,7,2,['d'],['d'],Y,N,None,Y,,,,,,,F,,
4,13,73,3,3,2,['d'],['d'],Y,N,None,Y,,,,,,,F,,
4,14,74,9,9,2,['k'],['k'],Y,N,['space'],N,,,,,,,F,,
5,0,75,1,1,2,['d'],['d'],Y,N,None,Y,,,,,,,F,,
5,1,76,1,1,2,['k'],['k'],Y,N,['space'],N,,,,,,,F,,
5,2,77,5,5,2,['d'],['d'],Y,Y,None,N,,,,,,,F,,
5,3,78,13,13,2,['k'],['k'],Y,Y,['space'],Y,,,,,,,F,,
5,4,79,10,10,2,['d'],['d'],Y,N,None,Y,,,,,,,F,,
5,5,80,0,0,2,['k'],['k'],Y,Y,['space'],Y,,,,,,,F,,
5,6,81,13,13,2,['k'],['k'],Y,N,None,Y,,,,,,,F,,
5,7,82,1,1,2,['d'],['d'],Y,Y,['space'],Y,,,,,,,F,,
5,8,83,10,10,2,['k'],['k'],Y,N,None,Y,,,,,,,F,,
5,9,84,8,8,2,['d'],['d'],Y,Y,['space'],Y,,,,,,,F,,
5,10,85,12,12,2,['k'],['k'],Y,Y,None,N,,,,,,,F,,
5,11,86,13,13,2,['d'],['d'],Y,N,['space'],N,,,,,,,F,,
5,12,87,2,2,2,['d'],['d'],Y,Y,['space'],Y,,,,,,,F,,
5,13,88,0,0,2,['k'],['k'],Y,Y,['space'],Y,,,,,,,F,,
5,14,89,12,12,2,['d'],['d'],Y,N,None,Y,,,,,,,F,,
6,0,90,5,5,2,['k'],['k'],Y,Y,['space'],Y,,,,,,,F,,
6,1,91,14,14,2,['d'],['d'],Y,N,None,Y,,,,,,,F,,
6,2,92,11,11,2,['k'],['k'],Y,Y,None,N,,,,,,,F,,
6,3,93,11,11,2,['d'],['d'],Y,Y,['space'],Y,,,,,,,F,,
6,4,94,8,8,2,['k'],['k'],Y,N,None,Y,,,,,,,F,,
6,5,95,4,4,2,['d'],['d'],Y,N,None,Y,,,,,,,F,,
6,6,96,4,4,2,['d'],['d'],Y,N,None,Y,,,,,,,F,,
6,7,97,8,8,2,['k'],['k'],Y,N,['space'],N,,,,,,,F,,
6,8,98,10,10,2,['k'],['k'],Y,N,None,Y,,,,,,,F,,
6,9,99,1,1,2,['k'],['k'],Y,N,None,Y,46,37,25,,,,F,,
6,10,100,12,12,3,['d'],['d'],Y,,,,,,,,,,F,,
6,11,101,13,13,3,['d'],['d'],Y,,,,,,,,,,F,,
6,12,102,14,14,3,['d'],['k'],N,N,None,Y,,,,,,,F,,
6,13,103,11,11,3,['k'],['k'],Y,N,None,Y,,,,,,,F,,
6,14,104,14,14,3,['d'],['d'],Y,N,None,Y,,,,,,,F,,
7,0,105,9,9,3,['d'],['d'],Y,Y,None,N,,,,,,,F,,
7,1,106,10,10,3,['k'],['k'],Y,N,None,Y,,,,,,,F,,
7,2,107,7,7,3,['k'],['k'],Y,N,None,Y,,,,,,,F,,
7,3,108,3,3,3,['d'],['d'],Y,N,['space'],N,,,,,,,F,,
7,4,109,4,4,3,['k'],['k'],Y,Y,['space'],Y,,,,,,,F,,
7,5,110,6,6,3,['k'],['k'],Y,Y,None,N,,,,,,,F,,
7,6,111,10,10,3,['d'],['d'],Y,Y,None,N,,,,,,,F,,
7,7,112,7,7,3,['k'],['k'],Y,Y,None,N,,,,,,,F,,
7,8,113,14,14,3,['k'],['d'],N,N,None,Y,,,,,,,F,,
7,9,114,4,4,3,['d'],['d'],Y,Y,['space'],Y,,,,,,,F,,
7,10,115,11,11,3,['k'],['k'],Y,N,['space'],N,,,,,,,F,,
7,11,116,4,4,3,['k'],['k'],Y,N,None,Y,,,,,,,F,,
7,12,117,5,5,3,['d'],['d'],Y,N,None,Y,,,,,,,F,,
7,13,118,5,5,3,['d'],['d'],Y,N,None,Y,,,,,,,F,,
7,14,119,8,8,3,['d'],['d'],Y,Y,None,N,,,,,,,F,,
8,0,120,11,11,3,['d'],['d'],Y,N,['space'],N,,,,,,,F,,
8,1,121,5,5,3,['d'],['d'],Y,N,None,Y,,,,,,,F,,
8,2,122,3,3,3,['d'],['d'],Y,N,None,Y,,,,,,,F,,
8,3,123,13,13,3,['k'],['k'],Y,N,None,Y,,,,,,,F,,
8,4,124,9,9,3,['d'],['d'],Y,Y,['space'],Y,,,,,,,F,,
8,5,125,1,1,3,['d'],['k'],N,Y,None,N,,,,,,,F,,
8,6,126,12,12,3,['d'],['d'],Y,N,['space'],N,,,,,,,F,,
8,7,127,11,11,3,['d'],['d'],Y,N,None,Y,,,,,,,F,,
8,8,128,6,6,3,['k'],['k'],Y,Y,None,N,,,,,,,F,,
8,9,129,8,8,3,['d'],['d'],Y,Y,['space'],Y,,,,,,,F,,
8,10,130,5,5,3,['k'],['k'],Y,N,None,Y,,,,,,,F,,
8,11,131,12,12,3,['k'],['k'],Y,Y,None,N,,,,,,,F,,
8,12,132,9,9,3,['k'],['k'],Y,Y,None,N,,,,,,,F,,
8,13,133,3,3,3,['d'],['d'],Y,Y,['d'],N,,,,,,,F,,
8,14,134,2,2,3,['k'],['k'],Y,N,None,Y,,,,,,,F,,
9,0,135,13,13,3,['k'],['k'],Y,Y,None,N,,,,,,,F,,
9,1,136,8,8,3,['k'],['k'],Y,Y,None,N,,,,,,,F,,
9,2,137,3,3,3,['d'],['d'],Y,N,None,Y,,,,,,,F,,
9,3,138,13,13,3,['k'],['k'],Y,Y,None,N,,,,,,,F,,
9,4,139,11,11,3,['k'],['k'],Y,Y,['space'],Y,,,,,,,F,,
9,5,140,1,1,3,['d'],['d'],Y,N,None,Y,,,,,,,F,,
9,6,141,9,9,3,['k'],['k'],Y,Y,['space'],Y,,,,,,,F,,
9,7,142,12,12,3,['k'],['k'],Y,N,None,Y,,,,,,,F,,
9,8,143,9,9,3,['d'],['d'],Y,Y,['space'],Y,,,,,,,F,,
9,9,144,11,11,3,['k'],['k'],Y,Y,None,N,,,,,,,F,,
9,10,145,10,10,3,['k'],['k'],Y,Y,['space'],Y,,,,,,,F,,
9,11,146,7,7,3,['k'],['k'],Y,N,None,Y,,,,,,,F,,
9,12,147,4,4,3,['k'],['k'],Y,N,None,Y,,,,,,,F,,
9,13,148,3,3,3,['d'],['k'],N,N,None,Y,,,,,,,F,,
9,14,149,10,10,3,['k'],['k'],Y,N,None,Y,46,30,22,,,,F,,
10,0,150,8,8,4,['k'],['k'],Y,,,,,,,,,,F,,
10,1,151,12,12,4,['k'],['k'],Y,,,,,,,,,,F,,
10,2,152,2,2,4,['d'],['d'],Y,N,None,Y,,,,,,,F,,
10,3,153,7,7,4,['k'],['k'],Y,Y,['space'],Y,,,,,,,F,,
10,4,154,5,5,4,['d'],['d'],Y,N,None,Y,,,,,,,F,,
10,5,155,8,8,4,['k'],['k'],Y,N,None,Y,,,,,,,F,,
10,6,156,10,10,4,['k'],['k'],Y,N,None,Y,,,,,,,F,,
10,7,157,7,7,4,['d'],['d'],Y,Y,None,N,,,,,,,F,,
10,8,158,3,3,4,['d'],['k'],N,N,None,Y,,,,,,,F,,
10,9,159,6,6,4,['k'],['k'],Y,Y,['k'],N,,,,,,,F,,
10,10,160,2,2,4,['k'],['k'],Y,Y,None,N,,,,,,,F,,
10,11,161,3,3,4,['d'],['k'],N,N,None,Y,,,,,,,F,,
10,12,162,3,3,4,['k'],['k'],Y,Y,None,N,,,,,,,F,,
10,13,163,8,8,4,['k'],['k'],Y,N,['space'],N,,,,,,,F,,
10,14,164,0,0,4,['k'],['k'],Y,N,None,Y,,,,,,,F,,
11,0,165,14,14,4,['d'],['d'],Y,Y,['space'],Y,,,,,,,F,,
11,1,166,14,14,4,['d'],['d'],Y,Y,None,N,,,,,,,F,,
11,2,167,7,7,4,['k'],['k'],Y,Y,None,N,,,,,,,F,,
11,3,168,12,12,4,['k'],['k'],Y,N,None,Y,,,,,,,F,,
11,4,169,1,1,4,['k'],['k'],Y,N,None,Y,,,,,,,F,,
11,5,170,12,12,4,['k'],['k'],Y,N,None,Y,,,,,,,F,,
11,6,171,5,5,4,['k'],['k'],Y,Y,None,N,,,,,,,F,,
11,7,172,4,4,4,['k'],['d'],N,N,None,Y,,,,,,,F,,
11,8,173,13,13,4,['d'],['d'],Y,Y,None,N,,,,,,,F,,
11,9,174,12,12,4,['d'],['d'],Y,Y,None,N,,,,,,,F,,
11,10,175,10,10,4,['d'],['d'],Y,N,None,Y,,,,,,,F,,
11,11,176,6,6,4,['k'],['k'],Y,N,None,Y,,,,,,,F,,
11,12,177,4,4,4,['d'],['d'],Y,N,None,Y,,,,,,,F,,
11,13,178,0,0,4,['d'],['d'],Y,Y,['space'],Y,,,,,,,F,,
11,14,179,4,4,4,['k'],['k'],Y,N,None,Y,,,,,,,F,,
12,0,180,4,4,4,['d'],['d'],Y,N,None,Y,,,,,,,F,,
12,1,181,3,3,4,['k'],['k'],Y,N,None,Y,,,,,,,F,,
12,2,182,14,14,4,['d'],['k'],N,N,['space'],N,,,,,,,F,,
12,3,183,2,2,4,['d'],['d'],Y,Y,None,N,,,,,,,F,,
12,4,184,8,8,4,['d'],['d'],Y,N,None,Y,,,,,,,F,,
12,5,185,12,12,4,['k'],['k'],Y,N,None,Y,,,,,,,F,,
12,6,186,8,8,4,['k'],['k'],Y,Y,['space'],Y,,,,,,,F,,
12,7,187,11,11,4,['d'],['d'],Y,N,None,Y,,,,,,,F,,
12,8,188,1,1,4,['k'],['k'],Y,N,None,Y,,,,,,,F,,
12,9,189,1,1,4,['d'],['d'],Y,Y,['space'],Y,,,,,,,F,,
12,10,190,14,14,4,['k'],['k'],Y,N,['space'],N,,,,,,,F,,
12,11,191,10,10,4,['d'],['d'],Y,Y,['space'],Y,,,,,,,F,,
12,12,192,4,4,4,['k'],['k'],Y,N,None,Y,,,,,,,F,,
12,13,193,7,7,4,['k'],['k'],Y,N,None,Y,,,,,,,F,,
12,14,194,0,0,4,['d'],['d'],Y,Y,['space'],Y,,,,,,,F,,
13,0,195,12,12,4,['d'],['d'],Y,Y,['space'],Y,,,,,,,F,,
13,1,196,3,3,4,['k'],['k'],Y,Y,None,N,,,,,,,F,,
13,2,197,9,9,4,['k'],['k'],Y,N,None,Y,,,,,,,F,,
13,3,198,4,4,4,['k'],['k'],Y,Y,['space'],Y,,,,,,,F,,
13,4,199,0,0,4,['k'],['k'],Y,N,['space'],N,46,33,20,,,,F,,
13,5,200,0,0,5,['k'],['k'],Y,,,,,,,,,,F,,
13,6,201,11,11,5,['d'],['d'],Y,,,,,,,,,,F,,
13,7,202,1,1,5,['d'],['d'],Y,N,None,Y,,,,,,,F,,
13,8,203,9,9,5,['d'],['d'],Y,Y,['space'],Y,,,,,,,F,,
13,9,204,5,5,5,['k'],['k'],Y,N,None,Y,,,,,,,F,,
13,10,205,13,13,5,['d'],['d'],Y,Y,None,N,,,,,,,F,,
13,11,206,4,4,5,['k'],['k'],Y,N,['space'],N,,,,,,,F,,
13,12,207,6,6,5,['k'],['k'],Y,Y,['space'],Y,,,,,,,F,,
13,13,208,8,8,5,['d'],['k'],N,N,None,Y,,,,,,,F,,
13,14,209,6,6,5,['d'],['d'],Y,N,None,Y,,,,,,,F,,
14,0,210,5,5,5,['d'],['d'],Y,N,None,Y,,,,,,,F,,
14,1,211,8,8,5,['k'],['d'],N,Y,['space'],Y,,,,,,,F,,
14,2,212,7,7,5,['d'],['d'],Y,Y,None,N,,,,,,,F,,
14,3,213,9,9,5,['k'],['k'],Y,Y,['space'],Y,,,,,,,F,,
14,4,214,10,10,5,['d'],['d'],Y,N,None,Y,,,,,,,F,,
14,5,215,14,14,5,['d'],['d'],Y,Y,['space'],Y,,,,,,,F,,
14,6,216,10,10,5,['k'],['k'],Y,Y,['space'],Y,,,,,,,F,,
14,7,217,13,13,5,['d'],['d'],Y,Y,None,N,,,,,,,F,,
14,8,218,7,7,5,['k'],['k'],Y,Y,None,N,,,,,,,F,,
14,9,219,2,2,5,['d'],['d'],Y,N,None,Y,,,,,,,F,,
14,10,220,8,8,5,['k'],['k'],Y,Y,['space'],Y,,,,,,,F,,
14,11,221,5,5,5,['k'],['k'],Y,Y,['space'],Y,,,,,,,F,,
14,12,222,6,6,5,['k'],['k'],Y,N,None,Y,,,,,,,F,,
14,13,223,11,11,5,['d'],['d'],Y,Y,['space'],Y,,,,,,,F,,
14,14,224,9,9,5,['k'],['k'],Y,Y,['space'],Y,,,,,,,F,,
15,0,225,1,1,5,['d'],['d'],Y,N,None,Y,,,,,,,F,,
15,1,226,2,2,5,['d'],['d'],Y,N,None,Y,,,,,,,F,,
15,2,227,9,9,5,['k'],['d'],N,N,None,Y,,,,,,,F,,
15,3,228,5,5,5,['k'],['k'],Y,Y,None,N,,,,,,,F,,
15,4,229,6,6,5,['d'],['d'],Y,N,None,Y,,,,,,,F,,
15,5,230,10,10,5,['k'],['k'],Y,N,None,Y,,,,,,,F,,
15,6,231,3,3,5,['d'],['d'],Y,Y,['space'],Y,,,,,,,F,,
15,7,232,5,5,5,['d'],['d'],Y,N,None,Y,,,,,,,F,,
15,8,233,10,10,5,['d'],['d'],Y,N,None,Y,,,,,,,F,,
15,9,234,0,0,5,['d'],['d'],Y,N,None,Y,,,,,,,F,,
15,10,235,0,0,5,['d'],['d'],Y,N,None,Y,,,,,,,F,,
15,11,236,7,7,5,['d'],['d'],Y,N,None,Y,,,,,,,F,,
15,12,237,11,11,5,['d'],['k'],N,N,['space'],N,,,,,,,F,,
15,13,238,1,1,5,['d'],['d'],Y,N,['space'],N,,,,,,,F,,
15,14,239,6,6,5,['k'],['k'],Y,N,None,Y,,,,,,,F,,
16,0,240,3,3,5,['d'],['d'],Y,N,None,Y,,,,,,,F,,
16,1,241,3,3,5,['d'],['d'],Y,N,None,Y,,,,,,,F,,
16,2,242,2,2,5,['k'],['k'],Y,Y,['space'],Y,,,,,,,F,,
16,3,243,5,5,5,['d'],['d'],Y,N,None,Y,,,,,,,F,,
16,4,244,0,0,5,['k'],['k'],Y,Y,['space'],Y,,,,,,,F,,
16,5,245,11,11,5,['d'],['d'],Y,N,['space'],N,,,,,,,F,,
16,6,246,13,13,5,['k'],['d'],N,N,['space'],N,,,,,,,F,,
16,7,247,7,7,5,['k'],['k'],Y,N,None,Y,,,,,,,F,,
16,8,248,12,12,5,['d'],['d'],Y,N,None,Y,,,,,,,F,,
16,9,249,13,13,5,['d'],['d'],Y,N,None,Y,45,38,18,,,,F,,
16,10,250,2,2,6,['d'],['d'],Y,,,,,,,,,,F,,
16,11,251,2,2,6,['k'],['k'],Y,,,,,,,,,,F,,
16,12,252,4,4,6,['k'],['k'],Y,Y,['space'],Y,,,,,,,F,,
16,13,253,3,3,6,['k'],['k'],Y,N,None,Y,,,,,,,F,,
16,14,254,6,6,6,['k'],['k'],Y,Y,['space'],Y,,,,,,,F,,
17,0,255,8,8,6,['k'],['k'],Y,N,None,Y,,,,,,,F,,
17,1,256,8,8,6,['d'],['d'],Y,N,None,Y,,,,,,,F,,
17,2,257,13,13,6,['d'],['d'],Y,Y,['space'],Y,,,,,,,F,,
17,3,258,4,4,6,['d'],['d'],Y,N,None,Y,,,,,,,F,,
17,4,259,3,3,6,['d'],['d'],Y,N,None,Y,,,,,,,F,,
17,5,260,6,6,6,['k'],['k'],Y,N,None,Y,,,,,,,F,,
17,6,261,14,14,6,['k'],['k'],Y,Y,['space'],Y,,,,,,,F,,
17,7,262,0,0,6,['k'],['k'],Y,N,None,Y,,,,,,,F,,
17,8,263,12,12,6,['d'],['d'],Y,N,None,Y,,,,,,,F,,
17,9,264,8,8,6,['k'],['k'],Y,N,None,Y,,,,,,,F,,
17,10,265,2,2,6,['k'],['k'],Y,Y,None,N,,,,,,,F,,
17,11,266,1,1,6,['d'],['d'],Y,Y,['space'],Y,,,,,,,F,,
17,12,267,2,2,6,['d'],['d'],Y,Y,['space'],Y,,,,,,,F,,
17,13,268,5,5,6,['d'],['d'],Y,Y,['space'],Y,,,,,,,F,,
17,14,269,8,8,6,['d'],['d'],Y,N,None,Y,,,,,,,F,,
18,0,270,0,0,6,['k'],['k'],Y,Y,['space'],Y,,,,,,,F,,
18,1,271,9,9,6,['d'],['k'],N,Y,['space'],Y,,,,,,,F,,
18,2,272,14,14,6,['k'],['k'],Y,N,None,Y,,,,,,,F,,
18,3,273,5,5,6,['d'],['d'],Y,Y,None,N,,,,,,,F,,
18,4,274,14,14,6,['k'],['k'],Y,Y,None,N,,,,,,,F,,
18,5,275,12,12,6,['d'],['d'],Y,N,None,Y,,,,,,,F,,
18,6,276,5,5,6,['d'],['d'],Y,N,None,Y,,,,,,,F,,
18,7,277,4,4,6,['d'],['d'],Y,N,None,Y,,,,,,,F,,
18,8,278,8,8,6,['d'],['d'],Y,N,['space'],N,,,,,,,F,,
18,9,279,12,12,6,['k'],['k'],Y,Y,None,N,,,,,,,F,,
18,10,280,10,10,6,['d'],['d'],Y,N,None,Y,,,,,,,F,,
18,11,281,11,11,6,['d'],['d'],Y,Y,None,N,,,,,,,F,,
18,12,282,9,9,6,['k'],['k'],Y,Y,None,N,,,,,,,F,,
18,13,283,2,2,6,['d'],['d'],Y,Y,None,N,,,,,,,F,,
18,14,284,6,6,6,['k'],['k'],Y,N,None,Y,,,,,,,F,,
19,0,285,14,14,6,['k'],['k'],Y,N,None,Y,,,,,,,F,,
19,1,286,7,7,6,['k'],['k'],Y,Y,['space'],Y,,,,,,,F,,
19,2,287,13,13,6,['d'],['d'],Y,Y,None,N,,,,,,,F,,
19,3,288,7,7,6,['k'],['k'],Y,Y,None,N,,,,,,,F,,
19,4,289,6,6,6,['k'],['k'],Y,Y,None,N,,,,,,,F,,
19,5,290,10,10,6,['d'],['d'],Y,N,None,Y,,,,,,,F,,
19,6,291,7,7,6,['d'],['d'],Y,N,['space'],N,,,,,,,F,,
19,7,292,9,9,6,['k'],['k'],Y,Y,None,N,,,,,,,F,,
19,8,293,0,0,6,['d'],['d'],Y,N,None,Y,,,,,,,F,,
19,9,294,10,10,6,['k'],['k'],Y,N,None,Y,,,,,,,F,,
19,10,295,11,11,6,['k'],['k'],Y,N,None,Y,,,,,,,F,,
19,11,296,0,0,6,['d'],['k'],N,N,None,Y,,,,,,,F,,
19,12,297,13,13,6,['k'],['k'],Y,Y,None,N,,,,,,,F,,
19,13,298,6,6,6,['d'],['d'],Y,Y,None,N,,,,,,,F,,
19,14,299,8,8,6,['k'],['k'],Y,Y,None,N,48,32,24,,,,F,,
20,0,300,4,4,7,['k'],['k'],Y,,,,,,,,,,F,,
20,1,301,6,6,7,['k'],['k'],Y,,,,,,,,,,F,,
20,2,302,4,4,7,['d'],['d'],Y,N,None,Y,,,,,,,F,,
20,3,303,8,8,7,['k'],['k'],Y,N,None,Y,,,,,,,F,,
20,4,304,3,3,7,['d'],['d'],Y,Y,['space'],Y,,,,,,,F,,
20,5,305,11,11,7,['k'],['d'],N,N,None,Y,,,,,,,F,,
20,6,306,0,0,7,['k'],['k'],Y,N,None,Y,,,,,,,F,,
20,7,307,5,5,7,['d'],['d'],Y,Y,None,N,,,,,,,F,,
20,8,308,10,10,7,['d'],['d'],Y,N,None,Y,,,,,,,F,,
20,9,309,0,0,7,['d'],['d'],Y,N,None,Y,,,,,,,F,,
20,10,310,14,14,7,['k'],['k'],Y,Y,['space'],Y,,,,,,,F,,
20,11,311,13,13,7,['d'],['d'],Y,N,None,Y,,,,,,,F,,
20,12,312,6,6,7,['d'],['d'],Y,N,None,Y,,,,,,,F,,
20,13,313,1,1,7,['d'],['d'],Y,N,['space'],N,,,,,,,F,,
20,14,314,12,12,7,['d'],['d'],Y,N,None,Y,,,,,,,F,,
21,0,315,12,12,7,['k'],['k'],Y,N,None,Y,,,,,,,F,,
21,1,316,9,9,7,['d'],['d'],Y,N,None,Y,,,,,,,F,,
21,2,317,12,12,7,['d'],['d'],Y,N,None,Y,,,,,,,F,,
21,3,318,5,5,7,['k'],['k'],Y,Y,None,N,,,,,,,F,,
21,4,319,0,0,7,['k'],['k'],Y,N,None,Y,,,,,,,F,,
21,5,320,12,12,7,['d'],['d'],Y,Y,None,N,,,,,,,F,,
21,6,321,11,11,7,['d'],['d'],Y,N,None,Y,,,,,,,F,,
21,7,322,3,3,7,['d'],['d'],Y,Y,None,N,,,,,,,F,,
21,8,323,11,11,7,['k'],['k'],Y,N,None,Y,,,,,,,F,,
21,9,324,4,4,7,['k'],['k'],Y,N,None,Y,,,,,,,F,,
21,10,325,14,14,7,['d'],['d'],Y,N,['space'],N,,,,,,,F,,
21,11,326,6,6,7,['k'],['k'],Y,Y,['space'],Y,,,,,,,F,,
21,12,327,6,6,7,['d'],['k'],N,N,None,Y,,,,,,,F,,
21,13,328,6,6,7,['k'],['k'],Y,N,['space'],N,,,,,,,F,,
21,14,329,3,3,7,['d'],['d'],Y,N,None,Y,,,,,,,F,,
22,0,330,6,6,7,['k'],['k'],Y,Y,['space'],Y,,,,,,,F,,
22,1,331,11,11,7,['k'],['k'],Y,Y,None,N,,,,,,,F,,
22,2,332,14,14,7,['d'],['d'],Y,N,None,Y,,,,,,,F,,
22,3,333,3,3,7,['d'],['d'],Y,Y,None,N,,,,,,,F,,
22,4,334,6,6,7,['d'],['d'],Y,Y,None,N,,,,,,,F,,
22,5,335,2,2,7,['d'],['d'],Y,N,None,Y,,,,,,,F,,
22,6,336,5,5,7,['k'],['k'],Y,Y,None,N,,,,,,,F,,
22,7,337,11,11,7,['k'],['k'],Y,Y,None,N,,,,,,,F,,
22,8,338,8,8,7,['d'],['d'],Y,N,None,Y,,,,,,,F,,
22,9,339,9,9,7,['d'],['d'],Y,Y,None,N,,,,,,,F,,
22,10,340,12,12,7,['k'],['k'],Y,Y,['space'],Y,,,,,,,F,,
22,11,341,2,2,7,['k'],['k'],Y,Y,['space'],Y,,,,,,,F,,
22,12,342,11,11,7,['d'],['d'],Y,Y,['space'],Y,,,,,,,F,,
22,13,343,10,10,7,['k'],['d'],N,N,None,Y,,,,,,,F,,
22,14,344,0,0,7,['k'],['k'],Y,N,None,Y,,,,,,,F,,
23,0,345,9,9,7,['d'],['d'],Y,Y,['space'],Y,,,,,,,F,,
23,1,346,11,11,7,['k'],['k'],Y,Y,['k'],N,,,,,,,F,,
23,2,347,4,4,7,['d'],['d'],Y,N,None,Y,,,,,,,F,,
23,3,348,1,1,7,['d'],['d'],Y,Y,None,N,,,,,,,F,,
23,4,349,6,6,7,['k'],['k'],Y,N,None,Y,47,33,20,,,,F,,
23,5,350,9,9,8,['k'],['k'],Y,,,,,,,,,,F,,
23,6,351,2,2,8,['d'],['d'],Y,,,,,,,,,,F,,
23,7,352,14,14,8,['d'],['d'],Y,N,None,Y,,,,,,,F,,
23,8,353,13,13,8,['k'],['k'],Y,N,None,Y,,,,,,,F,,
23,9,354,6,6,8,['d'],['d'],Y,N,['space'],N,,,,,,,F,,
23,10,355,10,10,8,['k'],['k'],Y,Y,None,N,,,,,,,F,,
23,11,356,1,1,8,['d'],['d'],Y,N,None,Y,,,,,,,F,,
23,12,357,13,13,8,None,,Timed out,Y,None,N,,,,,,,F,,
23,13,358,12,12,8,['d'],['d'],Y,Y,None,N,,,,,,,F,,
23,14,359,8,8,8,['d'],['d'],Y,Y,['space'],Y,,,,,,,F,,
24,0,360,1,1,8,['d'],['d'],Y,Y,None,N,,,,,,,F,,
24,1,361,1,1,8,['k'],['k'],Y,N,['space'],N,,,,,,,F,,
24,2,362,9,9,8,['d'],['d'],Y,N,None,Y,,,,,,,F,,
24,3,363,3,3,8,['d'],['d'],Y,N,['space'],N,,,,,,,F,,
24,4,364,5,5,8,['d'],['d'],Y,Y,None,N,,,,,,,F,,
24,5,365,0,0,8,['d'],['d'],Y,N,None,Y,,,,,,,F,,
24,6,366,7,7,8,['k'],['k'],Y,N,None,Y,,,,,,,F,,
24,7,367,5,5,8,['k'],['k'],Y,Y,None,N,,,,,,,F,,
24,8,368,14,14,8,['d'],['d'],Y,N,None,Y,,,,,,,F,,
24,9,369,7,7,8,['k'],['k'],Y,N,['space'],N,,,,,,,F,,
24,10,370,5,5,8,['k'],['k'],Y,N,['d'],N,,,,,,,F,,
24,11,371,3,3,8,['d'],['d'],Y,Y,['space'],Y,,,,,,,F,,
24,12,372,1,1,8,['k'],['k'],Y,N,None,Y,,,,,,,F,,
24,13,373,6,6,8,['d'],['d'],Y,N,None,Y,,,,,,,F,,
24,14,374,7,7,8,['d'],['d'],Y,N,None,Y,,,,,,,F,,
25,0,375,11,11,8,['d'],['d'],Y,N,None,Y,,,,,,,F,,
25,1,376,11,11,8,['k'],['k'],Y,N,None,Y,,,,,,,F,,
25,2,377,1,1,8,['k'],['k'],Y,Y,None,N,,,,,,,F,,
25,3,378,14,14,8,['k'],['k'],Y,Y,None,N,,,,,,,F,,
25,4,379,6,6,8,['k'],['d'],N,Y,['space'],Y,,,,,,,F,,
25,5,380,10,10,8,['k'],['k'],Y,Y,None,N,,,,,,,F,,
25,6,381,13,13,8,['d'],['d'],Y,Y,['space'],Y,,,,,,,F,,
25,7,382,12,12,8,['k'],['k'],Y,Y,None,N,,,,,,,F,,
25,8,383,9,9,8,['d'],['d'],Y,Y,['space'],Y,,,,,,,F,,
25,9,384,6,6,8,['k'],['k'],Y,N,None,Y,,,,,,,F,,
25,10,385,5,5,8,['k'],['k'],Y,Y,['space'],Y,,,,,,,F,,
25,11,386,11,11,8,['k'],['k'],Y,N,None,Y,,,,,,,F,,
25,12,387,4,4,8,['d'],['d'],Y,Y,['space'],Y,,,,,,,F,,
25,13,388,9,9,8,['k'],['d'],N,Y,['k'],N,,,,,,,F,,
25,14,389,3,3,8,['d'],['k'],N,N,None,Y,,,,,,,F,,
26,0,390,5,5,8,['d'],['d'],Y,Y,['space'],Y,,,,,,,F,,
26,1,391,3,3,8,['k'],['k'],Y,Y,['space'],Y,,,,,,,F,,
26,2,392,10,10,8,['d'],['d'],Y,N,['space'],N,,,,,,,F,,
26,3,393,7,7,8,['k'],['k'],Y,N,None,Y,,,,,,,F,,
26,4,394,14,14,8,['k'],['k'],Y,Y,['space'],Y,,,,,,,F,,
26,5,395,13,13,8,['k'],['k'],Y,N,None,Y,,,,,,,F,,
26,6,396,1,1,8,['d'],['d'],Y,N,None,Y,,,,,,,F,,
26,7,397,0,0,8,['k'],['k'],Y,N,None,Y,,,,,,,F,,
26,8,398,4,4,8,['k'],['k'],Y,Y,None,N,,,,,,,F,,
26,9,399,5,5,8,['d'],['d'],Y,N,None,Y,46,30,22,,,,F,,
26,10,400,2,2,9,['k'],['k'],Y,,,,,,,,,,F,,
26,11,401,12,12,9,['d'],['k'],N,,,,,,,,,,F,,
26,12,402,9,9,9,['k'],['k'],Y,Y,['space'],Y,,,,,,,F,,
26,13,403,10,10,9,['d'],['d'],Y,N,None,Y,,,,,,,F,,
26,14,404,8,8,9,['d'],['d'],Y,Y,['space'],Y,,,,,,,F,,
27,0,405,9,9,9,['d'],['d'],Y,Y,['space'],Y,,,,,,,F,,
27,1,406,2,2,9,['d'],['d'],Y,N,None,Y,,,,,,,F,,
27,2,407,7,7,9,['k'],['k'],Y,N,None,Y,,,,,,,F,,
27,3,408,5,5,9,['k'],['k'],Y,N,['space'],N,,,,,,,F,,
27,4,409,6,6,9,['d'],['d'],Y,Y,None,N,,,,,,,F,,
27,5,410,9,9,9,['k'],['k'],Y,N,None,Y,,,,,,,F,,
27,6,411,13,13,9,['k'],['k'],Y,N,None,Y,,,,,,,F,,
27,7,412,2,2,9,['k'],['k'],Y,Y,None,N,,,,,,,F,,
27,8,413,2,2,9,['d'],['d'],Y,N,None,Y,,,,,,,F,,
27,9,414,14,14,9,['d'],['d'],Y,Y,None,N,,,,,,,F,,
27,10,415,12,12,9,['k'],['k'],Y,N,None,Y,,,,,,,F,,
27,11,416,4,4,9,['k'],['k'],Y,Y,['space'],Y,,,,,,,F,,
27,12,417,14,14,9,['d'],['d'],Y,Y,None,N,,,,,,,F,,
27,13,418,1,1,9,['k'],['k'],Y,Y,None,N,,,,,,,F,,
27,14,419,4,4,9,['d'],['d'],Y,N,None,Y,,,,,,,F,,
28,0,420,13,13,9,['d'],['d'],Y,Y,None,N,,,,,,,F,,
28,1,421,1,1,9,['d'],['d'],Y,Y,None,N,,,,,,,F,,
28,2,422,9,9,9,['d'],['d'],Y,N,None,Y,,,,,,,F,,
28,3,423,8,8,9,['d'],['d'],Y,Y,None,N,,,,,,,F,,
28,4,424,11,11,9,['k'],['k'],Y,N,None,Y,,,,,,,F,,
28,5,425,10,10,9,['k'],['k'],Y,Y,None,N,,,,,,,F,,
28,6,426,12,12,9,['k'],['k'],Y,Y,['space'],Y,,,,,,,F,,
28,7,427,13,13,9,['d'],['d'],Y,N,['space'],N,,,,,,,F,,
28,8,428,7,7,9,['k'],['k'],Y,Y,['space'],Y,,,,,,,F,,
28,9,429,5,5,9,['k'],['k'],Y,Y,['space'],Y,,,,,,,F,,
28,10,430,12,12,9,['d'],['d'],Y,Y,['space'],Y,,,,,,,F,,
28,11,431,0,0,9,['d'],['d'],Y,N,None,Y,,,,,,,F,,
28,12,432,0,0,9,['k'],['k'],Y,N,['space'],N,,,,,,,F,,
28,13,433,13,13,9,['k'],['k'],Y,Y,['d'],N,,,,,,,F,,
28,14,434,1,1,9,['k'],['k'],Y,N,['space'],N,,,,,,,F,,
29,0,435,10,10,9,['d'],['d'],Y,N,['space'],N,,,,,,,F,,
29,1,436,6,6,9,['k'],['k'],Y,Y,['space'],Y,,,,,,,F,,
29,2,437,3,3,9,['d'],['k'],N,N,None,Y,,,,,,,F,,
29,3,438,8,8,9,['k'],['k'],Y,N,['space'],N,,,,,,,F,,
29,4,439,10,10,9,['d'],['d'],Y,Y,None,N,,,,,,,F,,
29,5,440,11,11,9,['k'],['k'],Y,N,None,Y,,,,,,,F,,
29,6,441,4,4,9,['k'],['k'],Y,Y,['space'],Y,,,,,,,F,,
29,7,442,2,2,9,['k'],['k'],Y,N,None,Y,,,,,,,F,,
29,8,443,10,10,9,['d'],['d'],Y,Y,['space'],Y,,,,,,,F,,
29,9,444,10,10,9,['d'],['d'],Y,N,None,Y,,,,,,,F,,
29,10,445,7,7,9,['k'],['k'],Y,N,None,Y,,,,,,,F,,
29,11,446,7,7,9,['d'],['d'],Y,Y,['space'],Y,,,,,,,F,,
29,12,447,7,7,9,['d'],['d'],Y,N,None,Y,,,,,,,F,,
29,13,448,4,4,9,['k'],['k'],Y,N,None,Y,,,,,,,F,,
29,14,449,0,0,9,['k'],['k'],Y,Y,None,N,48,30,24,,,,F,,
30,0,450,3,3,10,['k'],['k'],Y,,,,,,,,,,F,,
30,1,451,11,11,10,['k'],['k'],Y,,,,,,,,,,F,,
30,2,452,2,2,10,['d'],['d'],Y,Y,['space'],Y,,,,,,,F,,
30,3,453,14,14,10,['k'],['k'],Y,N,None,Y,,,,,,,F,,
30,4,454,0,0,10,['d'],['d'],Y,Y,['space'],Y,,,,,,,F,,
30,5,455,14,14,10,['d'],['d'],Y,N,None,Y,,,,,,,F,,
30,6,456,9,9,10,['k'],['k'],Y,N,None,Y,,,,,,,F,,
30,7,457,1,1,10,['d'],['d'],Y,Y,None,N,,,,,,,F,,
30,8,458,13,13,10,['k'],['k'],Y,N,None,Y,,,,,,,F,,
30,9,459,6,6,10,['k'],['k'],Y,Y,['space'],Y,,,,,,,F,,
30,10,460,10,10,10,['d'],['d'],Y,Y,['space'],Y,,,,,,,F,,
30,11,461,13,13,10,['d'],['k'],N,Y,None,N,,,,,,,F,,
30,12,462,7,7,10,['d'],['d'],Y,N,['space'],N,,,,,,,F,,
30,13,463,14,14,10,['k'],['k'],Y,N,None,Y,,,,,,,F,,
30,14,464,2,2,10,['d'],['d'],Y,N,['space'],N,,,,,,,F,,
31,0,465,4,4,10,['k'],['k'],Y,Y,None,N,,,,,,,F,,
31,1,466,3,3,10,['d'],['d'],Y,Y,None,N,,,,,,,F,,
31,2,467,4,4,10,['d'],['d'],Y,Y,None,N,,,,,,,F,,
31,3,468,8,8,10,['k'],['k'],Y,N,None,Y,,,,,,,F,,
31,4,469,6,6,10,['k'],['k'],Y,Y,['space'],Y,,,,,,,F,,
31,5,470,3,3,10,['k'],['d'],N,N,None,Y,,,,,,,F,,
31,6,471,6,6,10,['d'],['d'],Y,Y,['space'],Y,,,,,,,F,,
31,7,472,14,14,10,['k'],['d'],N,Y,None,N,,,,,,,F,,
31,8,473,12,12,10,['d'],['k'],N,Y,None,N,,,,,,,F,,
31,9,474,11,11,10,['k'],['k'],Y,N,None,Y,,,,,,,F,,
31,10,475,7,7,10,['d'],['d'],Y,N,None,Y,,,,,,,F,,
31,11,476,6,6,10,['k'],['k'],Y,N,None,Y,,,,,,,F,,
31,12,477,3,3,10,['k'],['d'],N,Y,None,N,,,,,,,F,,
31,13,478,0,0,10,['d'],['d'],Y,N,None,Y,,,,,,,F,,
31,14,479,9,9,10,['d'],['d'],Y,Y,None,N,,,,,,,F,,
32,0,480,0,0,10,['k'],['k'],Y,Y,None,N,,,,,,,F,,
32,1,481,3,3,10,['k'],['k'],Y,N,None,Y,,,,,,,F,,
32,2,482,9,9,10,['d'],['d'],Y,Y,None,N,,,,,,,F,,
32,3,483,2,2,10,['d'],['d'],Y,Y,['space'],Y,,,,,,,F,,
32,4,484,7,7,10,['d'],['d'],Y,N,['space'],N,,,,,,,F,,
32,5,485,9,9,10,['k'],['k'],Y,N,None,Y,,,,,,,F,,
32,6,486,4,4,10,['d'],['d'],Y,N,None,Y,,,,,,,F,,
32,7,487,5,5,10,['d'],['d'],Y,N,None,Y,,,,,,,F,,
32,8,488,8,8,10,['d'],['d'],Y,N,None,Y,,,,,,,F,,
32,9,489,3,3,10,['d'],['d'],Y,N,None,Y,,,,,,,F,,
32,10,490,4,4,10,['d'],['d'],Y,Y,['space'],Y,,,,,,,F,,
32,11,491,3,3,10,['k'],['k'],Y,Y,None,N,,,,,,,F,,
32,12,492,2,2,10,['d'],['d'],Y,N,None,Y,,,,,,,F,,
32,13,493,0,0,10,['k'],['k'],Y,N,None,Y,,,,,,,F,,
32,14,494,2,2,10,['k'],['k'],Y,N,None,Y,,,,,,,F,,
33,0,495,11,11,10,['d'],['d'],Y,N,['space'],N,,,,,,,F,,
33,1,496,3,3,10,['d'],['d'],Y,N,['space'],N,,,,,,,F,,
33,2,497,13,13,10,['d'],['d'],Y,Y,['space'],Y,,,,,,,F,,
33,3,498,12,12,10,['d'],['d'],Y,Y,None,N,,,,,,,F,,
33,4,499,8,8,10,['d'],['d'],Y,N,['space'],N,45,29,22,,,,F,,
33,5,500,0,0,11,['k'],['d'],Y,,,,,,,Y,Y,Y,F,,
33,6,501,3,3,11,['k'],['d'],Y,,,,,,,,Y,Y,F,,
33,7,502,8,8,11,['k'],['d'],Y,N,None,Y,,,,,Y,Y,F,,
33,8,503,1,1,11,['k'],['d'],Y,Y,None,N,,,,,Y,Y,F,,
33,9,504,8,8,11,['d'],['k'],Y,Y,['space'],Y,,,,,Y,Y,F,,
33,10,505,14,14,11,['k'],['d'],Y,N,None,Y,,,,,Y,Y,F,,
33,11,506,12,12,11,['k'],['k'],N,Y,None,N,,,,,Y,Y,F,,
33,12,507,7,7,11,None,,Timed out,Y,None,N,,,,,Y,Y,F,,
33,13,508,4,4,11,['d'],['k'],Y,Y,None,N,,,,,Y,Y,F,,
33,14,509,0,0,11,['d'],['k'],Y,Y,None,N,,,,,Y,Y,F,,
34,0,510,8,8,11,['k'],['d'],Y,Y,None,N,,,,,Y,Y,F,,
34,1,511,8,8,11,['k'],['d'],Y,Y,None,N,,,,,Y,Y,F,,
34,2,512,1,1,11,['k'],['d'],Y,Y,None,N,,,,,Y,Y,F,,
34,3,513,2,2,11,None,,Timed out,N,None,Y,,,,,Y,Y,F,,
34,4,514,5,5,11,['d'],['k'],Y,N,['space'],N,,,,,Y,Y,F,,
34,5,515,3,3,11,['d'],['k'],Y,N,['space'],N,,,,,Y,Y,F,,
34,6,516,11,11,11,['d'],['k'],Y,N,None,Y,,,,,Y,Y,F,,
34,7,517,5,5,11,['d'],['k'],Y,Y,None,N,,,,,Y,Y,F,,
34,8,518,6,6,11,['d'],['k'],Y,N,None,Y,,,,,Y,Y,F,,
34,9,519,8,8,11,['d'],['k'],Y,Y,['space'],Y,,,,,Y,Y,F,,
34,10,520,7,7,11,['d'],['k'],Y,N,['space'],N,,,,,Y,Y,F,,
34,11,521,1,1,11,['k'],['d'],Y,N,None,Y,,,,,Y,Y,F,,
34,12,522,12,12,11,['d'],['k'],Y,Y,['space'],Y,,,,,Y,Y,F,,
34,13,523,13,13,11,['d'],['k'],Y,N,['space'],N,,,,,Y,Y,F,,
34,14,524,11,11,11,['k'],['d'],Y,Y,['space'],Y,,,,,Y,Y,F,,
35,0,525,12,12,11,['d'],['k'],Y,N,None,Y,,,,,Y,Y,F,,
35,1,526,2,2,11,['k'],['d'],Y,N,None,Y,,,,,Y,Y,F,,
35,2,527,1,1,11,['d'],['k'],Y,Y,['space'],Y,,,,,Y,Y,F,,
35,3,528,6,6,11,['d'],['k'],Y,N,None,Y,,,,,Y,Y,F,,
35,4,529,11,11,11,['k'],['d'],Y,N,None,Y,,,,,Y,Y,F,,
35,5,530,0,0,11,['k'],['d'],Y,N,None,Y,,,,,Y,Y,F,,
35,6,531,13,13,11,['d'],['k'],Y,Y,['space'],Y,,,,,Y,Y,F,,
35,7,532,7,7,11,['k'],['d'],Y,Y,['k'],N,,,,,Y,Y,F,,
35,8,533,6,6,11,['k'],['d'],Y,Y,None,N,,,,,Y,Y,F,,
35,9,534,6,6,11,['k'],['d'],Y,N,None,Y,,,,,Y,Y,F,,
35,10,535,12,12,11,['d'],['k'],Y,N,None,Y,,,,,Y,Y,F,,
35,11,536,9,9,11,None,,Timed out,Y,['space'],Y,,,,,Y,Y,F,,
35,12,537,1,1,11,['d'],['k'],Y,N,['space'],N,,,,,Y,Y,F,,
35,13,538,9,9,11,['k'],['d'],Y,N,['space'],N,,,,,Y,Y,F,,
35,14,539,7,7,11,['d'],['k'],Y,N,['space'],N,,,,,Y,Y,F,,
36,0,540,1,1,11,['k'],['d'],Y,Y,['space'],Y,,,,,Y,Y,F,,
36,1,541,12,12,11,['d'],['k'],Y,Y,['space'],Y,,,,,Y,Y,F,,
36,2,542,12,12,11,['d'],['k'],Y,Y,None,N,,,,,Y,Y,F,,
36,3,543,1,1,11,['d'],['k'],Y,Y,None,N,,,,,Y,Y,F,,
36,4,544,14,14,11,['k'],['d'],Y,Y,['space'],Y,,,,,Y,Y,F,,
36,5,545,10,10,11,None,,Timed out,Y,None,N,,,,,Y,Y,F,,
36,6,546,0,0,11,['d'],['d'],N,N,None,Y,,,,,Y,Y,F,,
36,7,547,12,12,11,['d'],['k'],Y,N,['space'],N,,,,,Y,Y,F,,
36,8,548,2,2,11,['d'],['k'],Y,Y,['space'],Y,,,,,Y,Y,F,,
36,9,549,10,10,11,['d'],['k'],Y,N,None,Y,44,26,25,,Y,Y,F,,
36,10,550,1,1,12,['d'],['k'],Y,,,,,,,,Y,Y,F,,
36,11,551,5,5,12,['k'],['d'],Y,,,,,,,,Y,Y,F,,
36,12,552,14,14,12,['d'],['k'],Y,N,None,Y,,,,,Y,Y,F,,
36,13,553,8,8,12,['k'],['d'],Y,Y,['space'],Y,,,,,Y,Y,F,,
36,14,554,2,2,12,['d'],['k'],Y,Y,['space'],Y,,,,,Y,Y,F,,
37,0,555,13,13,12,['k'],['d'],Y,N,['space'],N,,,,,Y,Y,F,,
37,1,556,4,4,12,['d'],['k'],Y,Y,None,N,,,,,Y,Y,F,,
37,2,557,7,7,12,['k'],['d'],Y,N,None,Y,,,,,Y,Y,F,,
37,3,558,3,3,12,['k'],['d'],Y,N,None,Y,,,,,Y,Y,F,,
37,4,559,13,13,12,['k'],['d'],Y,N,None,Y,,,,,Y,Y,F,,
37,5,560,0,0,12,None,,Timed out,N,None,Y,,,,,Y,Y,F,,
37,6,561,14,14,12,['k'],['d'],Y,Y,['space'],Y,,,,,Y,Y,F,,
37,7,562,14,14,12,['k'],['d'],Y,Y,['space'],Y,,,,,Y,Y,F,,
37,8,563,2,2,12,['k'],['d'],Y,Y,['space'],Y,,,,,Y,Y,F,,
37,9,564,5,5,12,None,,Timed out,Y,['space'],Y,,,,,Y,Y,F,,
37,10,565,14,14,12,['k'],['d'],Y,N,['space'],N,,,,,Y,Y,F,,
37,11,566,14,14,12,['d'],['k'],Y,N,['space'],N,,,,,Y,Y,F,,
37,12,567,8,8,12,['d'],['k'],Y,Y,None,N,,,,,Y,Y,F,,
37,13,568,2,2,12,['k'],['d'],Y,N,None,Y,,,,,Y,Y,F,,
37,14,569,5,5,12,['d'],['k'],Y,N,None,Y,,,,,Y,Y,F,,
38,0,570,3,3,12,['k'],['d'],Y,N,['space'],N,,,,,Y,Y,F,,
38,1,571,9,9,12,['k'],['d'],Y,Y,None,N,,,,,Y,Y,F,,
38,2,572,11,11,12,['d'],['k'],Y,N,['space'],N,,,,,Y,Y,F,,
38,3,573,10,10,12,['d'],['k'],Y,Y,None,N,,,,,Y,Y,F,,
38,4,574,2,2,12,['d'],['k'],Y,Y,None,N,,,,,Y,Y,F,,
38,5,575,13,13,12,None,,Timed out,N,None,Y,,,,,Y,Y,F,,
38,6,576,8,8,12,['d'],['k'],Y,Y,None,N,,,,,Y,Y,F,,
38,7,577,6,6,12,['k'],['d'],Y,Y,None,N,,,,,Y,Y,F,,
38,8,578,3,3,12,['k'],['d'],Y,Y,None,N,,,,,Y,Y,F,,
38,9,579,14,14,12,['k'],['d'],Y,N,None,Y,,,,,Y,Y,F,,
38,10,580,10,10,12,['d'],['k'],Y,N,None,Y,,,,,Y,Y,F,,
38,11,581,14,14,12,['d'],['k'],Y,N,None,Y,,,,,Y,Y,F,,
38,12,582,7,7,12,['k'],['d'],Y,Y,['space'],Y,,,,,Y,Y,F,,
38,13,583,7,7,12,['d'],['k'],Y,N,None,Y,,,,,Y,Y,F,,
38,14,584,4,4,12,['k'],['d'],Y,Y,['space'],Y,,,,,Y,Y,F,,
39,0,585,13,13,12,['k'],['d'],Y,Y,['space'],Y,,,,,Y,Y,F,,
39,1,586,8,8,12,['d'],['k'],Y,N,['space'],N,,,,,Y,Y,F,,
39,2,587,10,10,12,['k'],['d'],Y,N,None,Y,,,,,Y,Y,F,,
39,3,588,14,14,12,['d'],['k'],Y,N,None,Y,,,,,Y,Y,F,,
39,4,589,3,3,12,['d'],['k'],Y,N,['space'],N,,,,,Y,Y,F,,
39,5,590,0,0,12,['k'],['d'],Y,Y,['space'],Y,,,,,Y,Y,F,,
39,6,591,13,13,12,['d'],['d'],N,Y,None,N,,,,,Y,Y,F,,
39,7,592,8,8,12,['d'],['k'],Y,Y,['space'],Y,,,,,Y,Y,F,,
39,8,593,10,10,12,['d'],['k'],Y,Y,['d'],N,,,,,Y,Y,F,,
39,9,594,12,12,12,['k'],['d'],Y,Y,['space'],Y,,,,,Y,Y,F,,
39,10,595,9,9,12,['k'],['d'],Y,Y,['space'],Y,,,,,Y,Y,F,,
39,11,596,2,2,12,['k'],['d'],Y,Y,['space'],Y,,,,,Y,Y,F,,
39,12,597,1,1,12,['d'],['k'],Y,Y,['space'],Y,,,,,Y,Y,F,,
39,13,598,5,5,12,['k'],['d'],Y,N,None,Y,,,,,Y,Y,F,,
39,14,599,9,9,12,['d'],['k'],Y,N,None,Y,46,31,25,,Y,Y,F,,
