.thisRepN,.thisTrialN,.thisN,.thisIndex,.thisTrial,Block Number,Key pressed,Category,Correct?,Int Match?,Int Response,Int Correct?,Line Accuracy,Interference Accuracy,Matching Interferences,New instruction shown?,Buttons switched?,Fast?,gender,age,
0,0,0,6,6,1,['d'],['d'],Y,,,,,,,,,,female,20,
0,1,1,9,9,1,['d'],['d'],Y,,,,,,,,,,female,20,
0,2,2,6,6,1,['d'],['d'],Y,N,['k'],N,,,,,,,female,20,
0,3,3,6,6,1,['d'],['d'],Y,N,['space'],N,,,,,,,female,20,
0,4,4,0,0,1,['k'],['d'],N,N,None,Y,,,,,,,female,20,
0,5,5,8,8,1,['k'],['d'],N,N,None,Y,,,,,,,female,20,
0,6,6,4,4,1,['d'],['d'],Y,Y,None,N,,,,,,,female,20,
0,7,7,10,10,1,['k'],['k'],Y,Y,['space'],Y,,,,,,,female,20,
0,8,8,4,4,1,['d'],['k'],N,N,None,Y,,,,,,,female,20,
0,9,9,1,1,1,['d'],['d'],Y,N,None,Y,,,,,,,female,20,
0,10,10,6,6,1,['d'],['d'],Y,Y,None,N,,,,,,,female,20,
1,0,11,0,0,1,['d'],['d'],Y,Y,['space'],Y,,,,,,,female,20,
1,1,12,7,7,1,['k'],['k'],Y,Y,['space'],Y,,,,,,,female,20,
1,2,13,10,10,1,['d'],['d'],Y,N,None,Y,,,,,,,female,20,
1,3,14,0,0,1,['k'],['d'],N,Y,['space'],Y,,,,,,,female,20,
1,4,15,8,8,1,['d'],['d'],Y,N,['space'],N,,,,,,,female,20,
1,5,16,9,9,1,['d'],['d'],Y,Y,['space'],Y,,,,,,,female,20,
1,6,17,10,10,1,['d'],['d'],Y,N,None,Y,,,,,,,female,20,
1,7,18,3,3,1,['d'],['d'],Y,Y,['space'],Y,,,,,,,female,20,
1,8,19,7,7,1,['k'],['k'],Y,N,None,Y,,,,,,,female,20,
1,9,20,2,2,1,['d'],['k'],N,Y,['space'],Y,,,,,,,female,20,
1,10,21,2,2,1,['k'],['d'],N,N,None,Y,,,,,,,female,20,
2,0,22,1,1,1,['k'],['k'],Y,N,None,Y,,,,,,,female,20,
2,1,23,8,8,1,['d'],['k'],N,Y,['space'],Y,,,,,,,female,20,
2,2,24,5,5,1,['k'],['k'],Y,N,None,Y,,,,,,,female,20,
2,3,25,2,2,1,['k'],['d'],N,Y,None,N,,,,,,,female,20,
2,4,26,0,0,1,['d'],['d'],Y,N,None,Y,,,,,,,female,20,
2,5,27,0,0,1,['d'],['d'],Y,N,None,Y,,,,,,,female,20,
2,6,28,5,5,1,['k'],['d'],N,N,None,Y,,,,,,,female,20,
2,7,29,9,9,1,['d'],['d'],Y,N,None,Y,,,,,,,female,20,
2,8,30,4,4,1,['d'],['d'],Y,Y,['space'],Y,,,,,,,female,20,
2,9,31,9,9,1,['k'],['d'],N,N,None,Y,,,,,,,female,20,
2,10,32,0,0,1,['d'],['k'],N,Y,['space'],Y,,,,,,,female,20,
3,0,33,9,9,1,['k'],['d'],N,N,None,Y,,,,,,,female,20,
3,1,34,2,2,1,['d'],['d'],Y,N,None,Y,,,,,,,female,20,
3,2,35,5,5,1,['k'],['d'],N,Y,None,N,,,,,,,female,20,
3,3,36,4,4,1,['d'],['k'],N,N,None,Y,,,,,,,female,20,
3,4,37,1,1,1,['d'],['d'],Y,Y,['space'],Y,,,,,,,female,20,
3,5,38,6,6,1,['d'],['d'],Y,Y,['space'],Y,,,,,,,female,20,
3,6,39,7,7,1,['k'],['d'],N,N,None,Y,,,,,,,female,20,
3,7,40,9,9,1,['d'],['d'],Y,N,None,Y,,,,,,,female,20,
3,8,41,9,9,1,['d'],['k'],N,N,None,Y,,,,,,,female,20,
3,9,42,10,10,1,['d'],['k'],N,N,None,Y,,,,,,,female,20,
3,10,43,0,0,1,['k'],['d'],N,Y,['space'],Y,,,,,,,female,20,
4,0,44,2,2,1,['d'],['k'],N,Y,['space'],Y,,,,,,,female,20,
4,1,45,10,10,1,['k'],['d'],N,Y,['space'],Y,,,,,,,female,20,
4,2,46,10,10,1,['d'],['k'],N,Y,['space'],Y,,,,,,,female,20,
4,3,47,1,1,1,['k'],['k'],Y,N,None,Y,,,,,,,female,20,
4,4,48,8,8,1,['d'],['k'],N,N,None,Y,,,,,,,female,20,
4,5,49,1,1,1,['d'],['k'],N,Y,None,N,27,40,21,,,,female,20,
4,6,50,9,9,2,['d'],['k'],N,,,,,,,,,,female,20,
4,7,51,4,4,2,['k'],['d'],N,,,,,,,,,,female,20,
4,8,52,3,3,2,['d'],['k'],N,Y,['d'],N,,,,,,,female,20,
4,9,53,0,0,2,['k'],['k'],Y,Y,['space'],Y,,,,,,,female,20,
4,10,54,7,7,2,['k'],['d'],N,Y,['space'],Y,,,,,,,female,20,
5,0,55,2,2,2,['d'],['k'],N,N,None,Y,,,,,,,female,20,
5,1,56,3,3,2,['d'],['k'],N,N,None,Y,,,,,,,female,20,
5,2,57,10,10,2,['k'],['k'],Y,Y,['space'],Y,,,,,,,female,20,
5,3,58,3,3,2,['d'],['k'],N,N,None,Y,,,,,,,female,20,
5,4,59,9,9,2,['k'],['k'],Y,N,None,Y,,,,,,,female,20,
5,5,60,4,4,2,['k'],['k'],Y,N,None,Y,,,,,,,female,20,
5,6,61,2,2,2,['k'],['d'],N,Y,['space'],Y,,,,,,,female,20,
5,7,62,5,5,2,['d'],['k'],N,Y,['space'],Y,,,,,,,female,20,
5,8,63,4,4,2,['k'],['d'],N,N,['space'],N,,,,,,,female,20,
5,9,64,7,7,2,['d'],['d'],Y,N,None,Y,,,,,,,female,20,
5,10,65,7,7,2,['d'],['d'],Y,N,None,Y,,,,,,,female,20,
6,0,66,1,1,2,['d'],['d'],Y,Y,['space'],Y,,,,,,,female,20,
6,1,67,8,8,2,['d'],['k'],N,Y,['space'],Y,,,,,,,female,20,
6,2,68,1,1,2,['k'],['d'],N,Y,['space'],Y,,,,,,,female,20,
6,3,69,0,0,2,['d'],['k'],N,Y,['space'],Y,,,,,,,female,20,
6,4,70,2,2,2,['k'],['d'],N,N,None,Y,,,,,,,female,20,
6,5,71,8,8,2,['k'],['d'],N,Y,['space'],Y,,,,,,,female,20,
6,6,72,8,8,2,['d'],['d'],Y,Y,['space'],Y,,,,,,,female,20,
6,7,73,8,8,2,['k'],['k'],Y,Y,None,N,,,,,,,female,20,
6,8,74,7,7,2,['k'],['k'],Y,Y,['space'],Y,,,,,,,female,20,
6,9,75,7,7,2,['d'],['d'],Y,N,None,Y,,,,,,,female,20,
6,10,76,4,4,2,['k'],['d'],N,Y,['space'],Y,,,,,,,female,20,
7,0,77,9,9,2,['d'],['d'],Y,N,None,Y,,,,,,,female,20,
7,1,78,3,3,2,['k'],['k'],Y,N,None,Y,,,,,,,female,20,
7,2,79,3,3,2,['d'],['k'],N,Y,None,N,,,,,,,female,20,
7,3,80,8,8,2,['k'],['k'],Y,N,None,Y,,,,,,,female,20,
7,4,81,3,3,2,['d'],['d'],Y,N,['space'],N,,,,,,,female,20,
7,5,82,6,6,2,['k'],['d'],N,N,None,Y,,,,,,,female,20,
7,6,83,2,2,2,['d'],['k'],N,N,None,Y,,,,,,,female,20,
7,7,84,5,5,2,['k'],['k'],Y,N,None,Y,,,,,,,female,20,
7,8,85,9,9,2,['d'],['d'],Y,N,None,Y,,,,,,,female,20,
7,9,86,9,9,2,['k'],['k'],Y,N,None,Y,,,,,,,female,20,
7,10,87,4,4,2,['d'],['k'],N,Y,['space'],Y,,,,,,,female,20,
8,0,88,10,10,2,['d'],['k'],N,Y,['space'],Y,,,,,,,female,20,
8,1,89,7,7,2,['k'],['k'],Y,Y,['space'],Y,,,,,,,female,20,
8,2,90,9,9,2,['d'],['d'],Y,N,None,Y,,,,,,,female,20,
8,3,91,4,4,2,['d'],['k'],N,Y,['space'],Y,,,,,,,female,20,
8,4,92,3,3,2,['d'],['k'],N,Y,['d'],N,,,,,,,female,20,
8,5,93,0,0,2,['d'],['d'],Y,N,None,Y,,,,,,,female,20,
8,6,94,3,3,2,['d'],['d'],Y,Y,['space'],Y,,,,,,,female,20,
8,7,95,4,4,2,['k'],['k'],Y,Y,['space'],Y,,,,,,,female,20,
8,8,96,10,10,2,['d'],['d'],Y,N,None,Y,,,,,,,female,20,
8,9,97,2,2,2,['k'],['d'],N,Y,None,N,,,,,,,female,20,
8,10,98,3,3,2,['d'],['k'],N,N,None,Y,,,,,,,female,20,
9,0,99,7,7,2,['d'],['d'],Y,Y,None,N,25,40,25,,,,female,20,
9,1,100,2,2,3,['d'],['k'],N,,,,,,,,,,female,20,
9,2,101,0,0,3,['k'],['k'],Y,,,,,,,,,,female,20,
9,3,102,0,0,3,['d'],['d'],Y,N,None,Y,,,,,,,female,20,
9,4,103,4,4,3,['d'],['k'],N,Y,['space'],Y,,,,,,,female,20,
9,5,104,0,0,3,['d'],['k'],N,Y,['space'],Y,,,,,,,female,20,
9,6,105,7,7,3,['d'],['k'],N,N,None,Y,,,,,,,female,20,
9,7,106,7,7,3,['k'],['d'],N,Y,['space'],Y,,,,,,,female,20,
9,8,107,7,7,3,['k'],['k'],Y,N,None,Y,,,,,,,female,20,
9,9,108,2,2,3,['k'],['d'],N,N,None,Y,,,,,,,female,20,
9,10,109,4,4,3,['d'],['d'],Y,N,None,Y,,,,,,,female,20,
10,0,110,1,1,3,['d'],['d'],Y,Y,['space'],Y,,,,,,,female,20,
10,1,111,6,6,3,['d'],['k'],N,N,None,Y,,,,,,,female,20,
10,2,112,3,3,3,['k'],['k'],Y,N,None,Y,,,,,,,female,20,
10,3,113,2,2,3,['d'],['d'],Y,Y,['space'],Y,,,,,,,female,20,
10,4,114,2,2,3,['k'],['d'],N,N,None,Y,,,,,,,female,20,
10,5,115,10,10,3,['d'],['d'],Y,Y,['space'],Y,,,,,,,female,20,
10,6,116,6,6,3,['k'],['k'],Y,Y,['space'],Y,,,,,,,female,20,
10,7,117,2,2,3,['k'],['d'],N,Y,['space'],Y,,,,,,,female,20,
10,8,118,4,4,3,['d'],['k'],N,N,None,Y,,,,,,,female,20,
10,9,119,9,9,3,['k'],['k'],Y,N,None,Y,,,,,,,female,20,
10,10,120,3,3,3,['d'],['k'],N,N,None,Y,,,,,,,female,20,
11,0,121,1,1,3,['k'],['k'],Y,Y,None,N,,,,,,,female,20,
11,1,122,7,7,3,['d'],['k'],N,Y,None,N,,,,,,,female,20,
11,2,123,6,6,3,['k'],['d'],N,N,['space'],N,,,,,,,female,20,
11,3,124,4,4,3,['d'],['k'],N,Y,['space'],Y,,,,,,,female,20,
11,4,125,7,7,3,['k'],['d'],N,N,None,Y,,,,,,,female,20,
11,5,126,5,5,3,['k'],['k'],Y,N,None,Y,,,,,,,female,20,
11,6,127,8,8,3,['k'],['d'],N,N,None,Y,,,,,,,female,20,
11,7,128,7,7,3,['d'],['k'],N,N,None,Y,,,,,,,female,20,
11,8,129,1,1,3,['d'],['k'],N,N,None,Y,,,,,,,female,20,
11,9,130,3,3,3,['k'],['k'],Y,Y,None,N,,,,,,,female,20,
11,10,131,6,6,3,['k'],['d'],N,Y,['space'],Y,,,,,,,female,20,
12,0,132,5,5,3,['k'],['d'],N,N,None,Y,,,,,,,female,20,
12,1,133,6,6,3,['k'],['d'],N,N,None,Y,,,,,,,female,20,
12,2,134,4,4,3,['d'],['d'],Y,Y,None,N,,,,,,,female,20,
12,3,135,6,6,3,['k'],['d'],N,Y,['space'],Y,,,,,,,female,20,
12,4,136,3,3,3,['k'],['k'],Y,N,None,Y,,,,,,,female,20,
12,5,137,4,4,3,['d'],['k'],N,Y,['space'],Y,,,,,,,female,20,
12,6,138,4,4,3,['k'],['k'],Y,Y,['space'],Y,,,,,,,female,20,
12,7,139,9,9,3,['k'],['d'],N,N,None,Y,,,,,,,female,20,
12,8,140,10,10,3,['k'],['k'],Y,Y,['space'],Y,,,,,,,female,20,
12,9,141,6,6,3,['d'],['k'],N,Y,['space'],Y,,,,,,,female,20,
12,10,142,0,0,3,['k'],['d'],N,Y,['space'],Y,,,,,,,female,20,
13,0,143,0,0,3,['d'],['d'],Y,Y,None,N,,,,,,,female,20,
13,1,144,2,2,3,['k'],['k'],Y,Y,['space'],Y,,,,,,,female,20,
13,2,145,1,1,3,['d'],['d'],Y,N,None,Y,,,,,,,female,20,
13,3,146,9,9,3,['k'],['k'],Y,N,['space'],N,,,,,,,female,20,
13,4,147,3,3,3,['d'],['k'],N,N,['space'],N,,,,,,,female,20,
13,5,148,6,6,3,['k'],['k'],Y,Y,['space'],Y,,,,,,,female,20,
13,6,149,4,4,3,['d'],['d'],Y,Y,['space'],Y,23,40,24,,,,female,20,
13,7,150,2,2,4,['k'],['k'],Y,,,,,,,,,,female,20,
13,8,151,7,7,4,['d'],['d'],Y,,,,,,,,,,female,20,
13,9,152,10,10,4,['k'],['d'],N,Y,['space'],Y,,,,,,,female,20,
13,10,153,1,1,4,['d'],['d'],Y,Y,['space'],Y,,,,,,,female,20,
14,0,154,7,7,4,['d'],['d'],Y,N,None,Y,,,,,,,female,20,
14,1,155,9,9,4,['k'],['k'],Y,Y,['space'],Y,,,,,,,female,20,
14,2,156,4,4,4,['k'],['d'],N,Y,['space'],Y,,,,,,,female,20,
14,3,157,1,1,4,['d'],['d'],Y,Y,['space'],Y,,,,,,,female,20,
14,4,158,8,8,4,['k'],['k'],Y,Y,['space'],Y,,,,,,,female,20,
14,5,159,7,7,4,['d'],['k'],N,N,None,Y,,,,,,,female,20,
14,6,160,9,9,4,['k'],['k'],Y,N,None,Y,,,,,,,female,20,
14,7,161,8,8,4,['k'],['k'],Y,Y,['space'],Y,,,,,,,female,20,
14,8,162,0,0,4,['k'],['k'],Y,N,None,Y,,,,,,,female,20,
14,9,163,5,5,4,['d'],['k'],N,N,None,Y,,,,,,,female,20,
14,10,164,8,8,4,['k'],['d'],N,Y,['space'],Y,,,,,,,female,20,
15,0,165,1,1,4,['k'],['d'],N,Y,['space'],Y,,,,,,,female,20,
15,1,166,8,8,4,['d'],['k'],N,Y,None,N,,,,,,,female,20,
15,2,167,4,4,4,['k'],['k'],Y,Y,None,N,,,,,,,female,20,
15,3,168,7,7,4,['k'],['d'],N,N,None,Y,,,,,,,female,20,
15,4,169,10,10,4,['d'],['d'],Y,N,None,Y,,,,,,,female,20,
15,5,170,4,4,4,['k'],['d'],N,N,None,Y,,,,,,,female,20,
15,6,171,10,10,4,['d'],['k'],N,Y,['space'],Y,,,,,,,female,20,
15,7,172,5,5,4,['k'],['k'],Y,Y,['space'],Y,,,,,,,female,20,
15,8,173,7,7,4,['d'],['k'],N,N,None,Y,,,,,,,female,20,
15,9,174,7,7,4,['k'],['k'],Y,N,None,Y,,,,,,,female,20,
15,10,175,4,4,4,['k'],['d'],N,N,None,Y,,,,,,,female,20,
16,0,176,1,1,4,['d'],['k'],N,N,None,Y,,,,,,,female,20,
16,1,177,2,2,4,['k'],['d'],N,Y,None,N,,,,,,,female,20,
16,2,178,3,3,4,['k'],['k'],Y,N,None,Y,,,,,,,female,20,
16,3,179,1,1,4,['d'],['d'],Y,N,None,Y,,,,,,,female,20,
16,4,180,2,2,4,['k'],['k'],Y,N,None,Y,,,,,,,female,20,
16,5,181,7,7,4,['d'],['k'],N,Y,['space'],Y,,,,,,,female,20,
16,6,182,9,9,4,['k'],['d'],N,N,None,Y,,,,,,,female,20,
16,7,183,5,5,4,['d'],['d'],Y,N,None,Y,,,,,,,female,20,
16,8,184,9,9,4,['k'],['d'],N,N,None,Y,,,,,,,female,20,
16,9,185,6,6,4,['d'],['k'],N,N,None,Y,,,,,,,female,20,
16,10,186,10,10,4,['k'],['k'],Y,Y,None,N,,,,,,,female,20,
17,0,187,9,9,4,['k'],['d'],N,Y,['space'],Y,,,,,,,female,20,
17,1,188,10,10,4,['d'],['d'],Y,N,None,Y,,,,,,,female,20,
17,2,189,8,8,4,['k'],['d'],N,N,None,Y,,,,,,,female,20,
17,3,190,9,9,4,['d'],['k'],N,N,None,Y,,,,,,,female,20,
17,4,191,1,1,4,['k'],['k'],Y,Y,['space'],Y,,,,,,,female,20,
17,5,192,10,10,4,['d'],['d'],Y,N,None,Y,,,,,,,female,20,
17,6,193,0,0,4,['k'],['k'],Y,Y,['space'],Y,,,,,,,female,20,
17,7,194,1,1,4,['d'],['k'],N,Y,['space'],Y,,,,,,,female,20,
17,8,195,1,1,4,['k'],['d'],N,Y,['space'],Y,,,,,,,female,20,
17,9,196,4,4,4,['d'],['k'],N,N,None,Y,,,,,,,female,20,
17,10,197,7,7,4,['k'],['d'],N,N,None,Y,,,,,,,female,20,
18,0,198,4,4,4,['d'],['k'],N,Y,['space'],Y,,,,,,,female,20,
18,1,199,8,8,4,['k'],['k'],Y,Y,None,N,24,43,23,,,,female,20,
18,2,200,2,2,5,['k'],['k'],Y,,,,,,,,,,female,20,
18,3,201,6,6,5,['d'],['d'],Y,,,,,,,,,,female,20,
18,4,202,4,4,5,['k'],['d'],N,Y,['space'],Y,,,,,,,female,20,
18,5,203,10,10,5,['d'],['d'],Y,Y,['space'],Y,,,,,,,female,20,
18,6,204,0,0,5,['k'],['d'],N,Y,['space'],Y,,,,,,,female,20,
18,7,205,7,7,5,['d'],['d'],Y,Y,['space'],Y,,,,,,,female,20,
18,8,206,5,5,5,['k'],['d'],N,N,None,Y,,,,,,,female,20,
18,9,207,9,9,5,['k'],['k'],Y,Y,None,N,,,,,,,female,20,
18,10,208,2,2,5,['d'],['k'],N,Y,['space'],Y,,,,,,,female,20,
19,0,209,3,3,5,['k'],['k'],Y,Y,['space'],Y,,,,,,,female,20,
19,1,210,10,10,5,['d'],['d'],Y,Y,['space'],Y,,,,,,,female,20,
19,2,211,10,10,5,['k'],['k'],Y,Y,['space'],Y,,,,,,,female,20,
19,3,212,0,0,5,['d'],['d'],Y,N,None,Y,,,,,,,female,20,
19,4,213,6,6,5,['d'],['k'],N,Y,['space'],Y,,,,,,,female,20,
19,5,214,6,6,5,['d'],['k'],N,N,['space'],N,,,,,,,female,20,
19,6,215,0,0,5,['k'],['k'],Y,N,None,Y,,,,,,,female,20,
19,7,216,2,2,5,['d'],['d'],Y,N,None,Y,,,,,,,female,20,
19,8,217,10,10,5,['k'],['d'],N,N,None,Y,,,,,,,female,20,
19,9,218,10,10,5,['d'],['k'],N,N,None,Y,,,,,,,female,20,
19,10,219,5,5,5,['k'],['k'],Y,N,None,Y,,,,,,,female,20,
20,0,220,4,4,5,['d'],['d'],Y,N,None,Y,,,,,,,female,20,
20,1,221,6,6,5,['k'],['k'],Y,Y,None,N,,,,,,,female,20,
20,2,222,6,6,5,['d'],['d'],Y,N,None,Y,,,,,,,female,20,
20,3,223,2,2,5,['k'],['d'],N,Y,['space'],Y,,,,,,,female,20,
20,4,224,6,6,5,['d'],['k'],N,N,None,Y,,,,,,,female,20,
20,5,225,4,4,5,['k'],['k'],Y,Y,['space'],Y,,,,,,,female,20,
20,6,226,8,8,5,['d'],['d'],Y,Y,['space'],Y,,,,,,,female,20,
20,7,227,0,0,5,['k'],['d'],N,Y,None,N,,,,,,,female,20,
20,8,228,3,3,5,['d'],['d'],Y,Y,None,N,,,,,,,female,20,
20,9,229,9,9,5,['k'],['k'],Y,Y,['space'],Y,,,,,,,female,20,
20,10,230,8,8,5,['d'],['k'],N,Y,['space'],Y,,,,,,,female,20,
21,0,231,10,10,5,['k'],['k'],Y,Y,['space'],Y,,,,,,,female,20,
21,1,232,6,6,5,['k'],['d'],N,Y,['space'],Y,,,,,,,female,20,
21,2,233,6,6,5,['d'],['d'],Y,Y,['space'],Y,,,,,,,female,20,
21,3,234,0,0,5,['k'],['d'],N,Y,['space'],Y,,,,,,,female,20,
21,4,235,10,10,5,['d'],['d'],Y,Y,['space'],Y,,,,,,,female,20,
21,5,236,9,9,5,['k'],['d'],N,N,None,Y,,,,,,,female,20,
21,6,237,6,6,5,['d'],['d'],Y,N,None,Y,,,,,,,female,20,
21,7,238,3,3,5,['k'],['k'],Y,Y,['space'],Y,,,,,,,female,20,
21,8,239,5,5,5,['d'],['d'],Y,N,['space'],N,,,,,,,female,20,
21,9,240,1,1,5,['k'],['d'],N,N,None,Y,,,,,,,female,20,
21,10,241,5,5,5,['d'],['k'],N,N,None,Y,,,,,,,female,20,
22,0,242,0,0,5,['k'],['d'],N,N,None,Y,,,,,,,female,20,
22,1,243,10,10,5,['d'],['k'],N,Y,['space'],Y,,,,,,,female,20,
22,2,244,8,8,5,['k'],['k'],Y,N,['space'],N,,,,,,,female,20,
22,3,245,1,1,5,['d'],['k'],N,N,['space'],N,,,,,,,female,20,
22,4,246,6,6,5,['k'],['d'],N,N,None,Y,,,,,,,female,20,
22,5,247,4,4,5,['k'],['k'],Y,N,None,Y,,,,,,,female,20,
22,6,248,6,6,5,['d'],['k'],N,N,None,Y,,,,,,,female,20,
22,7,249,3,3,5,['d'],['k'],N,N,None,Y,27,40,25,,,,female,20,
22,8,250,6,6,6,['k'],['k'],Y,,,,,,,,,,female,20,
22,9,251,7,7,6,['d'],['d'],Y,,,,,,,,,,female,20,
22,10,252,9,9,6,['d'],['d'],Y,N,None,Y,,,,,,,female,20,
23,0,253,0,0,6,['k'],['d'],N,N,None,Y,,,,,,,female,20,
23,1,254,2,2,6,['d'],['k'],N,N,None,Y,,,,,,,female,20,
23,2,255,4,4,6,['k'],['k'],Y,N,None,Y,,,,,,,female,20,
23,3,256,6,6,6,['d'],['k'],N,Y,['space'],Y,,,,,,,female,20,
23,4,257,4,4,6,['k'],['d'],N,Y,['space'],Y,,,,,,,female,20,
23,5,258,6,6,6,['d'],['k'],N,Y,['space'],Y,,,,,,,female,20,
23,6,259,3,3,6,['k'],['d'],N,Y,None,N,,,,,,,female,20,
23,7,260,2,2,6,['k'],['k'],Y,Y,['space'],Y,,,,,,,female,20,
23,8,261,5,5,6,['d'],['d'],Y,N,None,Y,,,,,,,female,20,
23,9,262,2,2,6,['k'],['d'],N,N,None,Y,,,,,,,female,20,
23,10,263,1,1,6,['k'],['d'],N,Y,['space'],Y,,,,,,,female,20,
24,0,264,6,6,6,['k'],['d'],N,N,None,Y,,,,,,,female,20,
24,1,265,3,3,6,['d'],['k'],N,N,None,Y,,,,,,,female,20,
24,2,266,3,3,6,['k'],['d'],N,Y,['space'],Y,,,,,,,female,20,
24,3,267,0,0,6,['d'],['k'],N,Y,['space'],Y,,,,,,,female,20,
24,4,268,7,7,6,['k'],['d'],N,Y,['space'],Y,,,,,,,female,20,
24,5,269,1,1,6,['d'],['d'],Y,Y,['space'],Y,,,,,,,female,20,
24,6,270,6,6,6,['k'],['d'],N,Y,['space'],Y,,,,,,,female,20,
24,7,271,8,8,6,['k'],['k'],Y,N,None,Y,,,,,,,female,20,
24,8,272,5,5,6,['d'],['d'],Y,N,None,Y,,,,,,,female,20,
24,9,273,4,4,6,['k'],['d'],N,Y,['space'],Y,,,,,,,female,20,
24,10,274,1,1,6,['d'],['d'],Y,N,None,Y,,,,,,,female,20,
25,0,275,7,7,6,['d'],['k'],N,Y,['space'],Y,,,,,,,female,20,
25,1,276,10,10,6,['k'],['k'],Y,N,None,Y,,,,,,,female,20,
25,2,277,4,4,6,['k'],['k'],Y,N,None,Y,,,,,,,female,20,
25,3,278,1,1,6,['d'],['d'],Y,N,None,Y,,,,,,,female,20,
25,4,279,6,6,6,['k'],['d'],N,Y,['space'],Y,,,,,,,female,20,
25,5,280,4,4,6,['d'],['k'],N,N,['space'],N,,,,,,,female,20,
25,6,281,0,0,6,['k'],['d'],N,N,None,Y,,,,,,,female,20,
25,7,282,5,5,6,['d'],['d'],Y,N,None,Y,,,,,,,female,20,
25,8,283,6,6,6,['d'],['d'],Y,Y,None,N,,,,,,,female,20,
25,9,284,7,7,6,['k'],['d'],N,N,None,Y,,,,,,,female,20,
25,10,285,0,0,6,['d'],['d'],Y,N,None,Y,,,,,,,female,20,
26,0,286,0,0,6,['k'],['d'],N,N,None,Y,,,,,,,female,20,
26,1,287,0,0,6,['d'],['k'],N,N,None,Y,,,,,,,female,20,
26,2,288,2,2,6,['d'],['d'],Y,Y,['space'],Y,,,,,,,female,20,
26,3,289,10,10,6,['k'],['d'],N,Y,['space'],Y,,,,,,,female,20,
26,4,290,3,3,6,['d'],['k'],N,Y,['space'],Y,,,,,,,female,20,
26,5,291,9,9,6,['k'],['d'],N,N,None,Y,,,,,,,female,20,
26,6,292,3,3,6,['d'],['d'],Y,N,None,Y,,,,,,,female,20,
26,7,293,6,6,6,['k'],['k'],Y,N,None,Y,,,,,,,female,20,
26,8,294,5,5,6,['d'],['d'],Y,Y,['space'],Y,,,,,,,female,20,
26,9,295,4,4,6,['k'],['d'],N,Y,None,N,,,,,,,female,20,
26,10,296,3,3,6,['d'],['k'],N,Y,['space'],Y,,,,,,,female,20,
27,0,297,3,3,6,['k'],['k'],Y,Y,['space'],Y,,,,,,,female,20,
27,1,298,3,3,6,['k'],['k'],Y,Y,['space'],Y,,,,,,,female,20,
27,2,299,5,5,6,['d'],['k'],N,N,None,Y,22,44,23,,,,female,20,
27,3,300,9,9,7,['k'],['k'],Y,,,,,,,,,,female,20,
27,4,301,1,1,7,['d'],['d'],Y,,,,,,,,,,female,20,
27,5,302,1,1,7,['k'],['d'],N,Y,['space'],Y,,,,,,,female,20,
27,6,303,8,8,7,['k'],['d'],N,N,None,Y,,,,,,,female,20,
27,7,304,10,10,7,['d'],['k'],N,Y,['space'],Y,,,,,,,female,20,
27,8,305,5,5,7,['k'],['d'],N,Y,['space'],Y,,,,,,,female,20,
27,9,306,3,3,7,['d'],['d'],Y,Y,['space'],Y,,,,,,,female,20,
27,10,307,0,0,7,['k'],['d'],N,N,None,Y,,,,,,,female,20,
28,0,308,7,7,7,['d'],['d'],Y,N,None,Y,,,,,,,female,20,
28,1,309,5,5,7,['k'],['d'],N,N,None,Y,,,,,,,female,20,
28,2,310,2,2,7,['d'],['k'],N,Y,['space'],Y,,,,,,,female,20,
28,3,311,9,9,7,['k'],['k'],Y,N,None,Y,,,,,,,female,20,
28,4,312,2,2,7,['d'],['k'],N,Y,['space'],Y,,,,,,,female,20,
28,5,313,6,6,7,['k'],['k'],Y,Y,['space'],Y,,,,,,,female,20,
28,6,314,7,7,7,['d'],['k'],N,N,None,Y,,,,,,,female,20,
28,7,315,8,8,7,['k'],['d'],N,Y,['space'],Y,,,,,,,female,20,
28,8,316,6,6,7,['k'],['k'],Y,Y,['space'],Y,,,,,,,female,20,
28,9,317,3,3,7,['d'],['d'],Y,N,None,Y,,,,,,,female,20,
28,10,318,8,8,7,['d'],['k'],N,Y,None,N,,,,,,,female,20,
29,0,319,2,2,7,['d'],['d'],Y,N,None,Y,,,,,,,female,20,
29,1,320,0,0,7,['k'],['d'],N,N,None,Y,,,,,,,female,20,
29,2,321,2,2,7,['k'],['d'],N,N,None,Y,,,,,,,female,20,
29,3,322,2,2,7,['k'],['k'],Y,Y,['space'],Y,,,,,,,female,20,
29,4,323,6,6,7,['d'],['d'],Y,Y,['space'],Y,,,,,,,female,20,
29,5,324,0,0,7,['k'],['k'],Y,Y,['space'],Y,,,,,,,female,20,
29,6,325,8,8,7,['k'],['k'],Y,N,None,Y,,,,,,,female,20,
29,7,326,2,2,7,['d'],['k'],N,N,None,Y,,,,,,,female,20,
29,8,327,6,6,7,['d'],['k'],N,N,None,Y,,,,,,,female,20,
29,9,328,0,0,7,['k'],['k'],Y,Y,['space'],Y,,,,,,,female,20,
29,10,329,10,10,7,['k'],['k'],Y,N,None,Y,,,,,,,female,20,
30,0,330,5,5,7,['d'],['k'],N,N,None,Y,,,,,,,female,20,
30,1,331,10,10,7,['k'],['d'],N,Y,['space'],Y,,,,,,,female,20,
30,2,332,10,10,7,['d'],['k'],N,N,['space'],N,,,,,,,female,20,
30,3,333,0,0,7,['d'],['k'],N,Y,None,N,,,,,,,female,20,
30,4,334,8,8,7,['k'],['k'],Y,N,None,Y,,,,,,,female,20,
30,5,335,1,1,7,['k'],['k'],Y,Y,['space'],Y,,,,,,,female,20,
30,6,336,6,6,7,['d'],['d'],Y,N,None,Y,,,,,,,female,20,
30,7,337,1,1,7,['k'],['k'],Y,N,None,Y,,,,,,,female,20,
30,8,338,2,2,7,['d'],['k'],N,N,None,Y,,,,,,,female,20,
30,9,339,5,5,7,['k'],['k'],Y,N,None,Y,,,,,,,female,20,
30,10,340,9,9,7,['d'],['k'],N,N,None,Y,,,,,,,female,20,
31,0,341,7,7,7,['k'],['d'],N,Y,['space'],Y,,,,,,,female,20,
31,1,342,10,10,7,['d'],['k'],N,N,None,Y,,,,,,,female,20,
31,2,343,5,5,7,['k'],['k'],Y,Y,['space'],Y,,,,,,,female,20,
31,3,344,0,0,7,['d'],['k'],N,Y,['space'],Y,,,,,,,female,20,
31,4,345,0,0,7,['k'],['d'],N,Y,['space'],Y,,,,,,,female,20,
31,5,346,10,10,7,['d'],['k'],N,Y,['space'],Y,,,,,,,female,20,
31,6,347,2,2,7,['k'],['d'],N,N,None,Y,,,,,,,female,20,
31,7,348,9,9,7,['k'],['d'],N,N,None,Y,,,,,,,female,20,
31,8,349,5,5,7,['k'],['k'],Y,Y,['space'],Y,22,45,23,,,,female,20,
31,9,350,9,9,8,['k'],['k'],Y,,,,,,,,,,female,20,
31,10,351,3,3,8,['k'],['d'],N,,,,,,,,,,female,20,
32,0,352,8,8,8,['k'],['d'],N,N,None,Y,,,,,,,female,20,
32,1,353,7,7,8,['k'],['k'],Y,N,None,Y,,,,,,,female,20,
32,2,354,5,5,8,['d'],['k'],N,Y,['space'],Y,,,,,,,female,20,
32,3,355,3,3,8,['k'],['d'],N,Y,['space'],Y,,,,,,,female,20,
32,4,356,2,2,8,['k'],['k'],Y,N,None,Y,,,,,,,female,20,
32,5,357,6,6,8,['k'],['k'],Y,N,None,Y,,,,,,,female,20,
32,6,358,1,1,8,['d'],['k'],N,Y,['space'],Y,,,,,,,female,20,
32,7,359,2,2,8,['k'],['k'],Y,Y,['space'],Y,,,,,,,female,20,
32,8,360,4,4,8,['d'],['d'],Y,Y,['space'],Y,,,,,,,female,20,
32,9,361,6,6,8,['k'],['d'],N,N,None,Y,,,,,,,female,20,
32,10,362,5,5,8,['d'],['d'],Y,Y,['space'],Y,,,,,,,female,20,
33,0,363,1,1,8,['k'],['d'],N,Y,['space'],Y,,,,,,,female,20,
33,1,364,2,2,8,['d'],['d'],Y,Y,['space'],Y,,,,,,,female,20,
33,2,365,3,3,8,['k'],['d'],N,N,None,Y,,,,,,,female,20,
33,3,366,1,1,8,['d'],['k'],N,N,None,Y,,,,,,,female,20,
33,4,367,3,3,8,['k'],['d'],N,N,None,Y,,,,,,,female,20,
33,5,368,0,0,8,['d'],['k'],N,N,None,Y,,,,,,,female,20,
33,6,369,8,8,8,['k'],['d'],N,N,None,Y,,,,,,,female,20,
33,7,370,4,4,8,['k'],['d'],N,Y,['space'],Y,,,,,,,female,20,
33,8,371,0,0,8,['k'],['d'],N,Y,['space'],Y,,,,,,,female,20,
33,9,372,4,4,8,['d'],['k'],N,N,None,Y,,,,,,,female,20,
33,10,373,6,6,8,['k'],['k'],Y,N,None,Y,,,,,,,female,20,
34,0,374,0,0,8,['k'],['k'],Y,Y,['space'],Y,,,,,,,female,20,
34,1,375,3,3,8,['d'],['d'],Y,Y,['space'],Y,,,,,,,female,20,
34,2,376,9,9,8,['k'],['d'],N,Y,['space'],Y,,,,,,,female,20,
34,3,377,7,7,8,['d'],['k'],N,Y,None,N,,,,,,,female,20,
34,4,378,3,3,8,['k'],['d'],N,Y,['space'],Y,,,,,,,female,20,
34,5,379,3,3,8,['k'],['d'],N,N,None,Y,,,,,,,female,20,
34,6,380,0,0,8,['d'],['d'],Y,N,['space'],N,,,,,,,female,20,
34,7,381,1,1,8,['k'],['k'],Y,Y,['space'],Y,,,,,,,female,20,
34,8,382,4,4,8,['k'],['k'],Y,N,['space'],N,,,,,,,female,20,
34,9,383,9,9,8,['k'],['d'],N,N,None,Y,,,,,,,female,20,
34,10,384,8,8,8,['k'],['k'],Y,Y,None,N,,,,,,,female,20,
35,0,385,9,9,8,['k'],['d'],N,N,None,Y,,,,,,,female,20,
35,1,386,7,7,8,['d'],['d'],Y,N,None,Y,,,,,,,female,20,
35,2,387,3,3,8,['k'],['d'],N,Y,['space'],Y,,,,,,,female,20,
35,3,388,8,8,8,['d'],['d'],Y,N,['space'],N,,,,,,,female,20,
35,4,389,5,5,8,['k'],['d'],N,N,None,Y,,,,,,,female,20,
35,5,390,8,8,8,['k'],['k'],Y,N,None,Y,,,,,,,female,20,
35,6,391,8,8,8,['k'],['k'],Y,Y,None,N,,,,,,,female,20,
35,7,392,5,5,8,['k'],['k'],Y,Y,['space'],Y,,,,,,,female,20,
35,8,393,10,10,8,['k'],['k'],Y,Y,['space'],Y,,,,,,,female,20,
35,9,394,7,7,8,['k'],['k'],Y,Y,['space'],Y,,,,,,,female,20,
35,10,395,1,1,8,['d'],['k'],N,Y,['space'],Y,,,,,,,female,20,
36,0,396,5,5,8,['k'],['k'],Y,N,['space'],N,,,,,,,female,20,
36,1,397,8,8,8,['k'],['k'],Y,Y,['space'],Y,,,,,,,female,20,
36,2,398,3,3,8,['d'],['k'],N,Y,['space'],Y,,,,,,,female,20,
36,3,399,7,7,8,['k'],['d'],N,N,None,Y,24,41,25,,,,female,20,
36,4,400,10,10,9,['d'],['k'],N,,,,,,,,,,female,20,
36,5,401,8,8,9,['k'],['d'],N,,,,,,,,,,female,20,
36,6,402,6,6,9,['k'],['k'],Y,N,None,Y,,,,,,,female,20,
36,7,403,7,7,9,['k'],['d'],N,N,None,Y,,,,,,,female,20,
36,8,404,1,1,9,['d'],['k'],N,N,None,Y,,,,,,,female,20,
36,9,405,10,10,9,['k'],['d'],N,N,None,Y,,,,,,,female,20,
36,10,406,7,7,9,['d'],['d'],Y,N,None,Y,,,,,,,female,20,
37,0,407,8,8,9,['k'],['d'],N,Y,['space'],Y,,,,,,,female,20,
37,1,408,1,1,9,['d'],['k'],N,Y,['space'],Y,,,,,,,female,20,
37,2,409,3,3,9,['d'],['d'],Y,Y,['space'],Y,,,,,,,female,20,
37,3,410,4,4,9,['d'],['k'],N,Y,['space'],Y,,,,,,,female,20,
37,4,411,7,7,9,['k'],['k'],Y,N,['space'],N,,,,,,,female,20,
37,5,412,7,7,9,['k'],['d'],N,Y,['space'],Y,,,,,,,female,20,
37,6,413,1,1,9,['d'],['d'],Y,N,None,Y,,,,,,,female,20,
37,7,414,1,1,9,['k'],['k'],Y,Y,['space'],Y,,,,,,,female,20,
37,8,415,3,3,9,['k'],['d'],N,N,None,Y,,,,,,,female,20,
37,9,416,3,3,9,['k'],['d'],N,Y,['space'],Y,,,,,,,female,20,
37,10,417,5,5,9,['d'],['k'],N,Y,['space'],Y,,,,,,,female,20,
38,0,418,4,4,9,['k'],['k'],Y,N,None,Y,,,,,,,female,20,
38,1,419,5,5,9,['d'],['d'],Y,N,None,Y,,,,,,,female,20,
38,2,420,4,4,9,['k'],['k'],Y,Y,['space'],Y,,,,,,,female,20,
38,3,421,9,9,9,['d'],['k'],N,N,None,Y,,,,,,,female,20,
38,4,422,5,5,9,['k'],['d'],N,Y,None,N,,,,,,,female,20,
38,5,423,7,7,9,['d'],['k'],N,N,None,Y,,,,,,,female,20,
38,6,424,5,5,9,['k'],['d'],N,N,None,Y,,,,,,,female,20,
38,7,425,9,9,9,['d'],['k'],N,N,None,Y,,,,,,,female,20,
38,8,426,1,1,9,['k'],['k'],Y,Y,['space'],Y,,,,,,,female,20,
38,9,427,5,5,9,['d'],['d'],Y,N,None,Y,,,,,,,female,20,
38,10,428,8,8,9,['k'],['k'],Y,N,None,Y,,,,,,,female,20,
39,0,429,5,5,9,['k'],['k'],Y,Y,['space'],Y,,,,,,,female,20,
39,1,430,1,1,9,['d'],['k'],N,Y,['space'],Y,,,,,,,female,20,
39,2,431,2,2,9,['d'],['k'],N,Y,['space'],Y,,,,,,,female,20,
39,3,432,1,1,9,['d'],['k'],N,N,None,Y,,,,,,,female,20,
39,4,433,9,9,9,['k'],['k'],Y,N,None,Y,,,,,,,female,20,
39,5,434,2,2,9,['d'],['d'],Y,N,None,Y,,,,,,,female,20,
39,6,435,2,2,9,['d'],['k'],N,Y,['space'],Y,,,,,,,female,20,
39,7,436,7,7,9,['k'],['d'],N,N,None,Y,,,,,,,female,20,
39,8,437,1,1,9,['k'],['k'],Y,Y,None,N,,,,,,,female,20,
39,9,438,0,0,9,['k'],['k'],Y,Y,['space'],Y,,,,,,,female,20,
39,10,439,5,5,9,['d'],['k'],N,Y,['space'],Y,,,,,,,female,20,
40,0,440,10,10,9,['d'],['d'],Y,Y,['space'],Y,,,,,,,female,20,
40,1,441,3,3,9,['k'],['k'],Y,Y,['space'],Y,,,,,,,female,20,
40,2,442,7,7,9,['d'],['d'],Y,N,None,Y,,,,,,,female,20,
40,3,443,10,10,9,['k'],['d'],N,Y,None,N,,,,,,,female,20,
40,4,444,5,5,9,['k'],['d'],N,Y,['space'],Y,,,,,,,female,20,
40,5,445,10,10,9,['k'],['d'],N,N,None,Y,,,,,,,female,20,
40,6,446,5,5,9,['d'],['k'],N,Y,['space'],Y,,,,,,,female,20,
40,7,447,9,9,9,['d'],['d'],Y,N,None,Y,,,,,,,female,20,
40,8,448,8,8,9,['d'],['k'],N,Y,['space'],Y,,,,,,,female,20,
40,9,449,7,7,9,['d'],['k'],N,Y,None,N,21,43,25,,,,female,20,
40,10,450,10,10,10,['k'],['k'],Y,,,,,,,,,,female,20,
41,0,451,9,9,10,['k'],['k'],Y,,,,,,,,,,female,20,
41,1,452,3,3,10,['k'],['d'],N,N,None,Y,,,,,,,female,20,
41,2,453,10,10,10,['k'],['d'],N,Y,['space'],Y,,,,,,,female,20,
41,3,454,7,7,10,['k'],['k'],Y,N,None,Y,,,,,,,female,20,
41,4,455,9,9,10,['d'],['d'],Y,N,None,Y,,,,,,,female,20,
41,5,456,8,8,10,['d'],['k'],N,N,None,Y,,,,,,,female,20,
41,6,457,8,8,10,['k'],['d'],N,N,None,Y,,,,,,,female,20,
41,7,458,4,4,10,['d'],['k'],N,Y,['space'],Y,,,,,,,female,20,
41,8,459,9,9,10,['d'],['d'],Y,N,None,Y,,,,,,,female,20,
41,9,460,8,8,10,['k'],['d'],N,N,None,Y,,,,,,,female,20,
41,10,461,9,9,10,['d'],['d'],Y,Y,['space'],Y,,,,,,,female,20,
42,0,462,6,6,10,['k'],['k'],Y,N,None,Y,,,,,,,female,20,
42,1,463,3,3,10,['d'],['d'],Y,N,None,Y,,,,,,,female,20,
42,2,464,9,9,10,['k'],['d'],N,N,None,Y,,,,,,,female,20,
42,3,465,8,8,10,['d'],['d'],Y,N,None,Y,,,,,,,female,20,
42,4,466,5,5,10,['k'],['d'],N,Y,None,N,,,,,,,female,20,
42,5,467,9,9,10,['k'],['k'],Y,Y,['space'],Y,,,,,,,female,20,
42,6,468,1,1,10,['k'],['d'],N,N,None,Y,,,,,,,female,20,
42,7,469,3,3,10,['d'],['k'],N,N,None,Y,,,,,,,female,20,
42,8,470,4,4,10,['k'],['k'],Y,N,None,Y,,,,,,,female,20,
42,9,471,1,1,10,['d'],['d'],Y,Y,['space'],Y,,,,,,,female,20,
42,10,472,0,0,10,['k'],['d'],N,Y,['space'],Y,,,,,,,female,20,
43,0,473,1,1,10,['d'],['k'],N,Y,['space'],Y,,,,,,,female,20,
43,1,474,10,10,10,['k'],['d'],N,N,None,Y,,,,,,,female,20,
43,2,475,2,2,10,['d'],['d'],Y,Y,['space'],Y,,,,,,,female,20,
43,3,476,0,0,10,['k'],['k'],Y,N,None,Y,,,,,,,female,20,
43,4,477,3,3,10,['k'],['k'],Y,Y,['space'],Y,,,,,,,female,20,
43,5,478,3,3,10,['k'],['d'],N,N,None,Y,,,,,,,female,20,
43,6,479,4,4,10,['d'],['d'],Y,Y,['space'],Y,,,,,,,female,20,
43,7,480,8,8,10,['d'],['d'],Y,Y,['space'],Y,,,,,,,female,20,
43,8,481,0,0,10,['d'],['k'],N,Y,['space'],Y,,,,,,,female,20,
43,9,482,2,2,10,['k'],['k'],Y,N,None,Y,,,,,,,female,20,
43,10,483,4,4,10,['d'],['k'],N,Y,['space'],Y,,,,,,,female,20,
44,0,484,8,8,10,['k'],['d'],N,N,None,Y,,,,,,,female,20,
44,1,485,7,7,10,['d'],['d'],Y,N,None,Y,,,,,,,female,20,
44,2,486,7,7,10,['k'],['d'],N,N,None,Y,,,,,,,female,20,
44,3,487,3,3,10,['d'],['d'],Y,Y,['space'],Y,,,,,,,female,20,
44,4,488,1,1,10,['k'],['k'],Y,N,None,Y,,,,,,,female,20,
44,5,489,1,1,10,['d'],['k'],N,Y,['space'],Y,,,,,,,female,20,
44,6,490,4,4,10,['k'],['d'],N,Y,['space'],Y,,,,,,,female,20,
44,7,491,4,4,10,['d'],['k'],N,N,None,Y,,,,,,,female,20,
44,8,492,7,7,10,['k'],['k'],Y,Y,['space'],Y,,,,,,,female,20,
44,9,493,7,7,10,['k'],['d'],N,Y,['space'],Y,,,,,,,female,20,
44,10,494,5,5,10,['k'],['k'],Y,Y,['space'],Y,,,,,,,female,20,
45,0,495,7,7,10,['d'],['k'],N,Y,['space'],Y,,,,,,,female,20,
45,1,496,4,4,10,['k'],['k'],Y,N,None,Y,,,,,,,female,20,
45,2,497,9,9,10,['d'],['k'],N,Y,['k'],N,,,,,,,female,20,
45,3,498,10,10,10,['k'],['k'],Y,Y,['space'],Y,,,,,,,female,20,
45,4,499,9,9,10,['k'],['k'],Y,N,None,Y,26,46,23,,,,female,20,
45,5,500,6,6,11,['k'],['k'],N,,,,,,,Y,Y,Y,female,20,
45,6,501,5,5,11,['k'],['k'],N,,,,,,,,Y,Y,female,20,
45,7,502,5,5,11,['d'],['k'],Y,N,None,Y,,,,,Y,Y,female,20,
45,8,503,6,6,11,['d'],['d'],N,Y,['space'],Y,,,,,Y,Y,female,20,
45,9,504,1,1,11,['k'],['d'],Y,Y,['space'],Y,,,,,Y,Y,female,20,
45,10,505,2,2,11,['d'],['d'],N,N,None,Y,,,,,Y,Y,female,20,
46,0,506,0,0,11,['k'],['k'],N,N,None,Y,,,,,Y,Y,female,20,
46,1,507,1,1,11,['d'],['k'],Y,N,None,Y,,,,,Y,Y,female,20,
46,2,508,10,10,11,['k'],['k'],N,Y,['space'],Y,,,,,Y,Y,female,20,
46,3,509,9,9,11,['d'],['k'],Y,N,None,Y,,,,,Y,Y,female,20,
46,4,510,5,5,11,['k'],['k'],N,N,None,Y,,,,,Y,Y,female,20,
46,5,511,3,3,11,['k'],['k'],N,N,None,Y,,,,,Y,Y,female,20,
46,6,512,10,10,11,['d'],['k'],Y,Y,['space'],Y,,,,,Y,Y,female,20,
46,7,513,10,10,11,['d'],['k'],Y,N,None,Y,,,,,Y,Y,female,20,
46,8,514,9,9,11,['d'],['k'],Y,N,None,Y,,,,,Y,Y,female,20,
46,9,515,2,2,11,['d'],['k'],Y,N,None,Y,,,,,Y,Y,female,20,
46,10,516,6,6,11,['k'],['d'],Y,N,None,Y,,,,,Y,Y,female,20,
47,0,517,5,5,11,['k'],['k'],N,Y,['space'],Y,,,,,Y,Y,female,20,
47,1,518,8,8,11,['d'],['d'],N,Y,None,N,,,,,Y,Y,female,20,
47,2,519,1,1,11,['d'],['d'],N,Y,['space'],Y,,,,,Y,Y,female,20,
47,3,520,2,2,11,['k'],['k'],N,N,None,Y,,,,,Y,Y,female,20,
47,4,521,8,8,11,['k'],['d'],Y,Y,['space'],Y,,,,,Y,Y,female,20,
47,5,522,4,4,11,['k'],['d'],Y,Y,['space'],Y,,,,,Y,Y,female,20,
47,6,523,3,3,11,['d'],['d'],N,Y,['space'],Y,,,,,Y,Y,female,20,
47,7,524,10,10,11,['k'],['d'],Y,N,None,Y,,,,,Y,Y,female,20,
47,8,525,7,7,11,['d'],['k'],Y,N,None,Y,,,,,Y,Y,female,20,
47,9,526,1,1,11,['d'],['k'],Y,Y,None,N,,,,,Y,Y,female,20,
47,10,527,2,2,11,['k'],['d'],Y,Y,None,N,,,,,Y,Y,female,20,
48,0,528,5,5,11,['k'],['k'],N,Y,['space'],Y,,,,,Y,Y,female,20,
48,1,529,10,10,11,['k'],['d'],Y,Y,['space'],Y,,,,,Y,Y,female,20,
48,2,530,5,5,11,['k'],['d'],Y,Y,['space'],Y,,,,,Y,Y,female,20,
48,3,531,2,2,11,['k'],['d'],Y,Y,['space'],Y,,,,,Y,Y,female,20,
48,4,532,0,0,11,['k'],['k'],N,N,None,Y,,,,,Y,Y,female,20,
48,5,533,8,8,11,['k'],['d'],Y,Y,['space'],Y,,,,,Y,Y,female,20,
48,6,534,4,4,11,['d'],['k'],Y,N,None,Y,,,,,Y,Y,female,20,
48,7,535,7,7,11,['k'],['k'],N,Y,['space'],Y,,,,,Y,Y,female,20,
48,8,536,6,6,11,['k'],['k'],N,N,None,Y,,,,,Y,Y,female,20,
48,9,537,5,5,11,['d'],['d'],N,N,None,Y,,,,,Y,Y,female,20,
48,10,538,5,5,11,['k'],['d'],Y,N,['space'],N,,,,,Y,Y,female,20,
49,0,539,2,2,11,['d'],['d'],N,N,None,Y,,,,,Y,Y,female,20,
49,1,540,2,2,11,['k'],['d'],Y,Y,['space'],Y,,,,,Y,Y,female,20,
49,2,541,8,8,11,['k'],['d'],Y,Y,['space'],Y,,,,,Y,Y,female,20,
49,3,542,9,9,11,['k'],['k'],N,Y,['space'],Y,,,,,Y,Y,female,20,
49,4,543,10,10,11,['d'],['d'],N,N,None,Y,,,,,Y,Y,female,20,
49,5,544,0,0,11,['k'],['k'],N,Y,['space'],Y,,,,,Y,Y,female,20,
49,6,545,8,8,11,['d'],['k'],Y,Y,None,N,,,,,Y,Y,female,20,
49,7,546,6,6,11,['k'],['k'],N,Y,['space'],Y,,,,,Y,Y,female,20,
49,8,547,0,0,11,['d'],['d'],N,Y,['space'],Y,,,,,Y,Y,female,20,
49,9,548,0,0,11,['k'],['d'],Y,N,None,Y,,,,,Y,Y,female,20,
49,10,549,8,8,11,['d'],['k'],Y,N,None,Y,26,43,25,,Y,Y,female,20,
50,0,550,10,10,12,['k'],['d'],Y,,,,,,,,Y,Y,female,20,
50,1,551,10,10,12,['k'],['k'],N,,,,,,,,Y,Y,female,20,
50,2,552,8,8,12,['d'],['d'],N,N,None,Y,,,,,Y,Y,female,20,
50,3,553,2,2,12,['k'],['k'],N,N,None,Y,,,,,Y,Y,female,20,
50,4,554,9,9,12,['d'],['d'],N,Y,['space'],Y,,,,,Y,Y,female,20,
50,5,555,5,5,12,['k'],['d'],Y,Y,['space'],Y,,,,,Y,Y,female,20,
50,6,556,8,8,12,['d'],['k'],Y,Y,['space'],Y,,,,,Y,Y,female,20,
50,7,557,9,9,12,['k'],['d'],Y,Y,['space'],Y,,,,,Y,Y,female,20,
50,8,558,6,6,12,['d'],['d'],N,Y,['space'],Y,,,,,Y,Y,female,20,
50,9,559,6,6,12,['k'],['d'],Y,N,None,Y,,,,,Y,Y,female,20,
50,10,560,3,3,12,['k'],['d'],Y,N,None,Y,,,,,Y,Y,female,20,
51,0,561,3,3,12,['k'],['d'],Y,Y,['space'],Y,,,,,Y,Y,female,20,
51,1,562,4,4,12,['k'],['d'],Y,Y,None,N,,,,,Y,Y,female,20,
51,2,563,5,5,12,['d'],['k'],Y,N,None,Y,,,,,Y,Y,female,20,
51,3,564,9,9,12,['k'],['k'],N,Y,['space'],Y,,,,,Y,Y,female,20,
51,4,565,1,1,12,['d'],['d'],N,Y,['space'],Y,,,,,Y,Y,female,20,
51,5,566,10,10,12,['k'],['k'],N,N,None,Y,,,,,Y,Y,female,20,
51,6,567,1,1,12,['k'],['k'],N,N,None,Y,,,,,Y,Y,female,20,
51,7,568,0,0,12,['d'],['d'],N,N,None,Y,,,,,Y,Y,female,20,
51,8,569,2,2,12,['k'],['d'],Y,N,['space'],N,,,,,Y,Y,female,20,
51,9,570,6,6,12,['k'],['k'],N,Y,['space'],Y,,,,,Y,Y,female,20,
51,10,571,8,8,12,['k'],['d'],Y,Y,['space'],Y,,,,,Y,Y,female,20,
52,0,572,4,4,12,['d'],['k'],Y,Y,['space'],Y,,,,,Y,Y,female,20,
52,1,573,6,6,12,['k'],['k'],N,N,None,Y,,,,,Y,Y,female,20,
52,2,574,5,5,12,['d'],['d'],N,N,None,Y,,,,,Y,Y,female,20,
52,3,575,9,9,12,['k'],['k'],N,Y,['space'],Y,,,,,Y,Y,female,20,
52,4,576,0,0,12,['d'],['k'],Y,Y,['space'],Y,,,,,Y,Y,female,20,
52,5,577,3,3,12,['k'],['d'],Y,Y,['space'],Y,,,,,Y,Y,female,20,
52,6,578,8,8,12,['d'],['k'],Y,N,None,Y,,,,,Y,Y,female,20,
52,7,579,1,1,12,['k'],['d'],Y,Y,['space'],Y,,,,,Y,Y,female,20,
52,8,580,8,8,12,['k'],['k'],N,Y,['space'],Y,,,,,Y,Y,female,20,
52,9,581,0,0,12,['d'],['k'],Y,Y,['space'],Y,,,,,Y,Y,female,20,
52,10,582,3,3,12,['k'],['k'],N,Y,None,N,,,,,Y,Y,female,20,
53,0,583,9,9,12,['d'],['k'],Y,Y,['space'],Y,,,,,Y,Y,female,20,
53,1,584,5,5,12,['d'],['d'],N,Y,['space'],Y,,,,,Y,Y,female,20,
53,2,585,0,0,12,['k'],['d'],Y,Y,['space'],Y,,,,,Y,Y,female,20,
53,3,586,6,6,12,['d'],['d'],N,N,None,Y,,,,,Y,Y,female,20,
53,4,587,2,2,12,['k'],['d'],Y,Y,['space'],Y,,,,,Y,Y,female,20,
53,5,588,8,8,12,['d'],['k'],Y,N,None,Y,,,,,Y,Y,female,20,
53,6,589,4,4,12,['k'],['k'],N,Y,['space'],Y,,,,,Y,Y,female,20,
53,7,590,0,0,12,['d'],['d'],N,N,None,Y,,,,,Y,Y,female,20,
53,8,591,5,5,12,['k'],['d'],Y,N,None,Y,,,,,Y,Y,female,20,
53,9,592,5,5,12,['d'],['d'],N,N,['space'],N,,,,,Y,Y,female,20,
53,10,593,0,0,12,['k'],['k'],N,Y,None,N,,,,,Y,Y,female,20,
54,0,594,7,7,12,['k'],['d'],Y,N,None,Y,,,,,Y,Y,female,20,
54,1,595,1,1,12,['k'],['k'],N,N,None,Y,,,,,Y,Y,female,20,
54,2,596,10,10,12,['d'],['d'],N,N,None,Y,,,,,Y,Y,female,20,
54,3,597,4,4,12,['d'],['k'],Y,N,None,Y,,,,,Y,Y,female,20,
54,4,598,10,10,12,['k'],['d'],Y,N,None,Y,,,,,Y,Y,female,20,
54,5,599,7,7,12,['k'],['d'],Y,N,None,Y,26,43,25,,Y,Y,female,20,
