.thisRepN,.thisTrialN,.thisN,.thisIndex,.thisTrial,Block Number,Key pressed,Category,Correct?,Int Match?,Int Response,Int Correct?,Line Accuracy,Interference Accuracy,Matching Interferences,New instruction shown?,Buttons switched?,Fast?,gender,age,
0,0,0,7,7,1,['d'],['d'],Y,,,,,,,,,,F,20,
0,1,1,7,7,1,['k'],['k'],Y,,,,,,,,,,F,20,
0,2,2,5,5,1,['k'],['k'],Y,N,None,Y,,,,,,,F,20,
0,3,3,0,0,1,['k'],['k'],Y,Y,None,N,,,,,,,F,20,
0,4,4,8,8,1,['k'],['k'],Y,Y,['space'],Y,,,,,,,F,20,
0,5,5,10,10,1,['d'],['d'],Y,N,None,Y,,,,,,,F,20,
0,6,6,9,9,1,['k'],['d'],N,N,None,Y,,,,,,,F,20,
0,7,7,13,13,1,['k'],['k'],Y,N,None,Y,,,,,,,F,20,
0,8,8,3,3,1,['k'],['k'],Y,N,None,Y,,,,,,,F,20,
0,9,9,13,13,1,['k'],['k'],Y,Y,['space'],Y,,,,,,,F,20,
0,10,10,3,3,1,['k'],['k'],Y,Y,None,N,,,,,,,F,20,
0,11,11,10,10,1,['d'],['d'],Y,N,None,Y,,,,,,,F,20,
0,12,12,14,14,1,['d'],['d'],Y,N,None,Y,,,,,,,F,20,
0,13,13,7,7,1,['d'],['d'],Y,Y,None,N,,,,,,,F,20,
0,14,14,4,4,1,['k'],['k'],Y,N,None,Y,,,,,,,F,20,
1,0,15,11,11,1,['k'],['k'],Y,Y,None,N,,,,,,,F,20,
1,1,16,0,0,1,['d'],['d'],Y,N,None,Y,,,,,,,F,20,
1,2,17,13,13,1,['d'],['d'],Y,Y,None,N,,,,,,,F,20,
1,3,18,7,7,1,['k'],['k'],Y,Y,None,N,,,,,,,F,20,
1,4,19,11,11,1,['k'],['k'],Y,Y,None,N,,,,,,,F,20,
1,5,20,2,2,1,['d'],['d'],Y,N,None,Y,,,,,,,F,20,
1,6,21,1,1,1,['d'],['d'],Y,N,None,Y,,,,,,,F,20,
1,7,22,6,6,1,['k'],['k'],Y,Y,['space'],Y,,,,,,,F,20,
1,8,23,1,1,1,['d'],['d'],Y,N,None,Y,,,,,,,F,20,
1,9,24,9,9,1,['k'],['k'],Y,Y,None,N,,,,,,,F,20,
1,10,25,11,11,1,['d'],['k'],N,Y,['space'],Y,,,,,,,F,20,
1,11,26,8,8,1,['k'],['k'],Y,N,None,Y,,,,,,,F,20,
1,12,27,5,5,1,['d'],['d'],Y,Y,None,N,,,,,,,F,20,
1,13,28,6,6,1,['d'],['d'],Y,Y,None,N,,,,,,,F,20,
1,14,29,2,2,1,['d'],['d'],Y,Y,None,N,,,,,,,F,20,
2,0,30,9,9,1,['d'],['d'],Y,N,['space'],N,,,,,,,F,20,
2,1,31,5,5,1,['d'],['d'],Y,Y,None,N,,,,,,,F,20,
2,2,32,12,12,1,['k'],['d'],N,N,None,Y,,,,,,,F,20,
2,3,33,12,12,1,['d'],['d'],Y,N,['space'],N,,,,,,,F,20,
2,4,34,10,10,1,['d'],['d'],Y,Y,None,N,,,,,,,F,20,
2,5,35,11,11,1,['d'],['k'],N,N,None,Y,,,,,,,F,20,
2,6,36,8,8,1,['d'],['d'],Y,N,None,Y,,,,,,,F,20,
2,7,37,0,0,1,['k'],['k'],Y,N,None,Y,,,,,,,F,20,
2,8,38,2,2,1,['k'],['k'],Y,N,None,Y,,,,,,,F,20,
2,9,39,6,6,1,['d'],['d'],Y,Y,None,N,,,,,,,F,20,
2,10,40,4,4,1,['d'],['d'],Y,Y,['space'],Y,,,,,,,F,20,
2,11,41,7,7,1,['d'],['d'],Y,Y,None,N,,,,,,,F,20,
2,12,42,11,11,1,['d'],['k'],N,Y,None,N,,,,,,,F,20,
2,13,43,5,5,1,['k'],['k'],Y,Y,None,N,,,,,,,F,20,
2,14,44,14,14,1,['k'],['k'],Y,N,['space'],N,,,,,,,F,20,
3,0,45,4,4,1,['k'],['k'],Y,N,None,Y,,,,,,,F,20,
3,1,46,14,14,1,['k'],['k'],Y,Y,None,N,,,,,,,F,20,
3,2,47,14,14,1,['k'],['k'],Y,Y,None,N,,,,,,,F,20,
3,3,48,13,13,1,['k'],['d'],N,N,None,Y,,,,,,,F,20,
3,4,49,11,11,1,['k'],['k'],Y,Y,['space'],Y,44,26,25,,,,F,20,
3,5,50,0,0,2,['k'],['k'],Y,,,,,,,,,,F,20,
3,6,51,14,14,2,['k'],['d'],N,,,,,,,,,,F,20,
3,7,52,12,12,2,['k'],['k'],Y,N,None,Y,,,,,,,F,20,
3,8,53,13,13,2,['k'],['d'],N,Y,['space'],Y,,,,,,,F,20,
3,9,54,14,14,2,['k'],['k'],Y,N,None,Y,,,,,,,F,20,
3,10,55,3,3,2,['d'],['d'],Y,N,None,Y,,,,,,,F,20,
3,11,56,6,6,2,['k'],['k'],Y,N,None,Y,,,,,,,F,20,
3,12,57,4,4,2,['k'],['k'],Y,N,None,Y,,,,,,,F,20,
3,13,58,9,9,2,['d'],['d'],Y,Y,['space'],Y,,,,,,,F,20,
3,14,59,8,8,2,['k'],['k'],Y,Y,['space'],Y,,,,,,,F,20,
4,0,60,12,12,2,['k'],['d'],N,N,None,Y,,,,,,,F,20,
4,1,61,11,11,2,['k'],['k'],Y,N,None,Y,,,,,,,F,20,
4,2,62,5,5,2,['k'],['k'],Y,N,None,Y,,,,,,,F,20,
4,3,63,4,4,2,['k'],['k'],Y,N,None,Y,,,,,,,F,20,
4,4,64,1,1,2,['k'],['k'],Y,N,None,Y,,,,,,,F,20,
4,5,65,0,0,2,['k'],['k'],Y,N,None,Y,,,,,,,F,20,
4,6,66,1,1,2,['d'],['d'],Y,N,['space'],N,,,,,,,F,20,
4,7,67,1,1,2,['d'],['d'],Y,N,None,Y,,,,,,,F,20,
4,8,68,7,7,2,['k'],['k'],Y,Y,None,N,,,,,,,F,20,
4,9,69,11,11,2,['d'],['d'],Y,N,None,Y,,,,,,,F,20,
4,10,70,12,12,2,['k'],['k'],Y,Y,None,N,,,,,,,F,20,
4,11,71,2,2,2,['k'],['k'],Y,N,None,Y,,,,,,,F,20,
4,12,72,13,13,2,['d'],['d'],Y,N,None,Y,,,,,,,F,20,
4,13,73,8,8,2,['d'],['d'],Y,Y,['space'],Y,,,,,,,F,20,
4,14,74,9,9,2,['d'],['d'],Y,Y,['space'],Y,,,,,,,F,20,
5,0,75,8,8,2,['d'],['d'],Y,Y,['space'],Y,,,,,,,F,20,
5,1,76,2,2,2,['k'],['k'],Y,N,None,Y,,,,,,,F,20,
5,2,77,12,12,2,['d'],['k'],N,Y,['space'],Y,,,,,,,F,20,
5,3,78,12,12,2,['k'],['k'],Y,N,None,Y,,,,,,,F,20,
5,4,79,5,5,2,['k'],['k'],Y,Y,['space'],Y,,,,,,,F,20,
5,5,80,8,8,2,['k'],['k'],Y,N,None,Y,,,,,,,F,20,
5,6,81,11,11,2,['d'],['d'],Y,Y,['space'],Y,,,,,,,F,20,
5,7,82,2,2,2,['k'],['k'],Y,Y,['space'],Y,,,,,,,F,20,
5,8,83,6,6,2,['d'],['d'],Y,N,None,Y,,,,,,,F,20,
5,9,84,3,3,2,['k'],['k'],Y,N,None,Y,,,,,,,F,20,
5,10,85,2,2,2,['d'],['d'],Y,Y,['space'],Y,,,,,,,F,20,
5,11,86,10,10,2,['k'],['k'],Y,N,None,Y,,,,,,,F,20,
5,12,87,10,10,2,['d'],['d'],Y,N,None,Y,,,,,,,F,20,
5,13,88,2,2,2,['d'],['d'],Y,N,None,Y,,,,,,,F,20,
5,14,89,14,14,2,['d'],['d'],Y,N,None,Y,,,,,,,F,20,
6,0,90,14,14,2,['d'],['d'],Y,Y,['space'],Y,,,,,,,F,20,
6,1,91,6,6,2,['k'],['d'],N,N,None,Y,,,,,,,F,20,
6,2,92,12,12,2,['d'],['k'],N,Y,['space'],Y,,,,,,,F,20,
6,3,93,8,8,2,['d'],['d'],Y,N,None,Y,,,,,,,F,20,
6,4,94,14,14,2,['d'],['d'],Y,N,None,Y,,,,,,,F,20,
6,5,95,0,0,2,['k'],['k'],Y,Y,['space'],Y,,,,,,,F,20,
6,6,96,4,4,2,['d'],['d'],Y,Y,None,N,,,,,,,F,20,
6,7,97,1,1,2,['d'],['d'],Y,Y,None,N,,,,,,,F,20,
6,8,98,0,0,2,['k'],['k'],Y,Y,['space'],Y,,,,,,,F,20,
6,9,99,7,7,2,['d'],['d'],Y,N,None,Y,44,43,19,,,,F,20,
6,10,100,1,1,3,['d'],['k'],N,,,,,,,,,,F,20,
6,11,101,10,10,3,['d'],['d'],Y,,,,,,,,,,F,20,
6,12,102,10,10,3,['d'],['d'],Y,N,['space'],N,,,,,,,F,20,
6,13,103,6,6,3,['k'],['k'],Y,Y,None,N,,,,,,,F,20,
6,14,104,13,13,3,['k'],['k'],Y,N,None,Y,,,,,,,F,20,
7,0,105,1,1,3,['k'],['k'],Y,Y,['space'],Y,,,,,,,F,20,
7,1,106,14,14,3,['d'],['d'],Y,Y,['space'],Y,,,,,,,F,20,
7,2,107,2,2,3,['d'],['d'],Y,Y,None,N,,,,,,,F,20,
7,3,108,12,12,3,['k'],['k'],Y,Y,['space'],Y,,,,,,,F,20,
7,4,109,13,13,3,['d'],['d'],Y,Y,['space'],Y,,,,,,,F,20,
7,5,110,11,11,3,['d'],['k'],N,N,None,Y,,,,,,,F,20,
7,6,111,0,0,3,['d'],['d'],Y,N,None,Y,,,,,,,F,20,
7,7,112,4,4,3,['k'],['k'],Y,N,None,Y,,,,,,,F,20,
7,8,113,0,0,3,['k'],['k'],Y,N,None,Y,,,,,,,F,20,
7,9,114,14,14,3,['k'],['k'],Y,N,None,Y,,,,,,,F,20,
7,10,115,5,5,3,['d'],['d'],Y,N,None,Y,,,,,,,F,20,
7,11,116,11,11,3,['k'],['d'],N,Y,['space'],Y,,,,,,,F,20,
7,12,117,6,6,3,['d'],['d'],Y,Y,None,N,,,,,,,F,20,
7,13,118,12,12,3,['k'],['d'],N,N,None,Y,,,,,,,F,20,
7,14,119,13,13,3,['d'],['d'],Y,Y,None,N,,,,,,,F,20,
8,0,120,14,14,3,['k'],['d'],N,N,None,Y,,,,,,,F,20,
8,1,121,6,6,3,['k'],['d'],N,N,None,Y,,,,,,,F,20,
8,2,122,1,1,3,['k'],['k'],Y,Y,['space'],Y,,,,,,,F,20,
8,3,123,8,8,3,['k'],['k'],Y,Y,['space'],Y,,,,,,,F,20,
8,4,124,4,4,3,['k'],['k'],Y,N,None,Y,,,,,,,F,20,
8,5,125,11,11,3,['k'],['k'],Y,N,None,Y,,,,,,,F,20,
8,6,126,11,11,3,['d'],['d'],Y,N,None,Y,,,,,,,F,20,
8,7,127,4,4,3,['d'],['d'],Y,N,None,Y,,,,,,,F,20,
8,8,128,2,2,3,['d'],['d'],Y,N,None,Y,,,,,,,F,20,
8,9,129,10,10,3,['d'],['d'],Y,Y,['space'],Y,,,,,,,F,20,
8,10,130,0,0,3,['k'],['k'],Y,N,None,Y,,,,,,,F,20,
8,11,131,4,4,3,['d'],['d'],Y,Y,['space'],Y,,,,,,,F,20,
8,12,132,11,11,3,['k'],['k'],Y,N,None,Y,,,,,,,F,20,
8,13,133,8,8,3,['d'],['d'],Y,Y,None,N,,,,,,,F,20,
8,14,134,1,1,3,['k'],['k'],Y,Y,None,N,,,,,,,F,20,
9,0,135,7,7,3,['k'],['k'],Y,Y,['space'],Y,,,,,,,F,20,
9,1,136,10,10,3,['k'],['k'],Y,N,None,Y,,,,,,,F,20,
9,2,137,7,7,3,['k'],['k'],Y,N,None,Y,,,,,,,F,20,
9,3,138,12,12,3,['d'],['d'],Y,Y,None,N,,,,,,,F,20,
9,4,139,12,12,3,['k'],['k'],Y,N,None,Y,,,,,,,F,20,
9,5,140,0,0,3,['k'],['d'],N,N,None,Y,,,,,,,F,20,
9,6,141,3,3,3,['k'],['d'],N,N,None,Y,,,,,,,F,20,
9,7,142,10,10,3,['k'],['d'],N,N,None,Y,,,,,,,F,20,
9,8,143,14,14,3,['k'],['d'],N,Y,None,N,,,,,,,F,20,
9,9,144,12,12,3,['d'],['d'],Y,Y,None,N,,,,,,,F,20,
9,10,145,3,3,3,['k'],['k'],Y,N,None,Y,,,,,,,F,20,
9,11,146,4,4,3,['d'],['d'],Y,N,None,Y,,,,,,,F,20,
9,12,147,2,2,3,['k'],['k'],Y,N,None,Y,,,,,,,F,20,
9,13,148,10,10,3,['d'],['d'],Y,N,None,Y,,,,,,,F,20,
9,14,149,4,4,3,['d'],['d'],Y,N,None,Y,40,38,19,,,,F,20,
10,0,150,12,12,4,['d'],['d'],Y,,,,,,,,,,F,20,
10,1,151,6,6,4,['k'],['k'],Y,,,,,,,,,,F,20,
10,2,152,12,12,4,['d'],['k'],N,N,None,Y,,,,,,,F,20,
10,3,153,4,4,4,['k'],['k'],Y,N,None,Y,,,,,,,F,20,
10,4,154,1,1,4,['k'],['d'],N,Y,['space'],Y,,,,,,,F,20,
10,5,155,9,9,4,['d'],['k'],N,Y,['space'],Y,,,,,,,F,20,
10,6,156,11,11,4,['d'],['d'],Y,N,None,Y,,,,,,,F,20,
10,7,157,2,2,4,['k'],['d'],N,Y,['space'],Y,,,,,,,F,20,
10,8,158,11,11,4,['d'],['d'],Y,N,None,Y,,,,,,,F,20,
10,9,159,11,11,4,['k'],['k'],Y,N,None,Y,,,,,,,F,20,
10,10,160,1,1,4,['d'],['d'],Y,Y,['space'],Y,,,,,,,F,20,
10,11,161,11,11,4,['d'],['k'],N,N,None,Y,,,,,,,F,20,
10,12,162,1,1,4,['d'],['d'],Y,Y,None,N,,,,,,,F,20,
10,13,163,7,7,4,['d'],['d'],Y,Y,None,N,,,,,,,F,20,
10,14,164,8,8,4,['d'],['d'],Y,N,None,Y,,,,,,,F,20,
11,0,165,14,14,4,['k'],['d'],N,Y,None,N,,,,,,,F,20,
11,1,166,13,13,4,['d'],['d'],Y,Y,None,N,,,,,,,F,20,
11,2,167,2,2,4,['k'],['k'],Y,Y,None,N,,,,,,,F,20,
11,3,168,6,6,4,['k'],['k'],Y,Y,None,N,,,,,,,F,20,
11,4,169,6,6,4,['k'],['k'],Y,Y,['k'],N,,,,,,,F,20,
11,5,170,0,0,4,['d'],['d'],Y,Y,None,N,,,,,,,F,20,
11,6,171,3,3,4,['d'],['d'],Y,N,None,Y,,,,,,,F,20,
11,7,172,11,11,4,['k'],['k'],Y,N,None,Y,,,,,,,F,20,
11,8,173,12,12,4,['d'],['d'],Y,Y,None,N,,,,,,,F,20,
11,9,174,9,9,4,['k'],['k'],Y,N,None,Y,,,,,,,F,20,
11,10,175,1,1,4,['k'],['d'],N,N,None,Y,,,,,,,F,20,
11,11,176,10,10,4,['k'],['k'],Y,Y,None,N,,,,,,,F,20,
11,12,177,2,2,4,['d'],['d'],Y,N,None,Y,,,,,,,F,20,
11,13,178,2,2,4,['k'],['k'],Y,Y,['space'],Y,,,,,,,F,20,
11,14,179,1,1,4,['k'],['k'],Y,Y,['space'],Y,,,,,,,F,20,
12,0,180,12,12,4,['k'],['k'],Y,Y,['space'],Y,,,,,,,F,20,
12,1,181,11,11,4,['d'],['d'],Y,Y,['space'],Y,,,,,,,F,20,
12,2,182,10,10,4,['k'],['d'],N,N,None,Y,,,,,,,F,20,
12,3,183,7,7,4,['d'],['d'],Y,Y,['space'],Y,,,,,,,F,20,
12,4,184,5,5,4,['d'],['d'],Y,N,None,Y,,,,,,,F,20,
12,5,185,10,10,4,['k'],['k'],Y,N,None,Y,,,,,,,F,20,
12,6,186,6,6,4,['d'],['d'],Y,Y,['space'],Y,,,,,,,F,20,
12,7,187,7,7,4,['k'],['k'],Y,Y,['space'],Y,,,,,,,F,20,
12,8,188,8,8,4,['k'],['k'],Y,N,None,Y,,,,,,,F,20,
12,9,189,4,4,4,['k'],['k'],Y,Y,None,N,,,,,,,F,20,
12,10,190,6,6,4,['d'],['d'],Y,N,None,Y,,,,,,,F,20,
12,11,191,2,2,4,['k'],['d'],N,N,None,Y,,,,,,,F,20,
12,12,192,8,8,4,['d'],['d'],Y,N,None,Y,,,,,,,F,20,
12,13,193,0,0,4,['k'],['k'],Y,N,None,Y,,,,,,,F,20,
12,14,194,4,4,4,['d'],['d'],Y,N,None,Y,,,,,,,F,20,
13,0,195,11,11,4,['d'],['d'],Y,N,None,Y,,,,,,,F,20,
13,1,196,1,1,4,['k'],['k'],Y,N,None,Y,,,,,,,F,20,
13,2,197,7,7,4,['k'],['k'],Y,N,None,Y,,,,,,,F,20,
13,3,198,5,5,4,['k'],['k'],Y,Y,['space'],Y,,,,,,,F,20,
13,4,199,6,6,4,['d'],['d'],Y,N,None,Y,41,37,23,,,,F,20,
13,5,200,5,5,5,['k'],['k'],Y,,,,,,,,,,F,20,
13,6,201,11,11,5,['k'],['k'],Y,,,,,,,,,,F,20,
13,7,202,6,6,5,['d'],['d'],Y,Y,None,N,,,,,,,F,20,
13,8,203,4,4,5,['k'],['k'],Y,N,None,Y,,,,,,,F,20,
13,9,204,5,5,5,['k'],['d'],N,N,None,Y,,,,,,,F,20,
13,10,205,7,7,5,['d'],['d'],Y,Y,['space'],Y,,,,,,,F,20,
13,11,206,0,0,5,['k'],['k'],Y,Y,['space'],Y,,,,,,,F,20,
13,12,207,11,11,5,['d'],['d'],Y,Y,['space'],Y,,,,,,,F,20,
13,13,208,4,4,5,['k'],['k'],Y,Y,['space'],Y,,,,,,,F,20,
13,14,209,14,14,5,['d'],['d'],Y,N,None,Y,,,,,,,F,20,
14,0,210,14,14,5,['k'],['k'],Y,N,None,Y,,,,,,,F,20,
14,1,211,4,4,5,['k'],['k'],Y,N,None,Y,,,,,,,F,20,
14,2,212,9,9,5,['d'],['d'],Y,N,None,Y,,,,,,,F,20,
14,3,213,5,5,5,['k'],['k'],Y,Y,None,N,,,,,,,F,20,
14,4,214,3,3,5,['k'],['k'],Y,N,None,Y,,,,,,,F,20,
14,5,215,12,12,5,['k'],['k'],Y,Y,['space'],Y,,,,,,,F,20,
14,6,216,9,9,5,['k'],['d'],N,N,None,Y,,,,,,,F,20,
14,7,217,13,13,5,['k'],['k'],Y,Y,['space'],Y,,,,,,,F,20,
14,8,218,9,9,5,['k'],['d'],N,N,None,Y,,,,,,,F,20,
14,9,219,8,8,5,['d'],['d'],Y,Y,['space'],Y,,,,,,,F,20,
14,10,220,3,3,5,['k'],['k'],Y,Y,['space'],Y,,,,,,,F,20,
14,11,221,9,9,5,['d'],['d'],Y,Y,['space'],Y,,,,,,,F,20,
14,12,222,4,4,5,['d'],['d'],Y,Y,['space'],Y,,,,,,,F,20,
14,13,223,9,9,5,['k'],['k'],Y,N,None,Y,,,,,,,F,20,
14,14,224,2,2,5,['d'],['d'],Y,Y,['space'],Y,,,,,,,F,20,
15,0,225,12,12,5,['k'],['k'],Y,Y,['space'],Y,,,,,,,F,20,
15,1,226,1,1,5,['k'],['k'],Y,Y,['space'],Y,,,,,,,F,20,
15,2,227,6,6,5,['k'],['k'],Y,Y,['space'],Y,,,,,,,F,20,
15,3,228,12,12,5,['k'],['k'],Y,Y,['space'],Y,,,,,,,F,20,
15,4,229,4,4,5,['d'],['d'],Y,N,None,Y,,,,,,,F,20,
15,5,230,1,1,5,['k'],['k'],Y,Y,['space'],Y,,,,,,,F,20,
15,6,231,10,10,5,['k'],['k'],Y,Y,['space'],Y,,,,,,,F,20,
15,7,232,0,0,5,['d'],['d'],Y,Y,['space'],Y,,,,,,,F,20,
15,8,233,7,7,5,['d'],['k'],N,Y,['space'],Y,,,,,,,F,20,
15,9,234,3,3,5,['k'],['d'],N,Y,['space'],Y,,,,,,,F,20,
15,10,235,9,9,5,['k'],['k'],Y,N,None,Y,,,,,,,F,20,
15,11,236,1,1,5,['k'],['k'],Y,N,None,Y,,,,,,,F,20,
15,12,237,6,6,5,['k'],['k'],Y,Y,['space'],Y,,,,,,,F,20,
15,13,238,0,0,5,['k'],['k'],Y,Y,['space'],Y,,,,,,,F,20,
15,14,239,9,9,5,['k'],['k'],Y,Y,['space'],Y,,,,,,,F,20,
16,0,240,12,12,5,['k'],['k'],Y,N,None,Y,,,,,,,F,20,
16,1,241,13,13,5,['d'],['k'],N,N,None,Y,,,,,,,F,20,
16,2,242,11,11,5,['k'],['k'],Y,N,None,Y,,,,,,,F,20,
16,3,243,1,1,5,['d'],['d'],Y,N,None,Y,,,,,,,F,20,
16,4,244,7,7,5,['k'],['k'],Y,N,None,Y,,,,,,,F,20,
16,5,245,11,11,5,['k'],['d'],N,N,['space'],N,,,,,,,F,20,
16,6,246,3,3,5,['d'],['d'],Y,N,None,Y,,,,,,,F,20,
16,7,247,8,8,5,['d'],['d'],Y,N,None,Y,,,,,,,F,20,
16,8,248,5,5,5,['k'],['k'],Y,N,None,Y,,,,,,,F,20,
16,9,249,10,10,5,['k'],['d'],N,N,None,Y,42,45,25,,,,F,20,
16,10,250,10,10,6,['k'],['k'],Y,,,,,,,,,,F,20,
16,11,251,3,3,6,['d'],['d'],Y,,,,,,,,,,F,20,
16,12,252,13,13,6,['k'],['k'],Y,N,None,Y,,,,,,,F,20,
16,13,253,9,9,6,['k'],['k'],Y,Y,['space'],Y,,,,,,,F,20,
16,14,254,4,4,6,['k'],['k'],Y,Y,['space'],Y,,,,,,,F,20,
17,0,255,0,0,6,['k'],['k'],Y,N,None,Y,,,,,,,F,20,
17,1,256,2,2,6,['d'],['d'],Y,Y,['space'],Y,,,,,,,F,20,
17,2,257,2,2,6,['k'],['k'],Y,N,None,Y,,,,,,,F,20,
17,3,258,9,9,6,['k'],['k'],Y,N,None,Y,,,,,,,F,20,
17,4,259,14,14,6,['d'],['d'],Y,Y,['space'],Y,,,,,,,F,20,
17,5,260,2,2,6,['d'],['d'],Y,N,None,Y,,,,,,,F,20,
17,6,261,13,13,6,['k'],['k'],Y,N,None,Y,,,,,,,F,20,
17,7,262,6,6,6,['k'],['k'],Y,N,None,Y,,,,,,,F,20,
17,8,263,1,1,6,['d'],['k'],N,N,None,Y,,,,,,,F,20,
17,9,264,3,3,6,['d'],['d'],Y,N,None,Y,,,,,,,F,20,
17,10,265,0,0,6,['k'],['k'],Y,N,None,Y,,,,,,,F,20,
17,11,266,12,12,6,['d'],['d'],Y,Y,None,N,,,,,,,F,20,
17,12,267,6,6,6,['d'],['d'],Y,Y,['space'],Y,,,,,,,F,20,
17,13,268,7,7,6,['k'],['k'],Y,N,None,Y,,,,,,,F,20,
17,14,269,6,6,6,['k'],['k'],Y,N,None,Y,,,,,,,F,20,
18,0,270,2,2,6,['d'],['d'],Y,Y,['space'],Y,,,,,,,F,20,
18,1,271,0,0,6,['k'],['k'],Y,N,None,Y,,,,,,,F,20,
18,2,272,3,3,6,['d'],['d'],Y,N,None,Y,,,,,,,F,20,
18,3,273,5,5,6,['k'],['k'],Y,Y,['space'],Y,,,,,,,F,20,
18,4,274,4,4,6,['d'],['k'],N,Y,['space'],Y,,,,,,,F,20,
18,5,275,1,1,6,['d'],['d'],Y,Y,['space'],Y,,,,,,,F,20,
18,6,276,7,7,6,['d'],['k'],N,Y,['space'],Y,,,,,,,F,20,
18,7,277,7,7,6,['d'],['d'],Y,N,None,Y,,,,,,,F,20,
18,8,278,12,12,6,['d'],['d'],Y,N,['space'],N,,,,,,,F,20,
18,9,279,11,11,6,['d'],['d'],Y,N,None,Y,,,,,,,F,20,
18,10,280,2,2,6,['d'],['d'],Y,N,None,Y,,,,,,,F,20,
18,11,281,14,14,6,['k'],['k'],Y,Y,['space'],Y,,,,,,,F,20,
18,12,282,9,9,6,['k'],['k'],Y,N,None,Y,,,,,,,F,20,
18,13,283,5,5,6,['k'],['k'],Y,Y,None,N,,,,,,,F,20,
18,14,284,13,13,6,['d'],['d'],Y,N,None,Y,,,,,,,F,20,
19,0,285,9,9,6,['k'],['d'],N,Y,None,N,,,,,,,F,20,
19,1,286,3,3,6,['k'],['d'],N,N,None,Y,,,,,,,F,20,
19,2,287,10,10,6,['k'],['k'],Y,Y,['space'],Y,,,,,,,F,20,
19,3,288,7,7,6,['k'],['k'],Y,Y,None,N,,,,,,,F,20,
19,4,289,3,3,6,['k'],['k'],Y,Y,['space'],Y,,,,,,,F,20,
19,5,290,13,13,6,['k'],['k'],Y,N,None,Y,,,,,,,F,20,
19,6,291,0,0,6,['k'],['k'],Y,N,None,Y,,,,,,,F,20,
19,7,292,11,11,6,['k'],['k'],Y,Y,['space'],Y,,,,,,,F,20,
19,8,293,8,8,6,['d'],['d'],Y,Y,['space'],Y,,,,,,,F,20,
19,9,294,4,4,6,['k'],['k'],Y,Y,['space'],Y,,,,,,,F,20,
19,10,295,14,14,6,['d'],['d'],Y,Y,['k'],N,,,,,,,F,20,
19,11,296,2,2,6,['k'],['k'],Y,Y,['space'],Y,,,,,,,F,20,
19,12,297,1,1,6,['d'],['d'],Y,N,None,Y,,,,,,,F,20,
19,13,298,6,6,6,['k'],['d'],N,Y,['space'],Y,,,,,,,F,20,
19,14,299,5,5,6,['k'],['k'],Y,Y,['space'],Y,44,42,24,,,,F,20,
20,0,300,5,5,7,['k'],['k'],Y,,,,,,,,,,F,20,
20,1,301,1,1,7,['k'],['d'],N,,,,,,,,,,F,20,
20,2,302,6,6,7,['k'],['k'],Y,N,None,Y,,,,,,,F,20,
20,3,303,1,1,7,['d'],['d'],Y,N,None,Y,,,,,,,F,20,
20,4,304,7,7,7,['d'],['d'],Y,N,None,Y,,,,,,,F,20,
20,5,305,8,8,7,['k'],['d'],N,Y,['space'],Y,,,,,,,F,20,
20,6,306,3,3,7,['d'],['d'],Y,N,None,Y,,,,,,,F,20,
20,7,307,2,2,7,['k'],['k'],Y,Y,['space'],Y,,,,,,,F,20,
20,8,308,0,0,7,['k'],['k'],Y,N,None,Y,,,,,,,F,20,
20,9,309,13,13,7,['k'],['k'],Y,N,None,Y,,,,,,,F,20,
20,10,310,11,11,7,['d'],['d'],Y,Y,['space'],Y,,,,,,,F,20,
20,11,311,11,11,7,['d'],['d'],Y,Y,['space'],Y,,,,,,,F,20,
20,12,312,12,12,7,['d'],['d'],Y,Y,['space'],Y,,,,,,,F,20,
20,13,313,12,12,7,['k'],['k'],Y,Y,['space'],Y,,,,,,,F,20,
20,14,314,0,0,7,['k'],['d'],N,N,None,Y,,,,,,,F,20,
21,0,315,6,6,7,['k'],['k'],Y,Y,['space'],Y,,,,,,,F,20,
21,1,316,4,4,7,['d'],['d'],Y,N,None,Y,,,,,,,F,20,
21,2,317,10,10,7,['d'],['d'],Y,Y,['space'],Y,,,,,,,F,20,
21,3,318,1,1,7,['k'],['k'],Y,Y,['space'],Y,,,,,,,F,20,
21,4,319,9,9,7,['k'],['k'],Y,Y,['space'],Y,,,,,,,F,20,
21,5,320,9,9,7,['k'],['k'],Y,N,None,Y,,,,,,,F,20,
21,6,321,12,12,7,['k'],['d'],N,Y,['space'],Y,,,,,,,F,20,
21,7,322,0,0,7,['d'],['d'],Y,N,None,Y,,,,,,,F,20,
21,8,323,2,2,7,['d'],['d'],Y,Y,None,N,,,,,,,F,20,
21,9,324,9,9,7,['k'],['k'],Y,N,['space'],N,,,,,,,F,20,
21,10,325,0,0,7,['k'],['k'],Y,N,['space'],N,,,,,,,F,20,
21,11,326,13,13,7,['k'],['k'],Y,N,None,Y,,,,,,,F,20,
21,12,327,6,6,7,['d'],['d'],Y,N,None,Y,,,,,,,F,20,
21,13,328,8,8,7,['k'],['k'],Y,Y,['space'],Y,,,,,,,F,20,
21,14,329,13,13,7,['d'],['d'],Y,Y,['space'],Y,,,,,,,F,20,
22,0,330,9,9,7,['k'],['k'],Y,N,None,Y,,,,,,,F,20,
22,1,331,5,5,7,['d'],['d'],Y,N,None,Y,,,,,,,F,20,
22,2,332,14,14,7,['d'],['d'],Y,Y,['space'],Y,,,,,,,F,20,
22,3,333,9,9,7,['d'],['k'],N,Y,['space'],Y,,,,,,,F,20,
22,4,334,10,10,7,['k'],['k'],Y,N,None,Y,,,,,,,F,20,
22,5,335,5,5,7,['k'],['k'],Y,Y,['space'],Y,,,,,,,F,20,
22,6,336,6,6,7,['d'],['d'],Y,N,None,Y,,,,,,,F,20,
22,7,337,3,3,7,['k'],['k'],Y,N,None,Y,,,,,,,F,20,
22,8,338,4,4,7,['k'],['k'],Y,Y,['space'],Y,,,,,,,F,20,
22,9,339,5,5,7,['k'],['k'],Y,Y,['space'],Y,,,,,,,F,20,
22,10,340,12,12,7,['k'],['k'],Y,N,None,Y,,,,,,,F,20,
22,11,341,7,7,7,['d'],['d'],Y,Y,['space'],Y,,,,,,,F,20,
22,12,342,7,7,7,['k'],['k'],Y,Y,['space'],Y,,,,,,,F,20,
22,13,343,7,7,7,['k'],['k'],Y,Y,['space'],Y,,,,,,,F,20,
22,14,344,13,13,7,['d'],['d'],Y,N,None,Y,,,,,,,F,20,
23,0,345,5,5,7,['k'],['k'],Y,N,None,Y,,,,,,,F,20,
23,1,346,5,5,7,['d'],['d'],Y,Y,['space'],Y,,,,,,,F,20,
23,2,347,4,4,7,['d'],['d'],Y,Y,['space'],Y,,,,,,,F,20,
23,3,348,6,6,7,['k'],['k'],Y,N,None,Y,,,,,,,F,20,
23,4,349,3,3,7,['k'],['k'],Y,Y,['space'],Y,45,45,25,,,,F,20,
23,5,350,13,13,8,['k'],['k'],Y,,,,,,,,,,F,20,
23,6,351,10,10,8,['k'],['k'],Y,,,,,,,,,,F,20,
23,7,352,7,7,8,['k'],['k'],Y,N,None,Y,,,,,,,F,20,
23,8,353,4,4,8,['d'],['d'],Y,N,None,Y,,,,,,,F,20,
23,9,354,4,4,8,['d'],['d'],Y,N,None,Y,,,,,,,F,20,
23,10,355,3,3,8,['d'],['k'],N,Y,['space'],Y,,,,,,,F,20,
23,11,356,12,12,8,['k'],['k'],Y,Y,['space'],Y,,,,,,,F,20,
23,12,357,11,11,8,['d'],['d'],Y,N,None,Y,,,,,,,F,20,
23,13,358,13,13,8,['k'],['k'],Y,Y,['space'],Y,,,,,,,F,20,
23,14,359,2,2,8,['d'],['d'],Y,N,None,Y,,,,,,,F,20,
24,0,360,12,12,8,['d'],['d'],Y,N,None,Y,,,,,,,F,20,
24,1,361,0,0,8,['d'],['d'],Y,Y,['space'],Y,,,,,,,F,20,
24,2,362,13,13,8,['d'],['d'],Y,N,None,Y,,,,,,,F,20,
24,3,363,9,9,8,['d'],['d'],Y,N,None,Y,,,,,,,F,20,
24,4,364,1,1,8,['d'],['d'],Y,Y,['space'],Y,,,,,,,F,20,
24,5,365,9,9,8,['k'],['k'],Y,N,None,Y,,,,,,,F,20,
24,6,366,1,1,8,['d'],['d'],Y,N,None,Y,,,,,,,F,20,
24,7,367,7,7,8,['d'],['k'],N,Y,['space'],Y,,,,,,,F,20,
24,8,368,14,14,8,['d'],['d'],Y,Y,['space'],Y,,,,,,,F,20,
24,9,369,6,6,8,['d'],['d'],Y,Y,['space'],Y,,,,,,,F,20,
24,10,370,9,9,8,['d'],['k'],N,N,None,Y,,,,,,,F,20,
24,11,371,4,4,8,['d'],['d'],Y,N,None,Y,,,,,,,F,20,
24,12,372,1,1,8,['d'],['k'],N,Y,None,N,,,,,,,F,20,
24,13,373,3,3,8,['k'],['k'],Y,N,None,Y,,,,,,,F,20,
24,14,374,4,4,8,['k'],['d'],N,N,['space'],N,,,,,,,F,20,
25,0,375,13,13,8,['k'],['k'],Y,N,None,Y,,,,,,,F,20,
25,1,376,10,10,8,['k'],['k'],Y,Y,['space'],Y,,,,,,,F,20,
25,2,377,14,14,8,['d'],['d'],Y,N,None,Y,,,,,,,F,20,
25,3,378,0,0,8,['d'],['d'],Y,Y,['space'],Y,,,,,,,F,20,
25,4,379,1,1,8,['k'],['k'],Y,Y,['space'],Y,,,,,,,F,20,
25,5,380,13,13,8,['k'],['k'],Y,N,None,Y,,,,,,,F,20,
25,6,381,8,8,8,['k'],['k'],Y,Y,['space'],Y,,,,,,,F,20,
25,7,382,11,11,8,['k'],['k'],Y,Y,['space'],Y,,,,,,,F,20,
25,8,383,4,4,8,['d'],['d'],Y,Y,['space'],Y,,,,,,,F,20,
25,9,384,1,1,8,['d'],['d'],Y,N,None,Y,,,,,,,F,20,
25,10,385,14,14,8,['d'],['d'],Y,Y,None,N,,,,,,,F,20,
25,11,386,3,3,8,['k'],['k'],Y,Y,None,N,,,,,,,F,20,
25,12,387,8,8,8,['k'],['k'],Y,N,None,Y,,,,,,,F,20,
25,13,388,7,7,8,['d'],['d'],Y,Y,None,N,,,,,,,F,20,
25,14,389,6,6,8,['k'],['d'],N,N,None,Y,,,,,,,F,20,
26,0,390,14,14,8,['d'],['d'],Y,Y,['space'],Y,,,,,,,F,20,
26,1,391,14,14,8,['k'],['k'],Y,N,None,Y,,,,,,,F,20,
26,2,392,3,3,8,['d'],['d'],Y,N,None,Y,,,,,,,F,20,
26,3,393,12,12,8,['d'],['d'],Y,N,['space'],N,,,,,,,F,20,
26,4,394,1,1,8,['d'],['d'],Y,Y,['space'],Y,,,,,,,F,20,
26,5,395,10,10,8,['k'],['d'],N,Y,['space'],Y,,,,,,,F,20,
26,6,396,2,2,8,['d'],['d'],Y,Y,['space'],Y,,,,,,,F,20,
26,7,397,10,10,8,['k'],['k'],Y,Y,['space'],Y,,,,,,,F,20,
26,8,398,12,12,8,['k'],['k'],Y,Y,['space'],Y,,,,,,,F,20,
26,9,399,9,9,8,['k'],['k'],Y,Y,['space'],Y,43,42,25,,,,F,20,
26,10,400,13,13,9,['k'],['k'],Y,,,,,,,,,,F,20,
26,11,401,3,3,9,['k'],['k'],Y,,,,,,,,,,F,20,
26,12,402,0,0,9,['k'],['k'],Y,N,None,Y,,,,,,,F,20,
26,13,403,10,10,9,['k'],['d'],N,Y,['space'],Y,,,,,,,F,20,
26,14,404,0,0,9,['d'],['d'],Y,N,None,Y,,,,,,,F,20,
27,0,405,7,7,9,['d'],['d'],Y,Y,['space'],Y,,,,,,,F,20,
27,1,406,3,3,9,['k'],['k'],Y,N,None,Y,,,,,,,F,20,
27,2,407,10,10,9,['d'],['d'],Y,N,None,Y,,,,,,,F,20,
27,3,408,2,2,9,['d'],['k'],N,Y,['space'],Y,,,,,,,F,20,
27,4,409,5,5,9,['k'],['d'],N,N,None,Y,,,,,,,F,20,
27,5,410,4,4,9,['k'],['d'],N,N,['space'],N,,,,,,,F,20,
27,6,411,10,10,9,['d'],['k'],N,Y,None,N,,,,,,,F,20,
27,7,412,5,5,9,['k'],['d'],N,Y,None,N,,,,,,,F,20,
27,8,413,2,2,9,['k'],['k'],Y,N,None,Y,,,,,,,F,20,
27,9,414,1,1,9,['k'],['k'],Y,N,None,Y,,,,,,,F,20,
27,10,415,6,6,9,['d'],['k'],N,Y,['d'],N,,,,,,,F,20,
27,11,416,5,5,9,['k'],['k'],Y,N,None,Y,,,,,,,F,20,
27,12,417,14,14,9,['k'],['k'],Y,N,None,Y,,,,,,,F,20,
27,13,418,8,8,9,['d'],['d'],Y,N,None,Y,,,,,,,F,20,
27,14,419,11,11,9,['k'],['k'],Y,N,None,Y,,,,,,,F,20,
28,0,420,12,12,9,['d'],['d'],Y,N,None,Y,,,,,,,F,20,
28,1,421,9,9,9,['k'],['k'],Y,Y,None,N,,,,,,,F,20,
28,2,422,7,7,9,['k'],['k'],Y,N,None,Y,,,,,,,F,20,
28,3,423,8,8,9,['k'],['k'],Y,N,None,Y,,,,,,,F,20,
28,4,424,6,6,9,['d'],['d'],Y,Y,None,N,,,,,,,F,20,
28,5,425,1,1,9,['k'],['k'],Y,N,None,Y,,,,,,,F,20,
28,6,426,12,12,9,['k'],['d'],N,Y,['space'],Y,,,,,,,F,20,
28,7,427,8,8,9,['k'],['k'],Y,Y,None,N,,,,,,,F,20,
28,8,428,3,3,9,['d'],['d'],Y,Y,['space'],Y,,,,,,,F,20,
28,9,429,8,8,9,['k'],['k'],Y,N,None,Y,,,,,,,F,20,
28,10,430,10,10,9,['k'],['k'],Y,Y,['space'],Y,,,,,,,F,20,
28,11,431,5,5,9,['k'],['k'],Y,Y,['space'],Y,,,,,,,F,20,
28,12,432,9,9,9,['d'],['k'],N,Y,['space'],Y,,,,,,,F,20,
28,13,433,13,13,9,['d'],['d'],Y,N,None,Y,,,,,,,F,20,
28,14,434,8,8,9,['d'],['d'],Y,N,['space'],N,,,,,,,F,20,
29,0,435,7,7,9,['k'],['d'],N,Y,['space'],Y,,,,,,,F,20,
29,1,436,8,8,9,['d'],['d'],Y,Y,['space'],Y,,,,,,,F,20,
29,2,437,3,3,9,['d'],['d'],Y,N,None,Y,,,,,,,F,20,
29,3,438,6,6,9,['d'],['d'],Y,Y,['space'],Y,,,,,,,F,20,
29,4,439,14,14,9,['k'],['k'],Y,N,None,Y,,,,,,,F,20,
29,5,440,8,8,9,['d'],['k'],N,Y,None,N,,,,,,,F,20,
29,6,441,2,2,9,['d'],['k'],N,N,None,Y,,,,,,,F,20,
29,7,442,11,11,9,['k'],['k'],Y,N,None,Y,,,,,,,F,20,
29,8,443,3,3,9,['k'],['k'],Y,N,None,Y,,,,,,,F,20,
29,9,444,13,13,9,['d'],['d'],Y,Y,None,N,,,,,,,F,20,
29,10,445,2,2,9,['k'],['k'],Y,N,None,Y,,,,,,,F,20,
29,11,446,3,3,9,['d'],['d'],Y,Y,None,N,,,,,,,F,20,
29,12,447,2,2,9,['d'],['d'],Y,Y,['space'],Y,,,,,,,F,20,
29,13,448,9,9,9,['k'],['k'],Y,Y,['space'],Y,,,,,,,F,20,
29,14,449,12,12,9,['k'],['k'],Y,Y,['space'],Y,38,37,23,,,,F,20,
30,0,450,13,13,10,['k'],['k'],Y,,,,,,,,,,F,20,
30,1,451,7,7,10,['k'],['k'],Y,,,,,,,,,,F,20,
30,2,452,11,11,10,['k'],['d'],N,N,None,Y,,,,,,,F,20,
30,3,453,9,9,10,['k'],['d'],N,N,None,Y,,,,,,,F,20,
30,4,454,12,12,10,['d'],['d'],Y,Y,['space'],Y,,,,,,,F,20,
30,5,455,13,13,10,['d'],['d'],Y,Y,None,N,,,,,,,F,20,
30,6,456,13,13,10,['d'],['d'],Y,N,None,Y,,,,,,,F,20,
30,7,457,11,11,10,['k'],['k'],Y,Y,['space'],Y,,,,,,,F,20,
30,8,458,0,0,10,['d'],['d'],Y,N,None,Y,,,,,,,F,20,
30,9,459,6,6,10,['k'],['k'],Y,Y,['space'],Y,,,,,,,F,20,
30,10,460,8,8,10,['d'],['d'],Y,Y,['space'],Y,,,,,,,F,20,
30,11,461,3,3,10,['k'],['d'],N,N,None,Y,,,,,,,F,20,
30,12,462,7,7,10,['d'],['k'],N,N,['space'],N,,,,,,,F,20,
30,13,463,3,3,10,['d'],['d'],Y,Y,['space'],Y,,,,,,,F,20,
30,14,464,14,14,10,['k'],['d'],N,N,None,Y,,,,,,,F,20,
31,0,465,14,14,10,['k'],['d'],N,N,None,Y,,,,,,,F,20,
31,1,466,8,8,10,['d'],['d'],Y,N,None,Y,,,,,,,F,20,
31,2,467,1,1,10,['k'],['d'],N,N,None,Y,,,,,,,F,20,
31,3,468,3,3,10,['d'],['d'],Y,N,None,Y,,,,,,,F,20,
31,4,469,12,12,10,['k'],['d'],N,N,None,Y,,,,,,,F,20,
31,5,470,2,2,10,['d'],['d'],Y,N,None,Y,,,,,,,F,20,
31,6,471,10,10,10,['k'],['k'],Y,N,None,Y,,,,,,,F,20,
31,7,472,11,11,10,['k'],['k'],Y,Y,None,N,,,,,,,F,20,
31,8,473,6,6,10,['k'],['k'],Y,N,None,Y,,,,,,,F,20,
31,9,474,8,8,10,['k'],['d'],N,N,None,Y,,,,,,,F,20,
31,10,475,13,13,10,['k'],['d'],N,N,None,Y,,,,,,,F,20,
31,11,476,13,13,10,['k'],['k'],Y,N,None,Y,,,,,,,F,20,
31,12,477,5,5,10,['k'],['k'],Y,N,None,Y,,,,,,,F,20,
31,13,478,2,2,10,['k'],['k'],Y,Y,None,N,,,,,,,F,20,
31,14,479,9,9,10,['d'],['d'],Y,Y,['space'],Y,,,,,,,F,20,
32,0,480,10,10,10,['k'],['d'],N,Y,None,N,,,,,,,F,20,
32,1,481,7,7,10,['d'],['d'],Y,N,None,Y,,,,,,,F,20,
32,2,482,2,2,10,['d'],['d'],Y,N,None,Y,,,,,,,F,20,
32,3,483,4,4,10,['d'],['d'],Y,N,None,Y,,,,,,,F,20,
32,4,484,10,10,10,['d'],['d'],Y,Y,None,N,,,,,,,F,20,
32,5,485,8,8,10,['d'],['d'],Y,N,None,Y,,,,,,,F,20,
32,6,486,4,4,10,['k'],['k'],Y,Y,['space'],Y,,,,,,,F,20,
32,7,487,0,0,10,['k'],['k'],Y,Y,['space'],Y,,,,,,,F,20,
32,8,488,14,14,10,['d'],['k'],N,Y,None,N,,,,,,,F,20,
32,9,489,5,5,10,['k'],['k'],Y,N,None,Y,,,,,,,F,20,
32,10,490,0,0,10,['k'],['k'],Y,N,None,Y,,,,,,,F,20,
32,11,491,13,13,10,['d'],['d'],Y,Y,None,N,,,,,,,F,20,
32,12,492,10,10,10,['d'],['k'],N,Y,None,N,,,,,,,F,20,
32,13,493,2,2,10,['k'],['d'],N,N,None,Y,,,,,,,F,20,
32,14,494,14,14,10,['k'],['k'],Y,N,None,Y,,,,,,,F,20,
33,0,495,8,8,10,['k'],['k'],Y,Y,None,N,,,,,,,F,20,
33,1,496,3,3,10,['d'],['d'],Y,N,None,Y,,,,,,,F,20,
33,2,497,13,13,10,['k'],['k'],Y,Y,None,N,,,,,,,F,20,
33,3,498,10,10,10,['d'],['d'],Y,Y,None,N,,,,,,,F,20,
33,4,499,14,14,10,['k'],['k'],Y,Y,['space'],Y,36,36,20,,,,F,20,
33,5,500,5,5,11,None,,Timed out,,,,,,,Y,Y,Y,F,20,
33,6,501,9,9,11,None,,Timed out,,,,,,,,Y,Y,F,20,
33,7,502,10,10,11,None,,Timed out,Y,None,N,,,,,Y,Y,F,20,
33,8,503,5,5,11,None,,Timed out,N,None,Y,,,,,Y,Y,F,20,
33,9,504,8,8,11,None,,Timed out,Y,None,N,,,,,Y,Y,F,20,
33,10,505,8,8,11,['k'],['k'],N,N,None,Y,,,,,Y,Y,F,20,
33,11,506,5,5,11,['d'],['d'],N,Y,None,N,,,,,Y,Y,F,20,
33,12,507,4,4,11,['d'],['k'],Y,Y,None,N,,,,,Y,Y,F,20,
33,13,508,7,7,11,['k'],['k'],N,Y,None,N,,,,,Y,Y,F,20,
33,14,509,2,2,11,['d'],['k'],Y,N,None,Y,,,,,Y,Y,F,20,
34,0,510,7,7,11,['d'],['k'],Y,Y,None,N,,,,,Y,Y,F,20,
34,1,511,4,4,11,['k'],['d'],Y,N,None,Y,,,,,Y,Y,F,20,
34,2,512,14,14,11,['k'],['k'],N,N,None,Y,,,,,Y,Y,F,20,
34,3,513,5,5,11,['d'],['k'],Y,Y,None,N,,,,,Y,Y,F,20,
34,4,514,1,1,11,['d'],['d'],N,Y,None,N,,,,,Y,Y,F,20,
34,5,515,14,14,11,['k'],['d'],Y,Y,None,N,,,,,Y,Y,F,20,
34,6,516,6,6,11,['d'],['k'],Y,N,None,Y,,,,,Y,Y,F,20,
34,7,517,8,8,11,['k'],['d'],Y,Y,['space'],Y,,,,,Y,Y,F,20,
34,8,518,9,9,11,['k'],['d'],Y,Y,None,N,,,,,Y,Y,F,20,
34,9,519,1,1,11,['k'],['d'],Y,N,None,Y,,,,,Y,Y,F,20,
34,10,520,3,3,11,['k'],['k'],N,N,None,Y,,,,,Y,Y,F,20,
34,11,521,3,3,11,['k'],['d'],Y,Y,None,N,,,,,Y,Y,F,20,
34,12,522,12,12,11,['k'],['k'],N,N,None,Y,,,,,Y,Y,F,20,
34,13,523,12,12,11,['d'],['k'],Y,Y,['space'],Y,,,,,Y,Y,F,20,
34,14,524,11,11,11,['d'],['k'],Y,Y,None,N,,,,,Y,Y,F,20,
35,0,525,5,5,11,['d'],['k'],Y,N,None,Y,,,,,Y,Y,F,20,
35,1,526,5,5,11,['d'],['k'],Y,N,None,Y,,,,,Y,Y,F,20,
35,2,527,14,14,11,['d'],['k'],Y,N,None,Y,,,,,Y,Y,F,20,
35,3,528,3,3,11,['d'],['d'],N,Y,['space'],Y,,,,,Y,Y,F,20,
35,4,529,12,12,11,['d'],['k'],Y,N,['space'],N,,,,,Y,Y,F,20,
35,5,530,13,13,11,['d'],['k'],Y,N,None,Y,,,,,Y,Y,F,20,
35,6,531,6,6,11,['k'],['d'],Y,Y,['space'],Y,,,,,Y,Y,F,20,
35,7,532,0,0,11,['k'],['k'],N,Y,['space'],Y,,,,,Y,Y,F,20,
35,8,533,10,10,11,['d'],['d'],N,Y,None,N,,,,,Y,Y,F,20,
35,9,534,0,0,11,['d'],['d'],N,Y,None,N,,,,,Y,Y,F,20,
35,10,535,13,13,11,['d'],['k'],Y,N,None,Y,,,,,Y,Y,F,20,
35,11,536,2,2,11,['k'],['d'],Y,Y,None,N,,,,,Y,Y,F,20,
35,12,537,10,10,11,['k'],['d'],Y,Y,None,N,,,,,Y,Y,F,20,
35,13,538,1,1,11,['k'],['d'],Y,Y,['space'],Y,,,,,Y,Y,F,20,
35,14,539,13,13,11,['d'],['k'],Y,Y,['space'],Y,,,,,Y,Y,F,20,
36,0,540,14,14,11,['k'],['k'],N,Y,['space'],Y,,,,,Y,Y,F,20,
36,1,541,14,14,11,['k'],['d'],Y,N,None,Y,,,,,Y,Y,F,20,
36,2,542,5,5,11,['k'],['d'],Y,Y,['space'],Y,,,,,Y,Y,F,20,
36,3,543,10,10,11,['k'],['d'],Y,N,None,Y,,,,,Y,Y,F,20,
36,4,544,0,0,11,['k'],['k'],N,N,None,Y,,,,,Y,Y,F,20,
36,5,545,2,2,11,['d'],['k'],Y,N,None,Y,,,,,Y,Y,F,20,
36,6,546,7,7,11,['d'],['k'],Y,N,None,Y,,,,,Y,Y,F,20,
36,7,547,11,11,11,['k'],['k'],N,N,None,Y,,,,,Y,Y,F,20,
36,8,548,1,1,11,None,,Timed out,N,None,Y,,,,,Y,Y,F,20,
36,9,549,14,14,11,['k'],['d'],Y,N,None,Y,30,31,25,,Y,Y,F,20,
36,10,550,11,11,12,['k'],['k'],N,,,,,,,,Y,Y,F,20,
36,11,551,1,1,12,['k'],['d'],Y,,,,,,,,Y,Y,F,20,
36,12,552,10,10,12,['k'],['d'],Y,N,None,Y,,,,,Y,Y,F,20,
36,13,553,12,12,12,['k'],['d'],Y,Y,None,N,,,,,Y,Y,F,20,
36,14,554,5,5,12,['k'],['d'],Y,Y,None,N,,,,,Y,Y,F,20,
37,0,555,5,5,12,['k'],['d'],Y,N,None,Y,,,,,Y,Y,F,20,
37,1,556,0,0,12,['k'],['d'],Y,Y,['space'],Y,,,,,Y,Y,F,20,
37,2,557,7,7,12,['k'],['d'],Y,Y,['space'],Y,,,,,Y,Y,F,20,
37,3,558,8,8,12,['k'],['k'],N,N,None,Y,,,,,Y,Y,F,20,
37,4,559,6,6,12,['d'],['k'],Y,Y,['space'],Y,,,,,Y,Y,F,20,
37,5,560,10,10,12,['k'],['d'],Y,N,None,Y,,,,,Y,Y,F,20,
37,6,561,4,4,12,['d'],['k'],Y,Y,None,N,,,,,Y,Y,F,20,
37,7,562,13,13,12,None,,Timed out,N,None,Y,,,,,Y,Y,F,20,
37,8,563,13,13,12,['d'],['k'],Y,N,None,Y,,,,,Y,Y,F,20,
37,9,564,3,3,12,None,,Timed out,Y,None,N,,,,,Y,Y,F,20,
37,10,565,4,4,12,['k'],['d'],Y,Y,['space'],Y,,,,,Y,Y,F,20,
37,11,566,8,8,12,['d'],['k'],Y,Y,['space'],Y,,,,,Y,Y,F,20,
37,12,567,3,3,12,['d'],['k'],Y,Y,['space'],Y,,,,,Y,Y,F,20,
37,13,568,14,14,12,['k'],['d'],Y,Y,['space'],Y,,,,,Y,Y,F,20,
37,14,569,6,6,12,['k'],['d'],Y,Y,['space'],Y,,,,,Y,Y,F,20,
38,0,570,5,5,12,['k'],['k'],N,N,None,Y,,,,,Y,Y,F,20,
38,1,571,8,8,12,None,,Timed out,N,None,Y,,,,,Y,Y,F,20,
38,2,572,9,9,12,['k'],['k'],N,N,None,Y,,,,,Y,Y,F,20,
38,3,573,3,3,12,['k'],['d'],Y,N,None,Y,,,,,Y,Y,F,20,
38,4,574,14,14,12,['k'],['k'],N,Y,None,N,,,,,Y,Y,F,20,
38,5,575,2,2,12,['d'],['k'],Y,N,None,Y,,,,,Y,Y,F,20,
38,6,576,0,0,12,['k'],['d'],Y,Y,None,N,,,,,Y,Y,F,20,
38,7,577,8,8,12,['d'],['d'],N,Y,['space'],Y,,,,,Y,Y,F,20,
38,8,578,9,9,12,['d'],['k'],Y,N,None,Y,,,,,Y,Y,F,20,
38,9,579,4,4,12,['d'],['d'],N,Y,['space'],Y,,,,,Y,Y,F,20,
38,10,580,7,7,12,['k'],['d'],Y,N,None,Y,,,,,Y,Y,F,20,
38,11,581,5,5,12,['k'],['d'],Y,Y,None,N,,,,,Y,Y,F,20,
38,12,582,7,7,12,['k'],['d'],Y,Y,['space'],Y,,,,,Y,Y,F,20,
38,13,583,4,4,12,None,,Timed out,Y,['space'],Y,,,,,Y,Y,F,20,
38,14,584,8,8,12,['k'],['d'],Y,Y,None,N,,,,,Y,Y,F,20,
39,0,585,6,6,12,['d'],['d'],N,N,None,Y,,,,,Y,Y,F,20,
39,1,586,11,11,12,['k'],['d'],Y,Y,None,N,,,,,Y,Y,F,20,
39,2,587,6,6,12,['k'],['d'],Y,N,None,Y,,,,,Y,Y,F,20,
39,3,588,0,0,12,['d'],['d'],N,Y,None,N,,,,,Y,Y,F,20,
39,4,589,3,3,12,['d'],['k'],Y,N,None,Y,,,,,Y,Y,F,20,
39,5,590,0,0,12,['k'],['d'],Y,N,None,Y,,,,,Y,Y,F,20,
39,6,591,0,0,12,['k'],['d'],Y,N,None,Y,,,,,Y,Y,F,20,
39,7,592,7,7,12,None,,Timed out,Y,['d'],N,,,,,Y,Y,F,20,
39,8,593,9,9,12,None,,Timed out,Y,None,N,,,,,Y,Y,F,20,
39,9,594,0,0,12,['k'],['d'],Y,N,None,Y,,,,,Y,Y,F,20,
39,10,595,9,9,12,['k'],['d'],Y,Y,['space'],Y,,,,,Y,Y,F,20,
39,11,596,5,5,12,['k'],['d'],Y,N,None,Y,,,,,Y,Y,F,20,
39,12,597,10,10,12,['k'],['k'],N,N,None,Y,,,,,Y,Y,F,20,
39,13,598,9,9,12,['k'],['k'],N,N,None,Y,,,,,Y,Y,F,20,
39,14,599,9,9,12,['d'],['k'],Y,N,['space'],N,33,35,25,,Y,Y,F,20,
