.thisRepN,.thisTrialN,.thisN,.thisIndex,.thisTrial,Block Number,Key pressed,Category,Correct?,Int Match?,Int Response,Int Correct?,Line Accuracy,Interference Accuracy,Matching Interferences,New instruction shown?,Buttons switched?,Fast?,gender,age,
0,0,0,9,9,1,['k'],['k'],Y,,,,,,,,,,female,18,
0,1,1,9,9,1,['k'],['d'],N,,,,,,,,,,female,18,
0,2,2,6,6,1,['k'],['k'],Y,Y,None,N,,,,,,,female,18,
0,3,3,2,2,1,['d'],['d'],Y,N,None,Y,,,,,,,female,18,
0,4,4,6,6,1,['d'],['k'],N,N,['d'],N,,,,,,,female,18,
0,5,5,3,3,1,['k'],['d'],N,Y,['d'],N,,,,,,,female,18,
0,6,6,9,9,1,['d'],['d'],Y,N,None,Y,,,,,,,female,18,
0,7,7,5,5,1,['k'],['k'],Y,N,['space'],N,,,,,,,female,18,
0,8,8,2,2,1,['k'],['k'],Y,N,['d'],N,,,,,,,female,18,
0,9,9,8,8,1,['k'],['k'],Y,Y,['space'],Y,,,,,,,female,18,
0,10,10,7,7,1,['k'],['k'],Y,N,['space'],N,,,,,,,female,18,
1,0,11,10,10,1,['d'],['d'],Y,N,None,Y,,,,,,,female,18,
1,1,12,0,0,1,['k'],['k'],Y,Y,['space'],Y,,,,,,,female,18,
1,2,13,7,7,1,['d'],['d'],Y,N,None,Y,,,,,,,female,18,
1,3,14,10,10,1,['d'],['d'],Y,Y,['space'],Y,,,,,,,female,18,
1,4,15,2,2,1,['k'],['d'],N,Y,['space'],Y,,,,,,,female,18,
1,5,16,1,1,1,['d'],['d'],Y,Y,['space'],Y,,,,,,,female,18,
1,6,17,1,1,1,['d'],['k'],N,Y,['space'],Y,,,,,,,female,18,
1,7,18,2,2,1,['k'],['d'],N,N,['space'],N,,,,,,,female,18,
1,8,19,8,8,1,['d'],['d'],Y,N,['d'],N,,,,,,,female,18,
1,9,20,5,5,1,['k'],['k'],Y,Y,['space'],Y,,,,,,,female,18,
1,10,21,10,10,1,['d'],['k'],N,Y,['space'],Y,,,,,,,female,18,
2,0,22,10,10,1,['k'],['k'],Y,Y,['space'],Y,,,,,,,female,18,
2,1,23,1,1,1,['k'],['k'],Y,Y,['space'],Y,,,,,,,female,18,
2,2,24,2,2,1,['k'],['k'],Y,N,None,Y,,,,,,,female,18,
2,3,25,10,10,1,['k'],['k'],Y,Y,None,N,,,,,,,female,18,
2,4,26,1,1,1,['k'],['k'],Y,N,None,Y,,,,,,,female,18,
2,5,27,8,8,1,['k'],['k'],Y,N,None,Y,,,,,,,female,18,
2,6,28,7,7,1,['d'],['k'],N,N,None,Y,,,,,,,female,18,
2,7,29,4,4,1,['d'],['k'],N,Y,['space'],Y,,,,,,,female,18,
2,8,30,3,3,1,['d'],['d'],Y,Y,None,N,,,,,,,female,18,
2,9,31,0,0,1,['k'],['k'],Y,Y,None,N,,,,,,,female,18,
2,10,32,3,3,1,['d'],['k'],N,Y,['space'],Y,,,,,,,female,18,
3,0,33,8,8,1,['d'],['d'],Y,N,None,Y,,,,,,,female,18,
3,1,34,8,8,1,['d'],['d'],Y,N,None,Y,,,,,,,female,18,
3,2,35,8,8,1,['d'],['d'],Y,N,None,Y,,,,,,,female,18,
3,3,36,9,9,1,['k'],['k'],Y,Y,['space'],Y,,,,,,,female,18,
3,4,37,0,0,1,['d'],['k'],N,Y,['space'],Y,,,,,,,female,18,
3,5,38,6,6,1,['k'],['k'],Y,N,None,Y,,,,,,,female,18,
3,6,39,5,5,1,['k'],['k'],Y,N,None,Y,,,,,,,female,18,
3,7,40,1,1,1,['d'],['k'],N,N,None,Y,,,,,,,female,18,
3,8,41,4,4,1,['d'],['d'],Y,N,None,Y,,,,,,,female,18,
3,9,42,0,0,1,['d'],['d'],Y,N,None,Y,,,,,,,female,18,
3,10,43,0,0,1,['k'],['k'],Y,Y,['space'],Y,,,,,,,female,18,
4,0,44,0,0,1,['d'],['d'],Y,Y,None,N,,,,,,,female,18,
4,1,45,5,5,1,['k'],['k'],Y,Y,['space'],Y,,,,,,,female,18,
4,2,46,3,3,1,['d'],['d'],Y,Y,['k'],N,,,,,,,female,18,
4,3,47,3,3,1,['d'],['d'],Y,N,None,Y,,,,,,,female,18,
4,4,48,5,5,1,['d'],['k'],N,N,None,Y,,,,,,,female,18,
4,5,49,6,6,1,['k'],['k'],Y,N,None,Y,37,35,23,,,,female,18,
4,6,50,2,2,2,['d'],['d'],Y,,,,,,,,,,female,18,
4,7,51,8,8,2,['d'],['d'],Y,,,,,,,,,,female,18,
4,8,52,9,9,2,['k'],['k'],Y,N,None,Y,,,,,,,female,18,
4,9,53,4,4,2,['k'],['k'],Y,N,None,Y,,,,,,,female,18,
4,10,54,3,3,2,['d'],['d'],Y,Y,None,N,,,,,,,female,18,
5,0,55,1,1,2,['k'],['k'],Y,N,None,Y,,,,,,,female,18,
5,1,56,4,4,2,['k'],['k'],Y,Y,None,N,,,,,,,female,18,
5,2,57,1,1,2,['k'],['d'],N,N,None,Y,,,,,,,female,18,
5,3,58,7,7,2,['k'],['k'],Y,Y,None,N,,,,,,,female,18,
5,4,59,9,9,2,['d'],['d'],Y,N,['space'],N,,,,,,,female,18,
5,5,60,3,3,2,['d'],['d'],Y,Y,None,N,,,,,,,female,18,
5,6,61,6,6,2,['d'],['d'],Y,Y,['space'],Y,,,,,,,female,18,
5,7,62,3,3,2,['d'],['d'],Y,N,None,Y,,,,,,,female,18,
5,8,63,5,5,2,['d'],['d'],Y,Y,['space'],Y,,,,,,,female,18,
5,9,64,6,6,2,['k'],['d'],N,N,None,Y,,,,,,,female,18,
5,10,65,10,10,2,['d'],['d'],Y,N,['d'],N,,,,,,,female,18,
6,0,66,10,10,2,['k'],['k'],Y,Y,None,N,,,,,,,female,18,
6,1,67,4,4,2,['k'],['k'],Y,N,['d'],N,,,,,,,female,18,
6,2,68,0,0,2,['d'],['d'],Y,N,None,Y,,,,,,,female,18,
6,3,69,1,1,2,['k'],['d'],N,Y,None,N,,,,,,,female,18,
6,4,70,3,3,2,['k'],['k'],Y,N,['d'],N,,,,,,,female,18,
6,5,71,5,5,2,['d'],['d'],Y,N,None,Y,,,,,,,female,18,
6,6,72,2,2,2,['d'],['d'],Y,N,None,Y,,,,,,,female,18,
6,7,73,5,5,2,['k'],['k'],Y,N,None,Y,,,,,,,female,18,
6,8,74,0,0,2,['d'],['d'],Y,Y,None,N,,,,,,,female,18,
6,9,75,7,7,2,['d'],['k'],N,Y,None,N,,,,,,,female,18,
6,10,76,0,0,2,['k'],['k'],Y,N,None,Y,,,,,,,female,18,
7,0,77,10,10,2,['d'],['d'],Y,N,None,Y,,,,,,,female,18,
7,1,78,7,7,2,['k'],['k'],Y,N,None,Y,,,,,,,female,18,
7,2,79,0,0,2,['k'],['k'],Y,N,None,Y,,,,,,,female,18,
7,3,80,8,8,2,['k'],['k'],Y,Y,None,N,,,,,,,female,18,
7,4,81,5,5,2,['k'],['d'],N,N,None,Y,,,,,,,female,18,
7,5,82,7,7,2,['k'],['k'],Y,Y,None,N,,,,,,,female,18,
7,6,83,8,8,2,['d'],['d'],Y,Y,None,N,,,,,,,female,18,
7,7,84,5,5,2,['k'],['d'],N,Y,None,N,,,,,,,female,18,
7,8,85,6,6,2,['d'],['d'],Y,N,None,Y,,,,,,,female,18,
7,9,86,9,9,2,['k'],['k'],Y,N,None,Y,,,,,,,female,18,
7,10,87,6,6,2,['k'],['k'],Y,N,None,Y,,,,,,,female,18,
8,0,88,4,4,2,['k'],['d'],N,N,None,Y,,,,,,,female,18,
8,1,89,4,4,2,['k'],['k'],Y,Y,None,N,,,,,,,female,18,
8,2,90,2,2,2,['k'],['k'],Y,N,None,Y,,,,,,,female,18,
8,3,91,1,1,2,['d'],['k'],N,N,None,Y,,,,,,,female,18,
8,4,92,2,2,2,['d'],['d'],Y,Y,None,N,,,,,,,female,18,
8,5,93,1,1,2,['k'],['k'],Y,N,None,Y,,,,,,,female,18,
8,6,94,5,5,2,['d'],['d'],Y,N,None,Y,,,,,,,female,18,
8,7,95,4,4,2,['k'],['k'],Y,Y,None,N,,,,,,,female,18,
8,8,96,6,6,2,['d'],['d'],Y,Y,None,N,,,,,,,female,18,
8,9,97,4,4,2,['k'],['k'],Y,Y,None,N,,,,,,,female,18,
8,10,98,2,2,2,['d'],['d'],Y,Y,['space'],Y,,,,,,,female,18,
9,0,99,7,7,2,['k'],['d'],N,Y,None,N,41,26,21,,,,female,18,
9,1,100,1,1,3,['k'],['k'],Y,,,,,,,,,,female,18,
9,2,101,0,0,3,['k'],['k'],Y,,,,,,,,,,female,18,
9,3,102,10,10,3,['d'],['d'],Y,Y,['space'],Y,,,,,,,female,18,
9,4,103,0,0,3,['k'],['k'],Y,N,None,Y,,,,,,,female,18,
9,5,104,10,10,3,['k'],['k'],Y,N,None,Y,,,,,,,female,18,
9,6,105,10,10,3,['d'],['d'],Y,N,None,Y,,,,,,,female,18,
9,7,106,1,1,3,['d'],['d'],Y,Y,['space'],Y,,,,,,,female,18,
9,8,107,10,10,3,['d'],['d'],Y,Y,['space'],Y,,,,,,,female,18,
9,9,108,8,8,3,['k'],['k'],Y,N,None,Y,,,,,,,female,18,
9,10,109,10,10,3,['d'],['k'],N,N,None,Y,,,,,,,female,18,
10,0,110,9,9,3,['k'],['k'],Y,N,None,Y,,,,,,,female,18,
10,1,111,8,8,3,['k'],['k'],Y,N,None,Y,,,,,,,female,18,
10,2,112,10,10,3,['k'],['k'],Y,Y,['space'],Y,,,,,,,female,18,
10,3,113,10,10,3,['k'],['d'],N,Y,None,N,,,,,,,female,18,
10,4,114,8,8,3,['k'],['k'],Y,N,['space'],N,,,,,,,female,18,
10,5,115,4,4,3,['k'],['k'],Y,N,None,Y,,,,,,,female,18,
10,6,116,0,0,3,['k'],['k'],Y,N,None,Y,,,,,,,female,18,
10,7,117,4,4,3,['k'],['k'],Y,Y,['space'],Y,,,,,,,female,18,
10,8,118,7,7,3,['k'],['k'],Y,Y,['space'],Y,,,,,,,female,18,
10,9,119,10,10,3,['k'],['d'],N,Y,['space'],Y,,,,,,,female,18,
10,10,120,6,6,3,['k'],['k'],Y,N,None,Y,,,,,,,female,18,
11,0,121,9,9,3,['k'],['k'],Y,Y,['space'],Y,,,,,,,female,18,
11,1,122,0,0,3,['d'],['d'],Y,Y,['space'],Y,,,,,,,female,18,
11,2,123,2,2,3,['k'],['k'],Y,N,None,Y,,,,,,,female,18,
11,3,124,9,9,3,['d'],['d'],Y,Y,['space'],Y,,,,,,,female,18,
11,4,125,6,6,3,['d'],['d'],Y,N,None,Y,,,,,,,female,18,
11,5,126,1,1,3,['k'],['d'],N,N,None,Y,,,,,,,female,18,
11,6,127,5,5,3,['d'],['d'],Y,N,None,Y,,,,,,,female,18,
11,7,128,2,2,3,['k'],['k'],Y,Y,['space'],Y,,,,,,,female,18,
11,8,129,7,7,3,['d'],['d'],Y,Y,['space'],Y,,,,,,,female,18,
11,9,130,2,2,3,['k'],['d'],N,Y,['space'],Y,,,,,,,female,18,
11,10,131,0,0,3,['d'],['d'],Y,Y,['space'],Y,,,,,,,female,18,
12,0,132,4,4,3,['k'],['d'],N,N,None,Y,,,,,,,female,18,
12,1,133,6,6,3,['d'],['d'],Y,N,None,Y,,,,,,,female,18,
12,2,134,5,5,3,['k'],['k'],Y,Y,['space'],Y,,,,,,,female,18,
12,3,135,1,1,3,['k'],['k'],Y,Y,['space'],Y,,,,,,,female,18,
12,4,136,1,1,3,['d'],['k'],N,Y,['space'],Y,,,,,,,female,18,
12,5,137,9,9,3,['k'],['k'],Y,N,None,Y,,,,,,,female,18,
12,6,138,8,8,3,['k'],['k'],Y,Y,None,N,,,,,,,female,18,
12,7,139,10,10,3,['k'],['k'],Y,Y,['space'],Y,,,,,,,female,18,
12,8,140,5,5,3,['k'],['k'],Y,N,None,Y,,,,,,,female,18,
12,9,141,7,7,3,['d'],['d'],Y,N,None,Y,,,,,,,female,18,
12,10,142,9,9,3,['k'],['d'],N,Y,['space'],Y,,,,,,,female,18,
13,0,143,5,5,3,['k'],['d'],N,N,['space'],N,,,,,,,female,18,
13,1,144,2,2,3,['d'],['k'],N,N,None,Y,,,,,,,female,18,
13,2,145,9,9,3,['d'],['d'],Y,N,None,Y,,,,,,,female,18,
13,3,146,3,3,3,['k'],['k'],Y,N,['space'],N,,,,,,,female,18,
13,4,147,8,8,3,['d'],['d'],Y,N,None,Y,,,,,,,female,18,
13,5,148,2,2,3,['k'],['k'],Y,Y,['space'],Y,,,,,,,female,18,
13,6,149,1,1,3,['k'],['k'],Y,N,None,Y,40,43,22,,,,female,18,
13,7,150,6,6,4,['k'],['k'],Y,,,,,,,,,,female,18,
13,8,151,8,8,4,['d'],['k'],N,,,,,,,,,,female,18,
13,9,152,8,8,4,['k'],['k'],Y,Y,['space'],Y,,,,,,,female,18,
13,10,153,0,0,4,['k'],['k'],Y,Y,['space'],Y,,,,,,,female,18,
14,0,154,7,7,4,['k'],['k'],Y,Y,['space'],Y,,,,,,,female,18,
14,1,155,3,3,4,['d'],['d'],Y,Y,None,N,,,,,,,female,18,
14,2,156,10,10,4,['d'],['d'],Y,N,None,Y,,,,,,,female,18,
14,3,157,0,0,4,['d'],['d'],Y,N,None,Y,,,,,,,female,18,
14,4,158,2,2,4,['d'],['d'],Y,Y,['space'],Y,,,,,,,female,18,
14,5,159,6,6,4,['k'],['d'],N,Y,['space'],Y,,,,,,,female,18,
14,6,160,2,2,4,['k'],['k'],Y,Y,['space'],Y,,,,,,,female,18,
14,7,161,7,7,4,['k'],['k'],Y,Y,['d'],N,,,,,,,female,18,
14,8,162,3,3,4,['k'],['k'],Y,N,None,Y,,,,,,,female,18,
14,9,163,8,8,4,['d'],['d'],Y,N,None,Y,,,,,,,female,18,
14,10,164,6,6,4,['k'],['d'],N,N,None,Y,,,,,,,female,18,
15,0,165,9,9,4,['k'],['k'],Y,N,None,Y,,,,,,,female,18,
15,1,166,3,3,4,['d'],['d'],Y,Y,['space'],Y,,,,,,,female,18,
15,2,167,10,10,4,['d'],['d'],Y,Y,['space'],Y,,,,,,,female,18,
15,3,168,4,4,4,['k'],['k'],Y,Y,['space'],Y,,,,,,,female,18,
15,4,169,7,7,4,['k'],['k'],Y,N,None,Y,,,,,,,female,18,
15,5,170,7,7,4,['d'],['d'],Y,N,None,Y,,,,,,,female,18,
15,6,171,6,6,4,['k'],['d'],N,N,None,Y,,,,,,,female,18,
15,7,172,9,9,4,['d'],['d'],Y,Y,['space'],Y,,,,,,,female,18,
15,8,173,9,9,4,['d'],['d'],Y,Y,['space'],Y,,,,,,,female,18,
15,9,174,4,4,4,['d'],['d'],Y,N,None,Y,,,,,,,female,18,
15,10,175,4,4,4,['d'],['d'],Y,Y,['space'],Y,,,,,,,female,18,
16,0,176,0,0,4,['d'],['d'],Y,N,None,Y,,,,,,,female,18,
16,1,177,4,4,4,['d'],['d'],Y,N,None,Y,,,,,,,female,18,
16,2,178,5,5,4,['k'],['k'],Y,N,None,Y,,,,,,,female,18,
16,3,179,7,7,4,['k'],['k'],Y,Y,['space'],Y,,,,,,,female,18,
16,4,180,9,9,4,['k'],['d'],N,Y,['space'],Y,,,,,,,female,18,
16,5,181,5,5,4,['d'],['d'],Y,N,None,Y,,,,,,,female,18,
16,6,182,9,9,4,['d'],['d'],Y,Y,['space'],Y,,,,,,,female,18,
16,7,183,5,5,4,['d'],['d'],Y,Y,['space'],Y,,,,,,,female,18,
16,8,184,4,4,4,['d'],['k'],N,N,None,Y,,,,,,,female,18,
16,9,185,2,2,4,['k'],['k'],Y,N,None,Y,,,,,,,female,18,
16,10,186,0,0,4,['d'],['d'],Y,N,None,Y,,,,,,,female,18,
17,0,187,6,6,4,['k'],['d'],N,N,None,Y,,,,,,,female,18,
17,1,188,5,5,4,['d'],['d'],Y,N,None,Y,,,,,,,female,18,
17,2,189,5,5,4,['k'],['k'],Y,Y,['space'],Y,,,,,,,female,18,
17,3,190,10,10,4,['d'],['d'],Y,Y,['space'],Y,,,,,,,female,18,
17,4,191,2,2,4,['d'],['d'],Y,N,None,Y,,,,,,,female,18,
17,5,192,1,1,4,['d'],['d'],Y,N,None,Y,,,,,,,female,18,
17,6,193,4,4,4,['d'],['k'],N,N,None,Y,,,,,,,female,18,
17,7,194,2,2,4,['d'],['d'],Y,N,None,Y,,,,,,,female,18,
17,8,195,10,10,4,['k'],['k'],Y,Y,['space'],Y,,,,,,,female,18,
17,9,196,8,8,4,['d'],['d'],Y,N,None,Y,,,,,,,female,18,
17,10,197,7,7,4,['d'],['d'],Y,Y,['space'],Y,,,,,,,female,18,
18,0,198,1,1,4,['k'],['k'],Y,N,None,Y,,,,,,,female,18,
18,1,199,4,4,4,['k'],['k'],Y,N,None,Y,42,46,22,,,,female,18,
18,2,200,5,5,5,['k'],['d'],N,,,,,,,,,,female,18,
18,3,201,4,4,5,['k'],['k'],Y,,,,,,,,,,female,18,
18,4,202,2,2,5,['k'],['k'],Y,Y,['space'],Y,,,,,,,female,18,
18,5,203,5,5,5,['k'],['d'],N,Y,['space'],Y,,,,,,,female,18,
18,6,204,1,1,5,['k'],['k'],Y,Y,['space'],Y,,,,,,,female,18,
18,7,205,3,3,5,['k'],['d'],N,Y,['d'],N,,,,,,,female,18,
18,8,206,5,5,5,['k'],['d'],N,Y,['space'],Y,,,,,,,female,18,
18,9,207,9,9,5,['k'],['k'],Y,N,None,Y,,,,,,,female,18,
18,10,208,7,7,5,['k'],['k'],Y,N,None,Y,,,,,,,female,18,
19,0,209,6,6,5,['k'],['k'],Y,N,None,Y,,,,,,,female,18,
19,1,210,9,9,5,['k'],['d'],N,Y,['space'],Y,,,,,,,female,18,
19,2,211,8,8,5,['d'],['d'],Y,N,None,Y,,,,,,,female,18,
19,3,212,7,7,5,['k'],['k'],Y,N,None,Y,,,,,,,female,18,
19,4,213,1,1,5,['k'],['k'],Y,Y,['space'],Y,,,,,,,female,18,
19,5,214,8,8,5,['k'],['k'],Y,Y,['k'],N,,,,,,,female,18,
19,6,215,5,5,5,['k'],['k'],Y,N,None,Y,,,,,,,female,18,
19,7,216,10,10,5,['k'],['k'],Y,Y,['space'],Y,,,,,,,female,18,
19,8,217,5,5,5,['k'],['k'],Y,N,None,Y,,,,,,,female,18,
19,9,218,9,9,5,['k'],['k'],Y,N,None,Y,,,,,,,female,18,
19,10,219,8,8,5,['d'],['d'],Y,N,None,Y,,,,,,,female,18,
20,0,220,7,7,5,['d'],['d'],Y,Y,['space'],Y,,,,,,,female,18,
20,1,221,4,4,5,['k'],['d'],N,Y,['space'],Y,,,,,,,female,18,
20,2,222,4,4,5,['k'],['k'],Y,Y,['space'],Y,,,,,,,female,18,
20,3,223,6,6,5,['d'],['d'],Y,Y,None,N,,,,,,,female,18,
20,4,224,10,10,5,['k'],['k'],Y,N,None,Y,,,,,,,female,18,
20,5,225,3,3,5,['d'],['d'],Y,N,None,Y,,,,,,,female,18,
20,6,226,7,7,5,['k'],['d'],N,N,None,Y,,,,,,,female,18,
20,7,227,10,10,5,['d'],['d'],Y,Y,['space'],Y,,,,,,,female,18,
20,8,228,8,8,5,['d'],['d'],Y,Y,['space'],Y,,,,,,,female,18,
20,9,229,4,4,5,['k'],['k'],Y,Y,['space'],Y,,,,,,,female,18,
20,10,230,0,0,5,['k'],['k'],Y,N,None,Y,,,,,,,female,18,
21,0,231,3,3,5,['d'],['d'],Y,Y,None,N,,,,,,,female,18,
21,1,232,10,10,5,['d'],['d'],Y,Y,['space'],Y,,,,,,,female,18,
21,2,233,6,6,5,['d'],['d'],Y,N,None,Y,,,,,,,female,18,
21,3,234,1,1,5,['k'],['k'],Y,Y,['space'],Y,,,,,,,female,18,
21,4,235,1,1,5,['k'],['k'],Y,Y,['space'],Y,,,,,,,female,18,
21,5,236,4,4,5,['d'],['d'],Y,Y,['space'],Y,,,,,,,female,18,
21,6,237,3,3,5,['k'],['k'],Y,N,None,Y,,,,,,,female,18,
21,7,238,6,6,5,['d'],['d'],Y,Y,['space'],Y,,,,,,,female,18,
21,8,239,5,5,5,['k'],['k'],Y,N,None,Y,,,,,,,female,18,
21,9,240,6,6,5,['d'],['d'],Y,Y,['space'],Y,,,,,,,female,18,
21,10,241,10,10,5,['d'],['d'],Y,Y,['space'],Y,,,,,,,female,18,
22,0,242,10,10,5,['k'],['k'],Y,N,None,Y,,,,,,,female,18,
22,1,243,0,0,5,['d'],['d'],Y,Y,['space'],Y,,,,,,,female,18,
22,2,244,9,9,5,['d'],['k'],N,N,None,Y,,,,,,,female,18,
22,3,245,4,4,5,['k'],['k'],Y,N,None,Y,,,,,,,female,18,
22,4,246,5,5,5,['d'],['d'],Y,N,None,Y,,,,,,,female,18,
22,5,247,8,8,5,['k'],['d'],N,N,None,Y,,,,,,,female,18,
22,6,248,5,5,5,['k'],['k'],Y,N,None,Y,,,,,,,female,18,
22,7,249,7,7,5,['k'],['d'],N,N,None,Y,40,44,25,,,,female,18,
22,8,250,0,0,6,['k'],['k'],Y,,,,,,,,,,female,18,
22,9,251,5,5,6,['d'],['d'],Y,,,,,,,,,,female,18,
22,10,252,8,8,6,['k'],['k'],Y,N,None,Y,,,,,,,female,18,
23,0,253,3,3,6,['k'],['d'],N,N,None,Y,,,,,,,female,18,
23,1,254,9,9,6,['k'],['k'],Y,N,None,Y,,,,,,,female,18,
23,2,255,4,4,6,['k'],['k'],Y,Y,['space'],Y,,,,,,,female,18,
23,3,256,6,6,6,['k'],['k'],Y,N,None,Y,,,,,,,female,18,
23,4,257,8,8,6,['k'],['k'],Y,N,None,Y,,,,,,,female,18,
23,5,258,10,10,6,['k'],['k'],Y,N,None,Y,,,,,,,female,18,
23,6,259,5,5,6,['k'],['k'],Y,Y,['space'],Y,,,,,,,female,18,
23,7,260,9,9,6,['k'],['d'],N,Y,['d'],N,,,,,,,female,18,
23,8,261,9,9,6,['k'],['k'],Y,N,None,Y,,,,,,,female,18,
23,9,262,2,2,6,['d'],['k'],N,N,None,Y,,,,,,,female,18,
23,10,263,9,9,6,['k'],['k'],Y,N,None,Y,,,,,,,female,18,
24,0,264,2,2,6,['k'],['d'],N,N,['space'],N,,,,,,,female,18,
24,1,265,6,6,6,['k'],['d'],N,Y,['space'],Y,,,,,,,female,18,
24,2,266,3,3,6,['k'],['k'],Y,N,None,Y,,,,,,,female,18,
24,3,267,0,0,6,['k'],['k'],Y,Y,['space'],Y,,,,,,,female,18,
24,4,268,4,4,6,['k'],['k'],Y,Y,['space'],Y,,,,,,,female,18,
24,5,269,0,0,6,['k'],['k'],Y,N,None,Y,,,,,,,female,18,
24,6,270,3,3,6,['k'],['k'],Y,Y,None,N,,,,,,,female,18,
24,7,271,1,1,6,['d'],['d'],Y,N,None,Y,,,,,,,female,18,
24,8,272,9,9,6,['k'],['k'],Y,Y,['space'],Y,,,,,,,female,18,
24,9,273,9,9,6,['k'],['k'],Y,Y,['space'],Y,,,,,,,female,18,
24,10,274,9,9,6,['k'],['k'],Y,N,None,Y,,,,,,,female,18,
25,0,275,6,6,6,['d'],['d'],Y,N,None,Y,,,,,,,female,18,
25,1,276,5,5,6,['d'],['d'],Y,N,None,Y,,,,,,,female,18,
25,2,277,2,2,6,['d'],['d'],Y,Y,None,N,,,,,,,female,18,
25,3,278,6,6,6,['k'],['d'],N,Y,['space'],Y,,,,,,,female,18,
25,4,279,3,3,6,['d'],['d'],Y,Y,['space'],Y,,,,,,,female,18,
25,5,280,6,6,6,['k'],['k'],Y,Y,['space'],Y,,,,,,,female,18,
25,6,281,7,7,6,['k'],['k'],Y,Y,['space'],Y,,,,,,,female,18,
25,7,282,1,1,6,['d'],['d'],Y,Y,['space'],Y,,,,,,,female,18,
25,8,283,7,7,6,['d'],['d'],Y,N,None,Y,,,,,,,female,18,
25,9,284,6,6,6,['k'],['k'],Y,Y,['space'],Y,,,,,,,female,18,
25,10,285,10,10,6,['d'],['d'],Y,N,None,Y,,,,,,,female,18,
26,0,286,9,9,6,['k'],['d'],N,N,None,Y,,,,,,,female,18,
26,1,287,10,10,6,['k'],['k'],Y,N,None,Y,,,,,,,female,18,
26,2,288,7,7,6,['k'],['d'],N,Y,['space'],Y,,,,,,,female,18,
26,3,289,5,5,6,['k'],['k'],Y,Y,['d'],N,,,,,,,female,18,
26,4,290,6,6,6,['k'],['k'],Y,Y,None,N,,,,,,,female,18,
26,5,291,1,1,6,['d'],['d'],Y,N,None,Y,,,,,,,female,18,
26,6,292,4,4,6,['d'],['d'],Y,Y,['space'],Y,,,,,,,female,18,
26,7,293,7,7,6,['d'],['d'],Y,Y,['space'],Y,,,,,,,female,18,
26,8,294,10,10,6,['k'],['d'],N,Y,['d'],N,,,,,,,female,18,
26,9,295,5,5,6,['k'],['d'],N,N,None,Y,,,,,,,female,18,
26,10,296,5,5,6,['d'],['d'],Y,N,None,Y,,,,,,,female,18,
27,0,297,4,4,6,['k'],['d'],N,N,None,Y,,,,,,,female,18,
27,1,298,3,3,6,['d'],['d'],Y,Y,['space'],Y,,,,,,,female,18,
27,2,299,4,4,6,['d'],['d'],Y,Y,['space'],Y,39,41,24,,,,female,18,
27,3,300,2,2,7,['k'],['k'],Y,,,,,,,,,,female,18,
27,4,301,3,3,7,['k'],['k'],Y,,,,,,,,,,female,18,
27,5,302,5,5,7,['k'],['d'],N,N,None,Y,,,,,,,female,18,
27,6,303,6,6,7,['k'],['k'],Y,N,None,Y,,,,,,,female,18,
27,7,304,9,9,7,['d'],['d'],Y,Y,['space'],Y,,,,,,,female,18,
27,8,305,3,3,7,['k'],['k'],Y,Y,['d'],N,,,,,,,female,18,
27,9,306,0,0,7,['d'],['d'],Y,N,None,Y,,,,,,,female,18,
27,10,307,4,4,7,['d'],['d'],Y,N,None,Y,,,,,,,female,18,
28,0,308,10,10,7,['d'],['d'],Y,Y,['space'],Y,,,,,,,female,18,
28,1,309,10,10,7,['k'],['k'],Y,N,None,Y,,,,,,,female,18,
28,2,310,7,7,7,['d'],['d'],Y,N,None,Y,,,,,,,female,18,
28,3,311,0,0,7,['d'],['d'],Y,Y,['space'],Y,,,,,,,female,18,
28,4,312,8,8,7,['d'],['d'],Y,N,None,Y,,,,,,,female,18,
28,5,313,3,3,7,['d'],['d'],Y,N,None,Y,,,,,,,female,18,
28,6,314,0,0,7,['d'],['k'],N,N,None,Y,,,,,,,female,18,
28,7,315,0,0,7,['d'],['k'],N,Y,['space'],Y,,,,,,,female,18,
28,8,316,8,8,7,['d'],['d'],Y,N,None,Y,,,,,,,female,18,
28,9,317,2,2,7,['d'],['d'],Y,N,None,Y,,,,,,,female,18,
28,10,318,10,10,7,['k'],['k'],Y,Y,['space'],Y,,,,,,,female,18,
29,0,319,3,3,7,['d'],['d'],Y,N,None,Y,,,,,,,female,18,
29,1,320,6,6,7,['k'],['k'],Y,N,None,Y,,,,,,,female,18,
29,2,321,1,1,7,['d'],['k'],N,N,None,Y,,,,,,,female,18,
29,3,322,3,3,7,['d'],['d'],Y,Y,['space'],Y,,,,,,,female,18,
29,4,323,0,0,7,['k'],['k'],Y,N,None,Y,,,,,,,female,18,
29,5,324,9,9,7,['d'],['k'],N,Y,['space'],Y,,,,,,,female,18,
29,6,325,1,1,7,['k'],['k'],Y,N,None,Y,,,,,,,female,18,
29,7,326,3,3,7,['d'],['d'],Y,Y,['space'],Y,,,,,,,female,18,
29,8,327,3,3,7,['d'],['k'],N,Y,['space'],Y,,,,,,,female,18,
29,9,328,8,8,7,['d'],['d'],Y,Y,['space'],Y,,,,,,,female,18,
29,10,329,5,5,7,['k'],['k'],Y,Y,None,N,,,,,,,female,18,
30,0,330,8,8,7,['k'],['k'],Y,N,None,Y,,,,,,,female,18,
30,1,331,2,2,7,['k'],['k'],Y,Y,['space'],Y,,,,,,,female,18,
30,2,332,10,10,7,['k'],['k'],Y,N,None,Y,,,,,,,female,18,
30,3,333,0,0,7,['k'],['k'],Y,Y,['space'],Y,,,,,,,female,18,
30,4,334,8,8,7,['k'],['d'],N,Y,['space'],Y,,,,,,,female,18,
30,5,335,1,1,7,['d'],['k'],N,Y,['space'],Y,,,,,,,female,18,
30,6,336,7,7,7,['d'],['d'],Y,N,None,Y,,,,,,,female,18,
30,7,337,3,3,7,['k'],['k'],Y,Y,['space'],Y,,,,,,,female,18,
30,8,338,8,8,7,['d'],['d'],Y,Y,['space'],Y,,,,,,,female,18,
30,9,339,1,1,7,['d'],['d'],Y,N,None,Y,,,,,,,female,18,
30,10,340,6,6,7,['d'],['d'],Y,N,None,Y,,,,,,,female,18,
31,0,341,9,9,7,['d'],['d'],Y,N,None,Y,,,,,,,female,18,
31,1,342,7,7,7,['k'],['k'],Y,N,None,Y,,,,,,,female,18,
31,2,343,1,1,7,['d'],['d'],Y,Y,['space'],Y,,,,,,,female,18,
31,3,344,2,2,7,['d'],['d'],Y,N,None,Y,,,,,,,female,18,
31,4,345,7,7,7,['d'],['d'],Y,Y,['space'],Y,,,,,,,female,18,
31,5,346,0,0,7,['k'],['k'],Y,N,None,Y,,,,,,,female,18,
31,6,347,9,9,7,['k'],['k'],Y,N,None,Y,,,,,,,female,18,
31,7,348,5,5,7,['d'],['d'],Y,Y,['space'],Y,,,,,,,female,18,
31,8,349,0,0,7,['k'],['k'],Y,N,None,Y,42,46,21,,,,female,18,
31,9,350,2,2,8,['d'],['d'],Y,,,,,,,,,,female,18,
31,10,351,10,10,8,['d'],['d'],Y,,,,,,,,,,female,18,
32,0,352,7,7,8,['k'],['k'],Y,Y,['space'],Y,,,,,,,female,18,
32,1,353,1,1,8,['d'],['d'],Y,Y,['space'],Y,,,,,,,female,18,
32,2,354,7,7,8,['k'],['d'],N,Y,['space'],Y,,,,,,,female,18,
32,3,355,3,3,8,['d'],['d'],Y,Y,['space'],Y,,,,,,,female,18,
32,4,356,2,2,8,['k'],['d'],N,N,['space'],N,,,,,,,female,18,
32,5,357,4,4,8,['k'],['k'],Y,N,None,Y,,,,,,,female,18,
32,6,358,0,0,8,['d'],['d'],Y,N,None,Y,,,,,,,female,18,
32,7,359,2,2,8,['k'],['d'],N,Y,['space'],Y,,,,,,,female,18,
32,8,360,9,9,8,['d'],['k'],N,Y,['space'],Y,,,,,,,female,18,
32,9,361,1,1,8,['k'],['k'],Y,Y,['space'],Y,,,,,,,female,18,
32,10,362,10,10,8,['d'],['d'],Y,Y,['space'],Y,,,,,,,female,18,
33,0,363,7,7,8,['k'],['d'],N,N,None,Y,,,,,,,female,18,
33,1,364,10,10,8,['k'],['k'],Y,N,None,Y,,,,,,,female,18,
33,2,365,2,2,8,['k'],['d'],N,N,None,Y,,,,,,,female,18,
33,3,366,5,5,8,['d'],['d'],Y,N,None,Y,,,,,,,female,18,
33,4,367,2,2,8,['d'],['k'],N,N,None,Y,,,,,,,female,18,
33,5,368,8,8,8,['d'],['d'],Y,Y,['space'],Y,,,,,,,female,18,
33,6,369,0,0,8,['d'],['d'],Y,Y,['space'],Y,,,,,,,female,18,
33,7,370,6,6,8,['d'],['d'],Y,N,None,Y,,,,,,,female,18,
33,8,371,9,9,8,['k'],['k'],Y,Y,None,N,,,,,,,female,18,
33,9,372,2,2,8,['d'],['k'],N,N,None,Y,,,,,,,female,18,
33,10,373,4,4,8,['k'],['k'],Y,Y,['space'],Y,,,,,,,female,18,
34,0,374,4,4,8,['d'],['d'],Y,N,None,Y,,,,,,,female,18,
34,1,375,0,0,8,['k'],['k'],Y,N,None,Y,,,,,,,female,18,
34,2,376,8,8,8,['k'],['k'],Y,Y,['space'],Y,,,,,,,female,18,
34,3,377,6,6,8,['k'],['k'],Y,Y,['space'],Y,,,,,,,female,18,
34,4,378,6,6,8,['d'],['d'],Y,N,None,Y,,,,,,,female,18,
34,5,379,1,1,8,['k'],['k'],Y,N,None,Y,,,,,,,female,18,
34,6,380,9,9,8,['k'],['k'],Y,N,None,Y,,,,,,,female,18,
34,7,381,5,5,8,['k'],['k'],Y,N,None,Y,,,,,,,female,18,
34,8,382,1,1,8,['k'],['k'],Y,N,None,Y,,,,,,,female,18,
34,9,383,8,8,8,['d'],['d'],Y,N,None,Y,,,,,,,female,18,
34,10,384,3,3,8,['k'],['k'],Y,Y,['space'],Y,,,,,,,female,18,
35,0,385,2,2,8,['k'],['k'],Y,N,None,Y,,,,,,,female,18,
35,1,386,8,8,8,['d'],['d'],Y,Y,None,N,,,,,,,female,18,
35,2,387,4,4,8,['d'],['d'],Y,N,None,Y,,,,,,,female,18,
35,3,388,9,9,8,['d'],['d'],Y,Y,['space'],Y,,,,,,,female,18,
35,4,389,6,6,8,['k'],['k'],Y,Y,['space'],Y,,,,,,,female,18,
35,5,390,10,10,8,['k'],['k'],Y,N,None,Y,,,,,,,female,18,
35,6,391,7,7,8,['d'],['d'],Y,N,None,Y,,,,,,,female,18,
35,7,392,0,0,8,['k'],['k'],Y,N,None,Y,,,,,,,female,18,
35,8,393,9,9,8,['d'],['d'],Y,N,None,Y,,,,,,,female,18,
35,9,394,2,2,8,['k'],['d'],N,N,None,Y,,,,,,,female,18,
35,10,395,1,1,8,['k'],['d'],N,N,None,Y,,,,,,,female,18,
36,0,396,3,3,8,['k'],['k'],Y,N,None,Y,,,,,,,female,18,
36,1,397,0,0,8,['k'],['k'],Y,N,None,Y,,,,,,,female,18,
36,2,398,4,4,8,['k'],['k'],Y,Y,['space'],Y,,,,,,,female,18,
36,3,399,8,8,8,['k'],['k'],Y,N,None,Y,40,45,19,,,,female,18,
36,4,400,1,1,9,['k'],['k'],Y,,,,,,,,,,female,18,
36,5,401,7,7,9,['k'],['d'],N,,,,,,,,,,female,18,
36,6,402,9,9,9,['d'],['d'],Y,Y,['space'],Y,,,,,,,female,18,
36,7,403,1,1,9,['k'],['k'],Y,N,None,Y,,,,,,,female,18,
36,8,404,7,7,9,['k'],['k'],Y,Y,['k'],N,,,,,,,female,18,
36,9,405,8,8,9,['k'],['k'],Y,Y,['space'],Y,,,,,,,female,18,
36,10,406,6,6,9,['k'],['k'],Y,N,None,Y,,,,,,,female,18,
37,0,407,0,0,9,['d'],['d'],Y,N,None,Y,,,,,,,female,18,
37,1,408,2,2,9,['d'],['d'],Y,N,None,Y,,,,,,,female,18,
37,2,409,2,2,9,['k'],['k'],Y,N,None,Y,,,,,,,female,18,
37,3,410,6,6,9,['k'],['k'],Y,N,None,Y,,,,,,,female,18,
37,4,411,5,5,9,['k'],['k'],Y,Y,['space'],Y,,,,,,,female,18,
37,5,412,7,7,9,['k'],['k'],Y,N,None,Y,,,,,,,female,18,
37,6,413,7,7,9,['d'],['d'],Y,Y,['space'],Y,,,,,,,female,18,
37,7,414,8,8,9,['d'],['d'],Y,Y,['space'],Y,,,,,,,female,18,
37,8,415,7,7,9,['k'],['k'],Y,N,None,Y,,,,,,,female,18,
37,9,416,10,10,9,['k'],['k'],Y,Y,['space'],Y,,,,,,,female,18,
37,10,417,5,5,9,['k'],['d'],N,Y,['space'],Y,,,,,,,female,18,
38,0,418,8,8,9,['d'],['d'],Y,Y,['space'],Y,,,,,,,female,18,
38,1,419,0,0,9,['k'],['k'],Y,Y,['space'],Y,,,,,,,female,18,
38,2,420,6,6,9,['d'],['d'],Y,Y,['space'],Y,,,,,,,female,18,
38,3,421,0,0,9,['d'],['k'],N,N,None,Y,,,,,,,female,18,
38,4,422,4,4,9,['k'],['k'],Y,N,None,Y,,,,,,,female,18,
38,5,423,7,7,9,['k'],['d'],N,N,None,Y,,,,,,,female,18,
38,6,424,1,1,9,['d'],['d'],Y,Y,['space'],Y,,,,,,,female,18,
38,7,425,1,1,9,['k'],['k'],Y,N,None,Y,,,,,,,female,18,
38,8,426,0,0,9,['k'],['k'],Y,N,None,Y,,,,,,,female,18,
38,9,427,9,9,9,['k'],['k'],Y,N,None,Y,,,,,,,female,18,
38,10,428,8,8,9,['d'],['k'],N,Y,['space'],Y,,,,,,,female,18,
39,0,429,1,1,9,['k'],['k'],Y,N,['k'],N,,,,,,,female,18,
39,1,430,1,1,9,['k'],['k'],Y,N,['space'],N,,,,,,,female,18,
39,2,431,5,5,9,['d'],['d'],Y,N,None,Y,,,,,,,female,18,
39,3,432,6,6,9,['d'],['d'],Y,N,None,Y,,,,,,,female,18,
39,4,433,10,10,9,['k'],['k'],Y,N,None,Y,,,,,,,female,18,
39,5,434,4,4,9,['k'],['d'],N,Y,['space'],Y,,,,,,,female,18,
39,6,435,4,4,9,['k'],['k'],Y,N,['space'],N,,,,,,,female,18,
39,7,436,6,6,9,['k'],['d'],N,N,None,Y,,,,,,,female,18,
39,8,437,0,0,9,['d'],['d'],Y,N,None,Y,,,,,,,female,18,
39,9,438,10,10,9,['k'],['d'],N,N,None,Y,,,,,,,female,18,
39,10,439,10,10,9,['d'],['d'],Y,Y,['space'],Y,,,,,,,female,18,
40,0,440,7,7,9,['k'],['k'],Y,N,None,Y,,,,,,,female,18,
40,1,441,2,2,9,['k'],['k'],Y,Y,['space'],Y,,,,,,,female,18,
40,2,442,5,5,9,['k'],['d'],N,Y,['space'],Y,,,,,,,female,18,
40,3,443,2,2,9,['d'],['k'],N,Y,['space'],Y,,,,,,,female,18,
40,4,444,4,4,9,['k'],['k'],Y,Y,['space'],Y,,,,,,,female,18,
40,5,445,6,6,9,['d'],['d'],Y,Y,['k'],N,,,,,,,female,18,
40,6,446,0,0,9,['d'],['d'],Y,N,None,Y,,,,,,,female,18,
40,7,447,8,8,9,['d'],['d'],Y,Y,['d'],N,,,,,,,female,18,
40,8,448,3,3,9,['k'],['k'],Y,Y,['space'],Y,,,,,,,female,18,
40,9,449,7,7,9,['d'],['d'],Y,N,['space'],N,40,41,22,,,,female,18,
40,10,450,7,7,10,['d'],['d'],Y,,,,,,,,,,female,18,
41,0,451,9,9,10,['k'],['k'],Y,,,,,,,,,,female,18,
41,1,452,1,1,10,['d'],['d'],Y,Y,['space'],Y,,,,,,,female,18,
41,2,453,3,3,10,['d'],['d'],Y,Y,['space'],Y,,,,,,,female,18,
41,3,454,3,3,10,['d'],['d'],Y,N,['space'],N,,,,,,,female,18,
41,4,455,1,1,10,['d'],['d'],Y,Y,['space'],Y,,,,,,,female,18,
41,5,456,1,1,10,['d'],['d'],Y,N,None,Y,,,,,,,female,18,
41,6,457,5,5,10,['d'],['d'],Y,N,None,Y,,,,,,,female,18,
41,7,458,8,8,10,['k'],['k'],Y,N,None,Y,,,,,,,female,18,
41,8,459,9,9,10,['k'],['d'],N,N,None,Y,,,,,,,female,18,
41,9,460,9,9,10,['k'],['k'],Y,N,['space'],N,,,,,,,female,18,
41,10,461,1,1,10,['d'],['d'],Y,Y,None,N,,,,,,,female,18,
42,0,462,3,3,10,['k'],['k'],Y,N,None,Y,,,,,,,female,18,
42,1,463,10,10,10,['d'],['d'],Y,Y,['space'],Y,,,,,,,female,18,
42,2,464,4,4,10,['k'],['k'],Y,N,None,Y,,,,,,,female,18,
42,3,465,1,1,10,['k'],['d'],N,N,None,Y,,,,,,,female,18,
42,4,466,0,0,10,['k'],['k'],Y,Y,['space'],Y,,,,,,,female,18,
42,5,467,3,3,10,['d'],['d'],Y,N,None,Y,,,,,,,female,18,
42,6,468,2,2,10,['k'],['k'],Y,N,None,Y,,,,,,,female,18,
42,7,469,2,2,10,['k'],['k'],Y,Y,['space'],Y,,,,,,,female,18,
42,8,470,4,4,10,['d'],['d'],Y,Y,['space'],Y,,,,,,,female,18,
42,9,471,6,6,10,['k'],['k'],Y,Y,['space'],Y,,,,,,,female,18,
42,10,472,7,7,10,['d'],['d'],Y,Y,['space'],Y,,,,,,,female,18,
43,0,473,10,10,10,['d'],['d'],Y,Y,None,N,,,,,,,female,18,
43,1,474,4,4,10,['k'],['d'],N,Y,['space'],Y,,,,,,,female,18,
43,2,475,3,3,10,['k'],['k'],Y,Y,['space'],Y,,,,,,,female,18,
43,3,476,0,0,10,['k'],['d'],N,N,None,Y,,,,,,,female,18,
43,4,477,8,8,10,['k'],['k'],Y,N,None,Y,,,,,,,female,18,
43,5,478,3,3,10,['d'],['d'],Y,N,None,Y,,,,,,,female,18,
43,6,479,1,1,10,['d'],['d'],Y,N,None,Y,,,,,,,female,18,
43,7,480,8,8,10,['k'],['k'],Y,N,None,Y,,,,,,,female,18,
43,8,481,9,9,10,['d'],['d'],Y,Y,['space'],Y,,,,,,,female,18,
43,9,482,2,2,10,['d'],['k'],N,N,None,Y,,,,,,,female,18,
43,10,483,4,4,10,['d'],['d'],Y,N,None,Y,,,,,,,female,18,
44,0,484,3,3,10,['k'],['d'],N,Y,['space'],Y,,,,,,,female,18,
44,1,485,10,10,10,['d'],['k'],N,Y,['space'],Y,,,,,,,female,18,
44,2,486,6,6,10,['k'],['k'],Y,Y,['space'],Y,,,,,,,female,18,
44,3,487,7,7,10,['k'],['k'],Y,N,None,Y,,,,,,,female,18,
44,4,488,9,9,10,['k'],['k'],Y,Y,None,N,,,,,,,female,18,
44,5,489,2,2,10,['k'],['k'],Y,N,None,Y,,,,,,,female,18,
44,6,490,10,10,10,['k'],['k'],Y,Y,None,N,,,,,,,female,18,
44,7,491,10,10,10,['d'],['d'],Y,Y,None,N,,,,,,,female,18,
44,8,492,10,10,10,['k'],['d'],N,Y,None,N,,,,,,,female,18,
44,9,493,1,1,10,['k'],['k'],Y,N,None,Y,,,,,,,female,18,
44,10,494,4,4,10,['d'],['k'],N,Y,None,N,,,,,,,female,18,
45,0,495,1,1,10,['d'],['d'],Y,Y,None,N,,,,,,,female,18,
45,1,496,6,6,10,['k'],['k'],Y,Y,None,N,,,,,,,female,18,
45,2,497,4,4,10,['d'],['d'],Y,N,None,Y,,,,,,,female,18,
45,3,498,3,3,10,['d'],['d'],Y,Y,None,N,,,,,,,female,18,
45,4,499,2,2,10,['k'],['k'],Y,N,None,Y,41,36,25,,,,female,18,
45,5,500,6,6,11,['d'],['k'],Y,,,,,,,Y,Y,Y,female,18,
45,6,501,2,2,11,['d'],['d'],N,,,,,,,,Y,Y,female,18,
45,7,502,8,8,11,['d'],['d'],N,Y,None,N,,,,,Y,Y,female,18,
45,8,503,7,7,11,['d'],['d'],N,Y,None,N,,,,,Y,Y,female,18,
45,9,504,3,3,11,['k'],['d'],Y,N,None,Y,,,,,Y,Y,female,18,
45,10,505,9,9,11,['d'],['d'],N,Y,None,N,,,,,Y,Y,female,18,
46,0,506,3,3,11,['d'],['k'],Y,N,None,Y,,,,,Y,Y,female,18,
46,1,507,9,9,11,['d'],['k'],Y,Y,None,N,,,,,Y,Y,female,18,
46,2,508,6,6,11,['k'],['d'],Y,Y,None,N,,,,,Y,Y,female,18,
46,3,509,2,2,11,['d'],['d'],N,Y,None,N,,,,,Y,Y,female,18,
46,4,510,8,8,11,['d'],['k'],Y,Y,None,N,,,,,Y,Y,female,18,
46,5,511,2,2,11,['d'],['k'],Y,N,None,Y,,,,,Y,Y,female,18,
46,6,512,8,8,11,['k'],['d'],Y,N,None,Y,,,,,Y,Y,female,18,
46,7,513,7,7,11,['d'],['d'],N,Y,None,N,,,,,Y,Y,female,18,
46,8,514,6,6,11,['k'],['k'],N,Y,None,N,,,,,Y,Y,female,18,
46,9,515,2,2,11,['d'],['k'],Y,Y,None,N,,,,,Y,Y,female,18,
46,10,516,6,6,11,['k'],['d'],Y,N,None,Y,,,,,Y,Y,female,18,
47,0,517,1,1,11,['d'],['k'],Y,N,None,Y,,,,,Y,Y,female,18,
47,1,518,0,0,11,['k'],['d'],Y,Y,None,N,,,,,Y,Y,female,18,
47,2,519,4,4,11,['k'],['d'],Y,Y,None,N,,,,,Y,Y,female,18,
47,3,520,5,5,11,['k'],['d'],Y,Y,None,N,,,,,Y,Y,female,18,
47,4,521,4,4,11,['k'],['d'],Y,N,None,Y,,,,,Y,Y,female,18,
47,5,522,3,3,11,['d'],['k'],Y,N,None,Y,,,,,Y,Y,female,18,
47,6,523,10,10,11,['k'],['d'],Y,N,None,Y,,,,,Y,Y,female,18,
47,7,524,8,8,11,['k'],['d'],Y,N,None,Y,,,,,Y,Y,female,18,
47,8,525,8,8,11,['d'],['k'],Y,N,None,Y,,,,,Y,Y,female,18,
47,9,526,7,7,11,['k'],['d'],Y,N,None,Y,,,,,Y,Y,female,18,
47,10,527,3,3,11,['d'],['d'],N,N,None,Y,,,,,Y,Y,female,18,
48,0,528,0,0,11,['k'],['d'],Y,Y,['space'],Y,,,,,Y,Y,female,18,
48,1,529,9,9,11,['k'],['d'],Y,Y,['space'],Y,,,,,Y,Y,female,18,
48,2,530,10,10,11,['d'],['d'],N,Y,None,N,,,,,Y,Y,female,18,
48,3,531,8,8,11,['k'],['d'],Y,Y,None,N,,,,,Y,Y,female,18,
48,4,532,7,7,11,['k'],['d'],Y,N,None,Y,,,,,Y,Y,female,18,
48,5,533,10,10,11,['k'],['k'],N,N,None,Y,,,,,Y,Y,female,18,
48,6,534,5,5,11,['d'],['k'],Y,N,None,Y,,,,,Y,Y,female,18,
48,7,535,5,5,11,['k'],['d'],Y,Y,['space'],Y,,,,,Y,Y,female,18,
48,8,536,3,3,11,['d'],['k'],Y,N,None,Y,,,,,Y,Y,female,18,
48,9,537,6,6,11,['k'],['d'],Y,N,None,Y,,,,,Y,Y,female,18,
48,10,538,0,0,11,['k'],['d'],Y,N,None,Y,,,,,Y,Y,female,18,
49,0,539,5,5,11,['k'],['k'],N,N,None,Y,,,,,Y,Y,female,18,
49,1,540,1,1,11,['d'],['d'],N,N,None,Y,,,,,Y,Y,female,18,
49,2,541,5,5,11,['k'],['d'],Y,N,None,Y,,,,,Y,Y,female,18,
49,3,542,0,0,11,['d'],['k'],Y,N,None,Y,,,,,Y,Y,female,18,
49,4,543,0,0,11,['k'],['k'],N,Y,['space'],Y,,,,,Y,Y,female,18,
49,5,544,5,5,11,['k'],['k'],N,N,None,Y,,,,,Y,Y,female,18,
49,6,545,6,6,11,['k'],['d'],Y,N,None,Y,,,,,Y,Y,female,18,
49,7,546,2,2,11,['k'],['d'],Y,Y,['space'],Y,,,,,Y,Y,female,18,
49,8,547,10,10,11,['k'],['k'],N,N,None,Y,,,,,Y,Y,female,18,
49,9,548,3,3,11,['d'],['k'],Y,Y,['space'],Y,,,,,Y,Y,female,18,
49,10,549,10,10,11,['k'],['d'],Y,N,['space'],N,35,32,21,,Y,Y,female,18,
50,0,550,4,4,12,['k'],['k'],N,,,,,,,,Y,Y,female,18,
50,1,551,2,2,12,['d'],['k'],Y,,,,,,,,Y,Y,female,18,
50,2,552,4,4,12,['d'],['k'],Y,N,None,Y,,,,,Y,Y,female,18,
50,3,553,8,8,12,['d'],['k'],Y,N,None,Y,,,,,Y,Y,female,18,
50,4,554,9,9,12,['d'],['k'],Y,N,None,Y,,,,,Y,Y,female,18,
50,5,555,6,6,12,['d'],['k'],Y,Y,['space'],Y,,,,,Y,Y,female,18,
50,6,556,8,8,12,['d'],['k'],Y,Y,['space'],Y,,,,,Y,Y,female,18,
50,7,557,7,7,12,['k'],['k'],N,N,None,Y,,,,,Y,Y,female,18,
50,8,558,5,5,12,['d'],['k'],Y,Y,None,N,,,,,Y,Y,female,18,
50,9,559,2,2,12,['k'],['d'],Y,Y,['space'],Y,,,,,Y,Y,female,18,
50,10,560,2,2,12,['d'],['d'],N,Y,['d'],N,,,,,Y,Y,female,18,
51,0,561,0,0,12,['k'],['d'],Y,N,None,Y,,,,,Y,Y,female,18,
51,1,562,3,3,12,['k'],['d'],Y,N,['d'],N,,,,,Y,Y,female,18,
51,2,563,3,3,12,['d'],['k'],Y,N,None,Y,,,,,Y,Y,female,18,
51,3,564,3,3,12,['d'],['k'],Y,N,None,Y,,,,,Y,Y,female,18,
51,4,565,6,6,12,['k'],['k'],N,N,None,Y,,,,,Y,Y,female,18,
51,5,566,1,1,12,['d'],['k'],Y,Y,['space'],Y,,,,,Y,Y,female,18,
51,6,567,2,2,12,['d'],['d'],N,N,None,Y,,,,,Y,Y,female,18,
51,7,568,7,7,12,['k'],['d'],Y,Y,None,N,,,,,Y,Y,female,18,
51,8,569,9,9,12,['d'],['k'],Y,N,['k'],N,,,,,Y,Y,female,18,
51,9,570,8,8,12,['d'],['d'],N,N,['k'],N,,,,,Y,Y,female,18,
51,10,571,5,5,12,['d'],['d'],N,N,None,Y,,,,,Y,Y,female,18,
52,0,572,2,2,12,['d'],['k'],Y,Y,None,N,,,,,Y,Y,female,18,
52,1,573,5,5,12,['k'],['d'],Y,Y,None,N,,,,,Y,Y,female,18,
52,2,574,3,3,12,['d'],['d'],N,N,None,Y,,,,,Y,Y,female,18,
52,3,575,7,7,12,['k'],['d'],Y,Y,['space'],Y,,,,,Y,Y,female,18,
52,4,576,0,0,12,['k'],['k'],N,N,None,Y,,,,,Y,Y,female,18,
52,5,577,6,6,12,['k'],['d'],Y,N,None,Y,,,,,Y,Y,female,18,
52,6,578,5,5,12,['k'],['d'],Y,Y,['space'],Y,,,,,Y,Y,female,18,
52,7,579,1,1,12,['k'],['k'],N,Y,['space'],Y,,,,,Y,Y,female,18,
52,8,580,0,0,12,['k'],['k'],N,Y,['space'],Y,,,,,Y,Y,female,18,
52,9,581,4,4,12,['k'],['d'],Y,N,None,Y,,,,,Y,Y,female,18,
52,10,582,8,8,12,['k'],['d'],Y,Y,None,N,,,,,Y,Y,female,18,
53,0,583,6,6,12,['k'],['k'],N,Y,None,N,,,,,Y,Y,female,18,
53,1,584,4,4,12,['d'],['k'],Y,Y,None,N,,,,,Y,Y,female,18,
53,2,585,7,7,12,['k'],['k'],N,N,None,Y,,,,,Y,Y,female,18,
53,3,586,4,4,12,['k'],['d'],Y,Y,None,N,,,,,Y,Y,female,18,
53,4,587,3,3,12,['k'],['d'],Y,N,None,Y,,,,,Y,Y,female,18,
53,5,588,4,4,12,['d'],['k'],Y,N,None,Y,,,,,Y,Y,female,18,
53,6,589,9,9,12,['d'],['k'],Y,Y,None,N,,,,,Y,Y,female,18,
53,7,590,1,1,12,['k'],['d'],Y,Y,['space'],Y,,,,,Y,Y,female,18,
53,8,591,8,8,12,['d'],['k'],Y,Y,['d'],N,,,,,Y,Y,female,18,
53,9,592,9,9,12,['d'],['d'],N,N,None,Y,,,,,Y,Y,female,18,
53,10,593,5,5,12,['d'],['k'],Y,Y,None,N,,,,,Y,Y,female,18,
54,0,594,10,10,12,['k'],['k'],N,N,None,Y,,,,,Y,Y,female,18,
54,1,595,3,3,12,['d'],['k'],Y,Y,['space'],Y,,,,,Y,Y,female,18,
54,2,596,0,0,12,['k'],['k'],N,N,None,Y,,,,,Y,Y,female,18,
54,3,597,0,0,12,['d'],['d'],N,Y,['space'],Y,,,,,Y,Y,female,18,
54,4,598,3,3,12,['k'],['d'],Y,N,None,Y,,,,,Y,Y,female,18,
54,5,599,4,4,12,['d'],['k'],Y,Y,['space'],Y,33,33,24,,Y,Y,female,18,
