.thisRepN,.thisTrialN,.thisN,.thisIndex,.thisTrial,Block Number,Key pressed,Category,Correct?,Int Match?,Int Response,Int Correct?,Line Accuracy,Interference Accuracy,Matching Interferences,New instruction shown?,Buttons switched?,Fast?,gender,age,
0,0,0,5,5,1,['d'],['d'],Y,,,,,,,,,,Female,20,
0,1,1,8,8,1,['k'],['d'],N,,,,,,,,,,Female,20,
0,2,2,9,9,1,['k'],['d'],N,Y,['space'],Y,,,,,,,Female,20,
0,3,3,10,10,1,['d'],['k'],N,Y,['space'],Y,,,,,,,Female,20,
0,4,4,1,1,1,['d'],['d'],Y,N,None,Y,,,,,,,Female,20,
0,5,5,4,4,1,['k'],['k'],Y,N,['k'],N,,,,,,,Female,20,
0,6,6,6,6,1,['k'],['d'],N,N,None,Y,,,,,,,Female,20,
0,7,7,9,9,1,['k'],['k'],Y,Y,['space'],Y,,,,,,,Female,20,
0,8,8,8,8,1,['d'],['d'],Y,N,None,Y,,,,,,,Female,20,
0,9,9,2,2,1,['d'],['d'],Y,Y,None,N,,,,,,,Female,20,
0,10,10,10,10,1,['k'],['k'],Y,Y,['space'],Y,,,,,,,Female,20,
1,0,11,6,6,1,['k'],['k'],Y,N,None,Y,,,,,,,Female,20,
1,1,12,6,6,1,['k'],['k'],Y,Y,None,N,,,,,,,Female,20,
1,2,13,6,6,1,['k'],['k'],Y,N,None,Y,,,,,,,Female,20,
1,3,14,8,8,1,['d'],['k'],N,Y,None,N,,,,,,,Female,20,
1,4,15,7,7,1,['d'],['d'],Y,Y,['space'],Y,,,,,,,Female,20,
1,5,16,9,9,1,['k'],['k'],Y,Y,['space'],Y,,,,,,,Female,20,
1,6,17,3,3,1,['d'],['k'],N,N,None,Y,,,,,,,Female,20,
1,7,18,4,4,1,['k'],['k'],Y,Y,['space'],Y,,,,,,,Female,20,
1,8,19,4,4,1,['d'],['d'],Y,Y,['space'],Y,,,,,,,Female,20,
1,9,20,7,7,1,['k'],['k'],Y,N,['space'],N,,,,,,,Female,20,
1,10,21,10,10,1,['k'],['d'],N,N,None,Y,,,,,,,Female,20,
2,0,22,5,5,1,['d'],['k'],N,Y,None,N,,,,,,,Female,20,
2,1,23,0,0,1,['d'],['k'],N,N,None,Y,,,,,,,Female,20,
2,2,24,2,2,1,['k'],['k'],Y,Y,['space'],Y,,,,,,,Female,20,
2,3,25,0,0,1,['d'],['k'],N,N,None,Y,,,,,,,Female,20,
2,4,26,10,10,1,['k'],['k'],Y,Y,['space'],Y,,,,,,,Female,20,
2,5,27,3,3,1,['d'],['d'],Y,N,None,Y,,,,,,,Female,20,
2,6,28,5,5,1,['k'],['k'],Y,N,None,Y,,,,,,,Female,20,
2,7,29,6,6,1,['d'],['d'],Y,Y,['space'],Y,,,,,,,Female,20,
2,8,30,5,5,1,['k'],['k'],Y,N,None,Y,,,,,,,Female,20,
2,9,31,0,0,1,['d'],['d'],Y,N,None,Y,,,,,,,Female,20,
2,10,32,7,7,1,['k'],['k'],Y,Y,['space'],Y,,,,,,,Female,20,
3,0,33,7,7,1,['k'],['k'],Y,Y,['space'],Y,,,,,,,Female,20,
3,1,34,1,1,1,['d'],['k'],N,Y,None,N,,,,,,,Female,20,
3,2,35,4,4,1,['k'],['k'],Y,Y,['space'],Y,,,,,,,Female,20,
3,3,36,0,0,1,['k'],['k'],Y,Y,['space'],Y,,,,,,,Female,20,
3,4,37,0,0,1,['k'],['d'],N,N,['space'],N,,,,,,,Female,20,
3,5,38,6,6,1,['k'],['d'],N,Y,['space'],Y,,,,,,,Female,20,
3,6,39,10,10,1,['k'],['k'],Y,Y,['space'],Y,,,,,,,Female,20,
3,7,40,1,1,1,['k'],['d'],N,Y,['space'],Y,,,,,,,Female,20,
3,8,41,0,0,1,['d'],['d'],Y,N,None,Y,,,,,,,Female,20,
3,9,42,2,2,1,['k'],['k'],Y,N,None,Y,,,,,,,Female,20,
3,10,43,0,0,1,['k'],['d'],N,Y,['space'],Y,,,,,,,Female,20,
4,0,44,3,3,1,['k'],['d'],N,Y,['space'],Y,,,,,,,Female,20,
4,1,45,6,6,1,['k'],['k'],Y,N,None,Y,,,,,,,Female,20,
4,2,46,4,4,1,['k'],['k'],Y,N,['space'],N,,,,,,,Female,20,
4,3,47,5,5,1,['k'],['k'],Y,N,None,Y,,,,,,,Female,20,
4,4,48,7,7,1,['k'],['d'],N,N,None,Y,,,,,,,Female,20,
4,5,49,2,2,1,['k'],['k'],Y,N,None,Y,33,39,25,,,,Female,20,
4,6,50,7,7,2,['k'],['d'],N,,,,,,,,,,Female,20,
4,7,51,4,4,2,['k'],['d'],N,,,,,,,,,,Female,20,
4,8,52,8,8,2,['k'],['k'],Y,N,None,Y,,,,,,,Female,20,
4,9,53,7,7,2,['k'],['k'],Y,Y,None,N,,,,,,,Female,20,
4,10,54,10,10,2,['k'],['k'],Y,Y,['space'],Y,,,,,,,Female,20,
5,0,55,4,4,2,['d'],['d'],Y,Y,['space'],Y,,,,,,,Female,20,
5,1,56,9,9,2,['k'],['k'],Y,Y,None,N,,,,,,,Female,20,
5,2,57,0,0,2,['d'],['k'],N,N,None,Y,,,,,,,Female,20,
5,3,58,10,10,2,['k'],['d'],N,N,None,Y,,,,,,,Female,20,
5,4,59,6,6,2,['k'],['d'],N,N,None,Y,,,,,,,Female,20,
5,5,60,7,7,2,['k'],['d'],N,Y,['space'],Y,,,,,,,Female,20,
5,6,61,0,0,2,['k'],['k'],Y,N,None,Y,,,,,,,Female,20,
5,7,62,6,6,2,['d'],['k'],N,N,None,Y,,,,,,,Female,20,
5,8,63,8,8,2,['k'],['k'],Y,Y,['space'],Y,,,,,,,Female,20,
5,9,64,3,3,2,['k'],['d'],N,N,None,Y,,,,,,,Female,20,
5,10,65,4,4,2,['d'],['d'],Y,Y,['space'],Y,,,,,,,Female,20,
6,0,66,9,9,2,['d'],['k'],N,Y,['space'],Y,,,,,,,Female,20,
6,1,67,7,7,2,['d'],['d'],Y,N,None,Y,,,,,,,Female,20,
6,2,68,8,8,2,['d'],['k'],N,Y,['space'],Y,,,,,,,Female,20,
6,3,69,3,3,2,['k'],['k'],Y,Y,['space'],Y,,,,,,,Female,20,
6,4,70,2,2,2,['d'],['d'],Y,Y,None,N,,,,,,,Female,20,
6,5,71,6,6,2,['d'],['k'],N,N,None,Y,,,,,,,Female,20,
6,6,72,8,8,2,['k'],['k'],Y,N,['space'],N,,,,,,,Female,20,
6,7,73,2,2,2,['k'],['k'],Y,Y,None,N,,,,,,,Female,20,
6,8,74,0,0,2,['k'],['d'],N,Y,None,N,,,,,,,Female,20,
6,9,75,4,4,2,['k'],['k'],Y,N,None,Y,,,,,,,Female,20,
6,10,76,7,7,2,['k'],['k'],Y,Y,['space'],Y,,,,,,,Female,20,
7,0,77,7,7,2,['d'],['d'],Y,Y,['space'],Y,,,,,,,Female,20,
7,1,78,7,7,2,['k'],['k'],Y,N,None,Y,,,,,,,Female,20,
7,2,79,2,2,2,['k'],['k'],Y,N,None,Y,,,,,,,Female,20,
7,3,80,5,5,2,['k'],['k'],Y,N,None,Y,,,,,,,Female,20,
7,4,81,10,10,2,['d'],['d'],Y,Y,['space'],Y,,,,,,,Female,20,
7,5,82,7,7,2,['k'],['k'],Y,Y,['space'],Y,,,,,,,Female,20,
7,6,83,3,3,2,['d'],['d'],Y,N,None,Y,,,,,,,Female,20,
7,7,84,8,8,2,['k'],['d'],N,N,None,Y,,,,,,,Female,20,
7,8,85,0,0,2,['d'],['d'],Y,Y,['space'],Y,,,,,,,Female,20,
7,9,86,8,8,2,['d'],['d'],Y,Y,['space'],Y,,,,,,,Female,20,
7,10,87,3,3,2,['k'],['k'],Y,Y,['space'],Y,,,,,,,Female,20,
8,0,88,9,9,2,['k'],['k'],Y,Y,['space'],Y,,,,,,,Female,20,
8,1,89,2,2,2,['k'],['k'],Y,Y,['space'],Y,,,,,,,Female,20,
8,2,90,10,10,2,['k'],['k'],Y,N,None,Y,,,,,,,Female,20,
8,3,91,1,1,2,['k'],['k'],Y,N,None,Y,,,,,,,Female,20,
8,4,92,5,5,2,['d'],['d'],Y,Y,['space'],Y,,,,,,,Female,20,
8,5,93,8,8,2,['d'],['d'],Y,Y,['space'],Y,,,,,,,Female,20,
8,6,94,5,5,2,['k'],['k'],Y,Y,['space'],Y,,,,,,,Female,20,
8,7,95,4,4,2,['k'],['k'],Y,N,None,Y,,,,,,,Female,20,
8,8,96,7,7,2,['d'],['d'],Y,N,None,Y,,,,,,,Female,20,
8,9,97,0,0,2,['d'],['d'],Y,N,None,Y,,,,,,,Female,20,
8,10,98,0,0,2,['d'],['d'],Y,N,None,Y,,,,,,,Female,20,
9,0,99,6,6,2,['d'],['d'],Y,N,None,Y,37,42,25,,,,Female,20,
9,1,100,1,1,3,['d'],['k'],N,,,,,,,,,,Female,20,
9,2,101,7,7,3,['d'],['d'],Y,,,,,,,,,,Female,20,
9,3,102,8,8,3,['d'],['d'],Y,Y,['space'],Y,,,,,,,Female,20,
9,4,103,4,4,3,['d'],['d'],Y,Y,['space'],Y,,,,,,,Female,20,
9,5,104,10,10,3,['k'],['k'],Y,N,None,Y,,,,,,,Female,20,
9,6,105,5,5,3,['k'],['k'],Y,Y,['k'],N,,,,,,,Female,20,
9,7,106,7,7,3,['k'],['k'],Y,N,['space'],N,,,,,,,Female,20,
9,8,107,5,5,3,['k'],['k'],Y,Y,None,N,,,,,,,Female,20,
9,9,108,7,7,3,['d'],['d'],Y,Y,['space'],Y,,,,,,,Female,20,
9,10,109,7,7,3,['d'],['d'],Y,N,None,Y,,,,,,,Female,20,
10,0,110,4,4,3,['k'],['k'],Y,Y,['space'],Y,,,,,,,Female,20,
10,1,111,7,7,3,['d'],['d'],Y,Y,['space'],Y,,,,,,,Female,20,
10,2,112,1,1,3,['k'],['k'],Y,N,None,Y,,,,,,,Female,20,
10,3,113,6,6,3,['k'],['k'],Y,Y,['space'],Y,,,,,,,Female,20,
10,4,114,5,5,3,['d'],['d'],Y,N,None,Y,,,,,,,Female,20,
10,5,115,8,8,3,['d'],['d'],Y,Y,['space'],Y,,,,,,,Female,20,
10,6,116,0,0,3,['d'],['d'],Y,Y,['space'],Y,,,,,,,Female,20,
10,7,117,1,1,3,['k'],['k'],Y,Y,['space'],Y,,,,,,,Female,20,
10,8,118,8,8,3,['k'],['d'],N,Y,['space'],Y,,,,,,,Female,20,
10,9,119,7,7,3,['d'],['d'],Y,Y,['space'],Y,,,,,,,Female,20,
10,10,120,1,1,3,['k'],['k'],Y,N,None,Y,,,,,,,Female,20,
11,0,121,0,0,3,['d'],['d'],Y,N,None,Y,,,,,,,Female,20,
11,1,122,9,9,3,['k'],['k'],Y,Y,['space'],Y,,,,,,,Female,20,
11,2,123,9,9,3,['k'],['k'],Y,Y,['space'],Y,,,,,,,Female,20,
11,3,124,5,5,3,['d'],['d'],Y,N,None,Y,,,,,,,Female,20,
11,4,125,1,1,3,['d'],['d'],Y,N,None,Y,,,,,,,Female,20,
11,5,126,0,0,3,['d'],['d'],Y,Y,['space'],Y,,,,,,,Female,20,
11,6,127,0,0,3,['d'],['d'],Y,N,None,Y,,,,,,,Female,20,
11,7,128,0,0,3,['k'],['k'],Y,N,None,Y,,,,,,,Female,20,
11,8,129,7,7,3,['d'],['d'],Y,N,None,Y,,,,,,,Female,20,
11,9,130,1,1,3,['k'],['k'],Y,Y,['space'],Y,,,,,,,Female,20,
11,10,131,5,5,3,['k'],['k'],Y,Y,['space'],Y,,,,,,,Female,20,
12,0,132,1,1,3,['d'],['d'],Y,N,None,Y,,,,,,,Female,20,
12,1,133,6,6,3,['k'],['k'],Y,N,None,Y,,,,,,,Female,20,
12,2,134,8,8,3,['k'],['k'],Y,Y,['space'],Y,,,,,,,Female,20,
12,3,135,9,9,3,['d'],['d'],Y,Y,['space'],Y,,,,,,,Female,20,
12,4,136,5,5,3,['k'],['k'],Y,N,None,Y,,,,,,,Female,20,
12,5,137,10,10,3,['k'],['k'],Y,Y,['space'],Y,,,,,,,Female,20,
12,6,138,3,3,3,['k'],['k'],Y,N,None,Y,,,,,,,Female,20,
12,7,139,3,3,3,['d'],['d'],Y,N,None,Y,,,,,,,Female,20,
12,8,140,3,3,3,['d'],['d'],Y,N,None,Y,,,,,,,Female,20,
12,9,141,9,9,3,['k'],['k'],Y,N,None,Y,,,,,,,Female,20,
12,10,142,10,10,3,['d'],['d'],Y,N,None,Y,,,,,,,Female,20,
13,0,143,10,10,3,['k'],['d'],N,Y,['space'],Y,,,,,,,Female,20,
13,1,144,0,0,3,['k'],['k'],Y,N,None,Y,,,,,,,Female,20,
13,2,145,3,3,3,['d'],['d'],Y,N,['space'],N,,,,,,,Female,20,
13,3,146,10,10,3,['d'],['d'],Y,Y,['space'],Y,,,,,,,Female,20,
13,4,147,5,5,3,['k'],['k'],Y,Y,['space'],Y,,,,,,,Female,20,
13,5,148,9,9,3,['d'],['d'],Y,N,None,Y,,,,,,,Female,20,
13,6,149,8,8,3,['k'],['k'],Y,Y,['space'],Y,47,44,25,,,,Female,20,
13,7,150,10,10,4,['d'],['d'],Y,,,,,,,,,,Female,20,
13,8,151,5,5,4,['k'],['k'],Y,,,,,,,,,,Female,20,
13,9,152,7,7,4,['d'],['d'],Y,N,None,Y,,,,,,,Female,20,
13,10,153,2,2,4,['k'],['d'],N,Y,['space'],Y,,,,,,,Female,20,
14,0,154,8,8,4,['d'],['d'],Y,Y,['space'],Y,,,,,,,Female,20,
14,1,155,5,5,4,['k'],['k'],Y,Y,['space'],Y,,,,,,,Female,20,
14,2,156,0,0,4,['d'],['d'],Y,Y,['space'],Y,,,,,,,Female,20,
14,3,157,3,3,4,['d'],['k'],N,N,None,Y,,,,,,,Female,20,
14,4,158,10,10,4,['d'],['d'],Y,N,None,Y,,,,,,,Female,20,
14,5,159,8,8,4,['d'],['d'],Y,N,None,Y,,,,,,,Female,20,
14,6,160,0,0,4,['k'],['k'],Y,Y,['space'],Y,,,,,,,Female,20,
14,7,161,3,3,4,['d'],['d'],Y,Y,['space'],Y,,,,,,,Female,20,
14,8,162,1,1,4,['k'],['k'],Y,N,None,Y,,,,,,,Female,20,
14,9,163,7,7,4,['k'],['k'],Y,N,None,Y,,,,,,,Female,20,
14,10,164,5,5,4,['d'],['d'],Y,Y,['space'],Y,,,,,,,Female,20,
15,0,165,6,6,4,['k'],['d'],N,Y,['space'],Y,,,,,,,Female,20,
15,1,166,9,9,4,['k'],['k'],Y,Y,['space'],Y,,,,,,,Female,20,
15,2,167,7,7,4,['k'],['k'],Y,Y,['space'],Y,,,,,,,Female,20,
15,3,168,6,6,4,['d'],['d'],Y,N,None,Y,,,,,,,Female,20,
15,4,169,4,4,4,['d'],['d'],Y,N,None,Y,,,,,,,Female,20,
15,5,170,10,10,4,['d'],['d'],Y,Y,['space'],Y,,,,,,,Female,20,
15,6,171,6,6,4,['k'],['k'],Y,Y,['space'],Y,,,,,,,Female,20,
15,7,172,3,3,4,['d'],['d'],Y,N,None,Y,,,,,,,Female,20,
15,8,173,2,2,4,['d'],['d'],Y,N,None,Y,,,,,,,Female,20,
15,9,174,1,1,4,['d'],['d'],Y,Y,['space'],Y,,,,,,,Female,20,
15,10,175,9,9,4,['k'],['k'],Y,N,None,Y,,,,,,,Female,20,
16,0,176,6,6,4,['d'],['d'],Y,Y,['space'],Y,,,,,,,Female,20,
16,1,177,7,7,4,['k'],['k'],Y,Y,['space'],Y,,,,,,,Female,20,
16,2,178,5,5,4,['d'],['d'],Y,N,None,Y,,,,,,,Female,20,
16,3,179,9,9,4,['k'],['k'],Y,N,None,Y,,,,,,,Female,20,
16,4,180,7,7,4,['k'],['k'],Y,Y,['space'],Y,,,,,,,Female,20,
16,5,181,10,10,4,['d'],['d'],Y,Y,['space'],Y,,,,,,,Female,20,
16,6,182,2,2,4,['k'],['k'],Y,N,None,Y,,,,,,,Female,20,
16,7,183,9,9,4,['k'],['k'],Y,N,None,Y,,,,,,,Female,20,
16,8,184,8,8,4,['k'],['k'],Y,Y,['space'],Y,,,,,,,Female,20,
16,9,185,3,3,4,['d'],['d'],Y,Y,['space'],Y,,,,,,,Female,20,
16,10,186,9,9,4,['d'],['d'],Y,Y,['space'],Y,,,,,,,Female,20,
17,0,187,8,8,4,['d'],['d'],Y,Y,['space'],Y,,,,,,,Female,20,
17,1,188,9,9,4,['d'],['d'],Y,N,None,Y,,,,,,,Female,20,
17,2,189,10,10,4,['d'],['d'],Y,Y,['space'],Y,,,,,,,Female,20,
17,3,190,3,3,4,['d'],['d'],Y,Y,['space'],Y,,,,,,,Female,20,
17,4,191,3,3,4,['k'],['k'],Y,N,None,Y,,,,,,,Female,20,
17,5,192,4,4,4,['d'],['d'],Y,N,None,Y,,,,,,,Female,20,
17,6,193,1,1,4,['k'],['k'],Y,N,None,Y,,,,,,,Female,20,
17,7,194,1,1,4,['k'],['k'],Y,N,None,Y,,,,,,,Female,20,
17,8,195,4,4,4,['d'],['k'],N,Y,['space'],Y,,,,,,,Female,20,
17,9,196,10,10,4,['k'],['k'],Y,Y,['space'],Y,,,,,,,Female,20,
17,10,197,2,2,4,['d'],['d'],Y,N,None,Y,,,,,,,Female,20,
18,0,198,1,1,4,['k'],['k'],Y,N,None,Y,,,,,,,Female,20,
18,1,199,1,1,4,['d'],['d'],Y,N,None,Y,46,48,25,,,,Female,20,
18,2,200,8,8,5,['d'],['d'],Y,,,,,,,,,,Female,20,
18,3,201,0,0,5,['d'],['d'],Y,,,,,,,,,,Female,20,
18,4,202,4,4,5,['d'],['d'],Y,N,None,Y,,,,,,,Female,20,
18,5,203,10,10,5,['k'],['k'],Y,N,None,Y,,,,,,,Female,20,
18,6,204,10,10,5,['k'],['k'],Y,N,None,Y,,,,,,,Female,20,
18,7,205,3,3,5,['d'],['k'],N,N,None,Y,,,,,,,Female,20,
18,8,206,1,1,5,['k'],['k'],Y,Y,['space'],Y,,,,,,,Female,20,
18,9,207,0,0,5,['k'],['k'],Y,Y,['space'],Y,,,,,,,Female,20,
18,10,208,2,2,5,['d'],['k'],N,Y,['space'],Y,,,,,,,Female,20,
19,0,209,10,10,5,['k'],['k'],Y,Y,['space'],Y,,,,,,,Female,20,
19,1,210,6,6,5,['d'],['d'],Y,Y,['space'],Y,,,,,,,Female,20,
19,2,211,9,9,5,['d'],['d'],Y,N,None,Y,,,,,,,Female,20,
19,3,212,0,0,5,['k'],['d'],N,N,None,Y,,,,,,,Female,20,
19,4,213,9,9,5,['d'],['d'],Y,Y,['space'],Y,,,,,,,Female,20,
19,5,214,5,5,5,['k'],['k'],Y,N,None,Y,,,,,,,Female,20,
19,6,215,1,1,5,['d'],['d'],Y,Y,['space'],Y,,,,,,,Female,20,
19,7,216,9,9,5,['k'],['k'],Y,Y,['space'],Y,,,,,,,Female,20,
19,8,217,9,9,5,['k'],['k'],Y,N,None,Y,,,,,,,Female,20,
19,9,218,1,1,5,['k'],['k'],Y,Y,['space'],Y,,,,,,,Female,20,
19,10,219,6,6,5,['k'],['k'],Y,Y,['space'],Y,,,,,,,Female,20,
20,0,220,9,9,5,['k'],['k'],Y,N,None,Y,,,,,,,Female,20,
20,1,221,1,1,5,['d'],['k'],N,N,None,Y,,,,,,,Female,20,
20,2,222,3,3,5,['d'],['d'],Y,Y,['space'],Y,,,,,,,Female,20,
20,3,223,4,4,5,['k'],['k'],Y,N,None,Y,,,,,,,Female,20,
20,4,224,0,0,5,['k'],['k'],Y,Y,['space'],Y,,,,,,,Female,20,
20,5,225,8,8,5,['d'],['d'],Y,Y,['space'],Y,,,,,,,Female,20,
20,6,226,8,8,5,['d'],['d'],Y,N,None,Y,,,,,,,Female,20,
20,7,227,4,4,5,['d'],['d'],Y,Y,['space'],Y,,,,,,,Female,20,
20,8,228,0,0,5,['d'],['d'],Y,N,None,Y,,,,,,,Female,20,
20,9,229,9,9,5,['k'],['k'],Y,Y,['space'],Y,,,,,,,Female,20,
20,10,230,10,10,5,['d'],['d'],Y,Y,['space'],Y,,,,,,,Female,20,
21,0,231,6,6,5,['d'],['d'],Y,N,None,Y,,,,,,,Female,20,
21,1,232,6,6,5,['d'],['d'],Y,Y,['space'],Y,,,,,,,Female,20,
21,2,233,10,10,5,['k'],['k'],Y,Y,['space'],Y,,,,,,,Female,20,
21,3,234,4,4,5,['d'],['d'],Y,Y,['space'],Y,,,,,,,Female,20,
21,4,235,10,10,5,['d'],['d'],Y,N,None,Y,,,,,,,Female,20,
21,5,236,10,10,5,['k'],['k'],Y,Y,['space'],Y,,,,,,,Female,20,
21,6,237,9,9,5,['k'],['k'],Y,Y,['space'],Y,,,,,,,Female,20,
21,7,238,5,5,5,['k'],['k'],Y,Y,['space'],Y,,,,,,,Female,20,
21,8,239,2,2,5,['k'],['k'],Y,N,None,Y,,,,,,,Female,20,
21,9,240,10,10,5,['d'],['d'],Y,N,None,Y,,,,,,,Female,20,
21,10,241,9,9,5,['k'],['k'],Y,N,None,Y,,,,,,,Female,20,
22,0,242,5,5,5,['d'],['d'],Y,N,None,Y,,,,,,,Female,20,
22,1,243,9,9,5,['d'],['d'],Y,N,None,Y,,,,,,,Female,20,
22,2,244,0,0,5,['k'],['k'],Y,N,None,Y,,,,,,,Female,20,
22,3,245,0,0,5,['d'],['d'],Y,N,None,Y,,,,,,,Female,20,
22,4,246,6,6,5,['k'],['k'],Y,N,None,Y,,,,,,,Female,20,
22,5,247,7,7,5,['k'],['k'],Y,Y,['space'],Y,,,,,,,Female,20,
22,6,248,8,8,5,['k'],['k'],Y,N,None,Y,,,,,,,Female,20,
22,7,249,7,7,5,['k'],['k'],Y,Y,['space'],Y,46,48,24,,,,Female,20,
22,8,250,0,0,6,['k'],['k'],Y,,,,,,,,,,Female,20,
22,9,251,0,0,6,['d'],['d'],Y,,,,,,,,,,Female,20,
22,10,252,2,2,6,['k'],['d'],N,N,None,Y,,,,,,,Female,20,
23,0,253,3,3,6,['d'],['k'],N,Y,['space'],Y,,,,,,,Female,20,
23,1,254,3,3,6,['d'],['d'],Y,N,None,Y,,,,,,,Female,20,
23,2,255,1,1,6,['d'],['d'],Y,Y,['space'],Y,,,,,,,Female,20,
23,3,256,10,10,6,['d'],['d'],Y,Y,['space'],Y,,,,,,,Female,20,
23,4,257,0,0,6,['d'],['d'],Y,N,None,Y,,,,,,,Female,20,
23,5,258,5,5,6,['k'],['d'],N,N,None,Y,,,,,,,Female,20,
23,6,259,5,5,6,['k'],['k'],Y,N,None,Y,,,,,,,Female,20,
23,7,260,5,5,6,['k'],['k'],Y,N,None,Y,,,,,,,Female,20,
23,8,261,8,8,6,['d'],['d'],Y,Y,None,N,,,,,,,Female,20,
23,9,262,1,1,6,['d'],['d'],Y,N,None,Y,,,,,,,Female,20,
23,10,263,8,8,6,['d'],['d'],Y,N,None,Y,,,,,,,Female,20,
24,0,264,10,10,6,['d'],['d'],Y,N,None,Y,,,,,,,Female,20,
24,1,265,9,9,6,['d'],['d'],Y,Y,['space'],Y,,,,,,,Female,20,
24,2,266,10,10,6,['d'],['d'],Y,N,None,Y,,,,,,,Female,20,
24,3,267,4,4,6,['k'],['k'],Y,N,None,Y,,,,,,,Female,20,
24,4,268,4,4,6,['k'],['k'],Y,Y,['space'],Y,,,,,,,Female,20,
24,5,269,2,2,6,['k'],['k'],Y,Y,['space'],Y,,,,,,,Female,20,
24,6,270,7,7,6,['d'],['k'],N,N,None,Y,,,,,,,Female,20,
24,7,271,3,3,6,['k'],['k'],Y,Y,['space'],Y,,,,,,,Female,20,
24,8,272,1,1,6,['d'],['d'],Y,N,None,Y,,,,,,,Female,20,
24,9,273,8,8,6,['k'],['k'],Y,Y,['space'],Y,,,,,,,Female,20,
24,10,274,9,9,6,['k'],['k'],Y,N,None,Y,,,,,,,Female,20,
25,0,275,1,1,6,['d'],['d'],Y,N,None,Y,,,,,,,Female,20,
25,1,276,3,3,6,['d'],['d'],Y,Y,['space'],Y,,,,,,,Female,20,
25,2,277,7,7,6,['k'],['k'],Y,Y,['space'],Y,,,,,,,Female,20,
25,3,278,10,10,6,['k'],['k'],Y,N,None,Y,,,,,,,Female,20,
25,4,279,5,5,6,['d'],['d'],Y,N,None,Y,,,,,,,Female,20,
25,5,280,1,1,6,['d'],['d'],Y,N,None,Y,,,,,,,Female,20,
25,6,281,0,0,6,['k'],['k'],Y,Y,['space'],Y,,,,,,,Female,20,
25,7,282,2,2,6,['k'],['k'],Y,Y,['space'],Y,,,,,,,Female,20,
25,8,283,9,9,6,['d'],['d'],Y,N,None,Y,,,,,,,Female,20,
25,9,284,2,2,6,['k'],['k'],Y,N,None,Y,,,,,,,Female,20,
25,10,285,1,1,6,['d'],['d'],Y,Y,['space'],Y,,,,,,,Female,20,
26,0,286,0,0,6,['d'],['d'],Y,N,None,Y,,,,,,,Female,20,
26,1,287,1,1,6,['d'],['d'],Y,N,None,Y,,,,,,,Female,20,
26,2,288,5,5,6,['d'],['d'],Y,N,None,Y,,,,,,,Female,20,
26,3,289,6,6,6,['k'],['d'],N,Y,['space'],Y,,,,,,,Female,20,
26,4,290,0,0,6,['d'],['k'],N,Y,['space'],Y,,,,,,,Female,20,
26,5,291,1,1,6,['k'],['k'],Y,N,None,Y,,,,,,,Female,20,
26,6,292,8,8,6,['k'],['k'],Y,N,None,Y,,,,,,,Female,20,
26,7,293,3,3,6,['k'],['k'],Y,Y,['space'],Y,,,,,,,Female,20,
26,8,294,0,0,6,['d'],['d'],Y,Y,['space'],Y,,,,,,,Female,20,
26,9,295,3,3,6,['k'],['k'],Y,Y,['space'],Y,,,,,,,Female,20,
26,10,296,8,8,6,['d'],['d'],Y,Y,['space'],Y,,,,,,,Female,20,
27,0,297,4,4,6,['k'],['k'],Y,Y,['space'],Y,,,,,,,Female,20,
27,1,298,8,8,6,['k'],['k'],Y,N,None,Y,,,,,,,Female,20,
27,2,299,3,3,6,['d'],['d'],Y,Y,['space'],Y,44,47,22,,,,Female,20,
27,3,300,5,5,7,['d'],['d'],Y,,,,,,,,,,Female,20,
27,4,301,1,1,7,['k'],['k'],Y,,,,,,,,,,Female,20,
27,5,302,2,2,7,['k'],['k'],Y,N,None,Y,,,,,,,Female,20,
27,6,303,0,0,7,['k'],['k'],Y,Y,['space'],Y,,,,,,,Female,20,
27,7,304,2,2,7,['d'],['d'],Y,N,None,Y,,,,,,,Female,20,
27,8,305,6,6,7,['d'],['d'],Y,Y,['space'],Y,,,,,,,Female,20,
27,9,306,10,10,7,['d'],['d'],Y,Y,['space'],Y,,,,,,,Female,20,
27,10,307,4,4,7,['k'],['k'],Y,N,None,Y,,,,,,,Female,20,
28,0,308,7,7,7,['d'],['d'],Y,Y,['space'],Y,,,,,,,Female,20,
28,1,309,6,6,7,['d'],['d'],Y,Y,['space'],Y,,,,,,,Female,20,
28,2,310,6,6,7,['k'],['k'],Y,Y,['space'],Y,,,,,,,Female,20,
28,3,311,5,5,7,['k'],['k'],Y,N,None,Y,,,,,,,Female,20,
28,4,312,5,5,7,['d'],['d'],Y,Y,['space'],Y,,,,,,,Female,20,
28,5,313,9,9,7,['k'],['k'],Y,N,None,Y,,,,,,,Female,20,
28,6,314,3,3,7,['d'],['d'],Y,N,None,Y,,,,,,,Female,20,
28,7,315,9,9,7,['d'],['d'],Y,N,None,Y,,,,,,,Female,20,
28,8,316,3,3,7,['k'],['d'],N,N,None,Y,,,,,,,Female,20,
28,9,317,4,4,7,['k'],['k'],Y,N,None,Y,,,,,,,Female,20,
28,10,318,10,10,7,['d'],['d'],Y,N,None,Y,,,,,,,Female,20,
29,0,319,3,3,7,['d'],['d'],Y,N,None,Y,,,,,,,Female,20,
29,1,320,9,9,7,['k'],['k'],Y,Y,['space'],Y,,,,,,,Female,20,
29,2,321,1,1,7,['k'],['k'],Y,Y,['space'],Y,,,,,,,Female,20,
29,3,322,9,9,7,['d'],['d'],Y,N,None,Y,,,,,,,Female,20,
29,4,323,8,8,7,['d'],['d'],Y,Y,['space'],Y,,,,,,,Female,20,
29,5,324,1,1,7,['d'],['d'],Y,N,None,Y,,,,,,,Female,20,
29,6,325,4,4,7,['d'],['d'],Y,Y,['space'],Y,,,,,,,Female,20,
29,7,326,10,10,7,['d'],['d'],Y,Y,['space'],Y,,,,,,,Female,20,
29,8,327,1,1,7,['d'],['d'],Y,Y,['space'],Y,,,,,,,Female,20,
29,9,328,10,10,7,['d'],['d'],Y,Y,['space'],Y,,,,,,,Female,20,
29,10,329,10,10,7,['k'],['k'],Y,N,None,Y,,,,,,,Female,20,
30,0,330,10,10,7,['k'],['k'],Y,Y,['space'],Y,,,,,,,Female,20,
30,1,331,4,4,7,['d'],['d'],Y,Y,['space'],Y,,,,,,,Female,20,
30,2,332,4,4,7,['d'],['d'],Y,N,None,Y,,,,,,,Female,20,
30,3,333,2,2,7,['k'],['k'],Y,Y,['space'],Y,,,,,,,Female,20,
30,4,334,2,2,7,['k'],['k'],Y,Y,['space'],Y,,,,,,,Female,20,
30,5,335,4,4,7,['k'],['k'],Y,Y,['space'],Y,,,,,,,Female,20,
30,6,336,0,0,7,['d'],['d'],Y,N,None,Y,,,,,,,Female,20,
30,7,337,10,10,7,['k'],['k'],Y,N,None,Y,,,,,,,Female,20,
30,8,338,5,5,7,['d'],['d'],Y,N,None,Y,,,,,,,Female,20,
30,9,339,3,3,7,['k'],['k'],Y,Y,['space'],Y,,,,,,,Female,20,
30,10,340,7,7,7,['k'],['k'],Y,N,None,Y,,,,,,,Female,20,
31,0,341,4,4,7,['k'],['k'],Y,Y,['space'],Y,,,,,,,Female,20,
31,1,342,9,9,7,['d'],['d'],Y,Y,['space'],Y,,,,,,,Female,20,
31,2,343,2,2,7,['d'],['d'],Y,N,None,Y,,,,,,,Female,20,
31,3,344,10,10,7,['d'],['d'],Y,N,None,Y,,,,,,,Female,20,
31,4,345,1,1,7,['k'],['k'],Y,N,None,Y,,,,,,,Female,20,
31,5,346,3,3,7,['k'],['k'],Y,Y,['space'],Y,,,,,,,Female,20,
31,6,347,1,1,7,['k'],['k'],Y,N,None,Y,,,,,,,Female,20,
31,7,348,5,5,7,['k'],['k'],Y,N,None,Y,,,,,,,Female,20,
31,8,349,0,0,7,['k'],['k'],Y,N,None,Y,49,48,23,,,,Female,20,
31,9,350,9,9,8,['d'],['d'],Y,,,,,,,,,,Female,20,
31,10,351,8,8,8,['k'],['k'],Y,,,,,,,,,,Female,20,
32,0,352,10,10,8,['d'],['d'],Y,Y,['space'],Y,,,,,,,Female,20,
32,1,353,6,6,8,['d'],['d'],Y,N,None,Y,,,,,,,Female,20,
32,2,354,9,9,8,['k'],['k'],Y,Y,['space'],Y,,,,,,,Female,20,
32,3,355,1,1,8,['d'],['d'],Y,N,None,Y,,,,,,,Female,20,
32,4,356,2,2,8,['d'],['d'],Y,Y,['space'],Y,,,,,,,Female,20,
32,5,357,9,9,8,['d'],['d'],Y,Y,['space'],Y,,,,,,,Female,20,
32,6,358,8,8,8,['k'],['k'],Y,N,None,Y,,,,,,,Female,20,
32,7,359,6,6,8,['k'],['k'],Y,N,None,Y,,,,,,,Female,20,
32,8,360,1,1,8,['d'],['d'],Y,Y,['space'],Y,,,,,,,Female,20,
32,9,361,1,1,8,['k'],['k'],Y,N,None,Y,,,,,,,Female,20,
32,10,362,5,5,8,['k'],['k'],Y,N,None,Y,,,,,,,Female,20,
33,0,363,1,1,8,['k'],['k'],Y,N,None,Y,,,,,,,Female,20,
33,1,364,1,1,8,['k'],['d'],N,Y,['space'],Y,,,,,,,Female,20,
33,2,365,6,6,8,['k'],['d'],N,Y,['space'],Y,,,,,,,Female,20,
33,3,366,6,6,8,['d'],['d'],Y,Y,['space'],Y,,,,,,,Female,20,
33,4,367,7,7,8,['d'],['d'],Y,Y,['space'],Y,,,,,,,Female,20,
33,5,368,4,4,8,['k'],['k'],Y,Y,['space'],Y,,,,,,,Female,20,
33,6,369,1,1,8,['d'],['d'],Y,Y,['space'],Y,,,,,,,Female,20,
33,7,370,9,9,8,['k'],['k'],Y,N,None,Y,,,,,,,Female,20,
33,8,371,5,5,8,['d'],['d'],Y,Y,['d'],N,,,,,,,Female,20,
33,9,372,10,10,8,['k'],['k'],Y,N,None,Y,,,,,,,Female,20,
33,10,373,6,6,8,['d'],['d'],Y,N,None,Y,,,,,,,Female,20,
34,0,374,0,0,8,['k'],['d'],N,N,None,Y,,,,,,,Female,20,
34,1,375,5,5,8,['d'],['d'],Y,Y,['space'],Y,,,,,,,Female,20,
34,2,376,2,2,8,['k'],['d'],N,Y,['space'],Y,,,,,,,Female,20,
34,3,377,8,8,8,['k'],['k'],Y,Y,['space'],Y,,,,,,,Female,20,
34,4,378,8,8,8,['k'],['d'],N,Y,['space'],Y,,,,,,,Female,20,
34,5,379,0,0,8,['d'],['d'],Y,Y,['space'],Y,,,,,,,Female,20,
34,6,380,6,6,8,['k'],['k'],Y,Y,['space'],Y,,,,,,,Female,20,
34,7,381,2,2,8,['d'],['d'],Y,N,None,Y,,,,,,,Female,20,
34,8,382,0,0,8,['k'],['d'],N,Y,['space'],Y,,,,,,,Female,20,
34,9,383,9,9,8,['k'],['k'],Y,N,None,Y,,,,,,,Female,20,
34,10,384,6,6,8,['d'],['d'],Y,N,None,Y,,,,,,,Female,20,
35,0,385,9,9,8,['d'],['d'],Y,N,None,Y,,,,,,,Female,20,
35,1,386,4,4,8,['k'],['d'],N,Y,['space'],Y,,,,,,,Female,20,
35,2,387,4,4,8,['d'],['d'],Y,Y,['space'],Y,,,,,,,Female,20,
35,3,388,3,3,8,['k'],['k'],Y,Y,['space'],Y,,,,,,,Female,20,
35,4,389,5,5,8,['k'],['d'],N,Y,['space'],Y,,,,,,,Female,20,
35,5,390,8,8,8,['k'],['k'],Y,Y,['space'],Y,,,,,,,Female,20,
35,6,391,3,3,8,['d'],['d'],Y,N,None,Y,,,,,,,Female,20,
35,7,392,10,10,8,['d'],['d'],Y,N,None,Y,,,,,,,Female,20,
35,8,393,2,2,8,['d'],['d'],Y,Y,['space'],Y,,,,,,,Female,20,
35,9,394,3,3,8,['k'],['k'],Y,N,None,Y,,,,,,,Female,20,
35,10,395,2,2,8,['d'],['d'],Y,N,None,Y,,,,,,,Female,20,
36,0,396,5,5,8,['k'],['k'],Y,N,None,Y,,,,,,,Female,20,
36,1,397,10,10,8,['d'],['d'],Y,N,None,Y,,,,,,,Female,20,
36,2,398,2,2,8,['k'],['k'],Y,N,None,Y,,,,,,,Female,20,
36,3,399,5,5,8,['k'],['k'],Y,N,None,Y,42,47,25,,,,Female,20,
36,4,400,2,2,9,['k'],['k'],Y,,,,,,,,,,Female,20,
36,5,401,10,10,9,['d'],['k'],N,,,,,,,,,,Female,20,
36,6,402,2,2,9,['k'],['k'],Y,Y,None,N,,,,,,,Female,20,
36,7,403,7,7,9,['k'],['k'],Y,Y,None,N,,,,,,,Female,20,
36,8,404,5,5,9,['k'],['k'],Y,N,None,Y,,,,,,,Female,20,
36,9,405,4,4,9,['k'],['k'],Y,N,None,Y,,,,,,,Female,20,
36,10,406,5,5,9,['k'],['k'],Y,N,None,Y,,,,,,,Female,20,
37,0,407,0,0,9,['k'],['k'],Y,Y,None,N,,,,,,,Female,20,
37,1,408,0,0,9,['d'],['d'],Y,N,None,Y,,,,,,,Female,20,
37,2,409,7,7,9,['d'],['d'],Y,Y,['space'],Y,,,,,,,Female,20,
37,3,410,7,7,9,['k'],['k'],Y,Y,['space'],Y,,,,,,,Female,20,
37,4,411,4,4,9,['k'],['k'],Y,N,None,Y,,,,,,,Female,20,
37,5,412,1,1,9,['d'],['d'],Y,Y,['space'],Y,,,,,,,Female,20,
37,6,413,6,6,9,['d'],['d'],Y,N,None,Y,,,,,,,Female,20,
37,7,414,2,2,9,['d'],['d'],Y,N,None,Y,,,,,,,Female,20,
37,8,415,3,3,9,['k'],['k'],Y,N,None,Y,,,,,,,Female,20,
37,9,416,1,1,9,['k'],['k'],Y,N,None,Y,,,,,,,Female,20,
37,10,417,9,9,9,['d'],['d'],Y,N,None,Y,,,,,,,Female,20,
38,0,418,4,4,9,['k'],['k'],Y,Y,['space'],Y,,,,,,,Female,20,
38,1,419,0,0,9,['k'],['d'],N,Y,['space'],Y,,,,,,,Female,20,
38,2,420,9,9,9,['d'],['d'],Y,N,None,Y,,,,,,,Female,20,
38,3,421,0,0,9,['d'],['d'],Y,N,None,Y,,,,,,,Female,20,
38,4,422,6,6,9,['k'],['k'],Y,Y,['space'],Y,,,,,,,Female,20,
38,5,423,4,4,9,['k'],['d'],N,Y,['space'],Y,,,,,,,Female,20,
38,6,424,8,8,9,['d'],['d'],Y,N,None,Y,,,,,,,Female,20,
38,7,425,6,6,9,['k'],['k'],Y,N,None,Y,,,,,,,Female,20,
38,8,426,8,8,9,['k'],['k'],Y,N,None,Y,,,,,,,Female,20,
38,9,427,6,6,9,['d'],['d'],Y,N,None,Y,,,,,,,Female,20,
38,10,428,7,7,9,['d'],['d'],Y,Y,['space'],Y,,,,,,,Female,20,
39,0,429,2,2,9,['k'],['k'],Y,Y,None,N,,,,,,,Female,20,
39,1,430,9,9,9,['k'],['d'],N,N,None,Y,,,,,,,Female,20,
39,2,431,1,1,9,['k'],['k'],Y,Y,None,N,,,,,,,Female,20,
39,3,432,5,5,9,['k'],['k'],Y,N,None,Y,,,,,,,Female,20,
39,4,433,7,7,9,['d'],['d'],Y,Y,['space'],Y,,,,,,,Female,20,
39,5,434,2,2,9,['d'],['d'],Y,N,None,Y,,,,,,,Female,20,
39,6,435,8,8,9,['d'],['d'],Y,Y,['space'],Y,,,,,,,Female,20,
39,7,436,6,6,9,['d'],['d'],Y,Y,['space'],Y,,,,,,,Female,20,
39,8,437,1,1,9,['d'],['d'],Y,Y,['space'],Y,,,,,,,Female,20,
39,9,438,1,1,9,['k'],['k'],Y,N,None,Y,,,,,,,Female,20,
39,10,439,4,4,9,['k'],['k'],Y,N,None,Y,,,,,,,Female,20,
40,0,440,6,6,9,['d'],['d'],Y,Y,['space'],Y,,,,,,,Female,20,
40,1,441,2,2,9,['d'],['d'],Y,N,None,Y,,,,,,,Female,20,
40,2,442,7,7,9,['k'],['k'],Y,N,None,Y,,,,,,,Female,20,
40,3,443,3,3,9,['k'],['k'],Y,N,None,Y,,,,,,,Female,20,
40,4,444,7,7,9,['d'],['d'],Y,N,None,Y,,,,,,,Female,20,
40,5,445,6,6,9,['d'],['d'],Y,Y,['space'],Y,,,,,,,Female,20,
40,6,446,4,4,9,['d'],['d'],Y,Y,['space'],Y,,,,,,,Female,20,
40,7,447,6,6,9,['k'],['k'],Y,N,None,Y,,,,,,,Female,20,
40,8,448,0,0,9,['k'],['k'],Y,Y,['space'],Y,,,,,,,Female,20,
40,9,449,5,5,9,['k'],['k'],Y,Y,['space'],Y,46,43,22,,,,Female,20,
40,10,450,2,2,10,['d'],['d'],Y,,,,,,,,,,Female,20,
41,0,451,4,4,10,['d'],['d'],Y,,,,,,,,,,Female,20,
41,1,452,6,6,10,['k'],['k'],Y,Y,['space'],Y,,,,,,,Female,20,
41,2,453,9,9,10,['d'],['k'],N,N,None,Y,,,,,,,Female,20,
41,3,454,10,10,10,['k'],['k'],Y,Y,['space'],Y,,,,,,,Female,20,
41,4,455,7,7,10,['k'],['k'],Y,Y,['space'],Y,,,,,,,Female,20,
41,5,456,2,2,10,['d'],['d'],Y,Y,['space'],Y,,,,,,,Female,20,
41,6,457,10,10,10,['d'],['d'],Y,N,None,Y,,,,,,,Female,20,
41,7,458,5,5,10,['d'],['d'],Y,N,None,Y,,,,,,,Female,20,
41,8,459,4,4,10,['k'],['k'],Y,Y,['space'],Y,,,,,,,Female,20,
41,9,460,7,7,10,['d'],['d'],Y,N,None,Y,,,,,,,Female,20,
41,10,461,3,3,10,['d'],['d'],Y,N,None,Y,,,,,,,Female,20,
42,0,462,7,7,10,['k'],['d'],N,Y,['space'],Y,,,,,,,Female,20,
42,1,463,3,3,10,['d'],['d'],Y,N,None,Y,,,,,,,Female,20,
42,2,464,8,8,10,['d'],['d'],Y,N,None,Y,,,,,,,Female,20,
42,3,465,1,1,10,['d'],['d'],Y,N,None,Y,,,,,,,Female,20,
42,4,466,6,6,10,['d'],['d'],Y,Y,['space'],Y,,,,,,,Female,20,
42,5,467,4,4,10,['d'],['d'],Y,Y,['space'],Y,,,,,,,Female,20,
42,6,468,1,1,10,['d'],['d'],Y,N,None,Y,,,,,,,Female,20,
42,7,469,5,5,10,['k'],['k'],Y,Y,['space'],Y,,,,,,,Female,20,
42,8,470,2,2,10,['d'],['d'],Y,N,None,Y,,,,,,,Female,20,
42,9,471,2,2,10,['k'],['k'],Y,Y,['space'],Y,,,,,,,Female,20,
42,10,472,9,9,10,['k'],['k'],Y,N,None,Y,,,,,,,Female,20,
43,0,473,8,8,10,['k'],['k'],Y,Y,['space'],Y,,,,,,,Female,20,
43,1,474,2,2,10,['k'],['k'],Y,N,None,Y,,,,,,,Female,20,
43,2,475,4,4,10,['k'],['k'],Y,Y,['space'],Y,,,,,,,Female,20,
43,3,476,5,5,10,['d'],['d'],Y,N,None,Y,,,,,,,Female,20,
43,4,477,0,0,10,['k'],['k'],Y,Y,['space'],Y,,,,,,,Female,20,
43,5,478,4,4,10,['k'],['k'],Y,N,None,Y,,,,,,,Female,20,
43,6,479,4,4,10,['d'],['d'],Y,Y,['space'],Y,,,,,,,Female,20,
43,7,480,8,8,10,['d'],['d'],Y,N,None,Y,,,,,,,Female,20,
43,8,481,9,9,10,['k'],['k'],Y,N,None,Y,,,,,,,Female,20,
43,9,482,6,6,10,['d'],['d'],Y,N,None,Y,,,,,,,Female,20,
43,10,483,3,3,10,['d'],['d'],Y,N,None,Y,,,,,,,Female,20,
44,0,484,9,9,10,['d'],['d'],Y,Y,['space'],Y,,,,,,,Female,20,
44,1,485,2,2,10,['d'],['d'],Y,N,None,Y,,,,,,,Female,20,
44,2,486,1,1,10,['d'],['d'],Y,N,None,Y,,,,,,,Female,20,
44,3,487,0,0,10,['d'],['d'],Y,Y,['d'],N,,,,,,,Female,20,
44,4,488,6,6,10,['k'],['k'],Y,N,None,Y,,,,,,,Female,20,
44,5,489,0,0,10,['d'],['d'],Y,Y,None,N,,,,,,,Female,20,
44,6,490,5,5,10,['d'],['d'],Y,N,None,Y,,,,,,,Female,20,
44,7,491,3,3,10,['k'],['k'],Y,Y,['space'],Y,,,,,,,Female,20,
44,8,492,8,8,10,['k'],['k'],Y,N,None,Y,,,,,,,Female,20,
44,9,493,5,5,10,['d'],['d'],Y,Y,['space'],Y,,,,,,,Female,20,
44,10,494,3,3,10,['k'],['k'],Y,Y,['space'],Y,,,,,,,Female,20,
45,0,495,7,7,10,['d'],['d'],Y,N,None,Y,,,,,,,Female,20,
45,1,496,0,0,10,['d'],['k'],N,Y,['space'],Y,,,,,,,Female,20,
45,2,497,8,8,10,['d'],['d'],Y,Y,['space'],Y,,,,,,,Female,20,
45,3,498,9,9,10,['d'],['d'],Y,Y,['space'],Y,,,,,,,Female,20,
45,4,499,6,6,10,['d'],['d'],Y,N,None,Y,47,46,23,,,,Female,20,
45,5,500,5,5,11,['k'],['d'],Y,,,,,,,Y,Y,Y,Female,20,
45,6,501,4,4,11,['d'],['d'],N,,,,,,,,Y,Y,Female,20,
45,7,502,2,2,11,['d'],['k'],Y,Y,['space'],Y,,,,,Y,Y,Female,20,
45,8,503,3,3,11,['d'],['k'],Y,Y,['space'],Y,,,,,Y,Y,Female,20,
45,9,504,10,10,11,['d'],['k'],Y,Y,['space'],Y,,,,,Y,Y,Female,20,
45,10,505,1,1,11,['d'],['k'],Y,Y,['space'],Y,,,,,Y,Y,Female,20,
46,0,506,8,8,11,['k'],['d'],Y,Y,['space'],Y,,,,,Y,Y,Female,20,
46,1,507,10,10,11,['d'],['k'],Y,Y,['space'],Y,,,,,Y,Y,Female,20,
46,2,508,5,5,11,['d'],['k'],Y,Y,['space'],Y,,,,,Y,Y,Female,20,
46,3,509,4,4,11,['d'],['k'],Y,N,None,Y,,,,,Y,Y,Female,20,
46,4,510,3,3,11,['d'],['k'],Y,Y,['space'],Y,,,,,Y,Y,Female,20,
46,5,511,1,1,11,['k'],['d'],Y,N,None,Y,,,,,Y,Y,Female,20,
46,6,512,0,0,11,['k'],['d'],Y,Y,['space'],Y,,,,,Y,Y,Female,20,
46,7,513,9,9,11,['d'],['k'],Y,N,None,Y,,,,,Y,Y,Female,20,
46,8,514,6,6,11,['k'],['d'],Y,Y,['space'],Y,,,,,Y,Y,Female,20,
46,9,515,5,5,11,['k'],['d'],Y,Y,['space'],Y,,,,,Y,Y,Female,20,
46,10,516,4,4,11,['k'],['d'],Y,N,None,Y,,,,,Y,Y,Female,20,
47,0,517,10,10,11,['d'],['k'],Y,Y,['space'],Y,,,,,Y,Y,Female,20,
47,1,518,4,4,11,['k'],['d'],Y,Y,['space'],Y,,,,,Y,Y,Female,20,
47,2,519,9,9,11,['k'],['d'],Y,Y,['space'],Y,,,,,Y,Y,Female,20,
47,3,520,5,5,11,['k'],['d'],Y,N,None,Y,,,,,Y,Y,Female,20,
47,4,521,7,7,11,['d'],['k'],Y,N,None,Y,,,,,Y,Y,Female,20,
47,5,522,6,6,11,['d'],['k'],Y,Y,['space'],Y,,,,,Y,Y,Female,20,
47,6,523,2,2,11,['d'],['k'],Y,Y,['space'],Y,,,,,Y,Y,Female,20,
47,7,524,8,8,11,['k'],['d'],Y,N,None,Y,,,,,Y,Y,Female,20,
47,8,525,7,7,11,['d'],['k'],Y,Y,['space'],Y,,,,,Y,Y,Female,20,
47,9,526,4,4,11,['d'],['d'],N,Y,None,N,,,,,Y,Y,Female,20,
47,10,527,9,9,11,['k'],['d'],Y,N,None,Y,,,,,Y,Y,Female,20,
48,0,528,8,8,11,['d'],['k'],Y,Y,['space'],Y,,,,,Y,Y,Female,20,
48,1,529,2,2,11,['d'],['k'],Y,Y,['space'],Y,,,,,Y,Y,Female,20,
48,2,530,7,7,11,['d'],['k'],Y,N,None,Y,,,,,Y,Y,Female,20,
48,3,531,2,2,11,['d'],['k'],Y,Y,['space'],Y,,,,,Y,Y,Female,20,
48,4,532,7,7,11,['d'],['k'],Y,N,None,Y,,,,,Y,Y,Female,20,
48,5,533,7,7,11,['k'],['k'],N,N,None,Y,,,,,Y,Y,Female,20,
48,6,534,1,1,11,['d'],['k'],Y,Y,['space'],Y,,,,,Y,Y,Female,20,
48,7,535,0,0,11,['k'],['k'],N,N,None,Y,,,,,Y,Y,Female,20,
48,8,536,6,6,11,['d'],['k'],Y,N,None,Y,,,,,Y,Y,Female,20,
48,9,537,6,6,11,['k'],['d'],Y,N,None,Y,,,,,Y,Y,Female,20,
48,10,538,3,3,11,['k'],['d'],Y,N,None,Y,,,,,Y,Y,Female,20,
49,0,539,4,4,11,['d'],['k'],Y,Y,['space'],Y,,,,,Y,Y,Female,20,
49,1,540,3,3,11,['k'],['d'],Y,Y,['space'],Y,,,,,Y,Y,Female,20,
49,2,541,3,3,11,['k'],['d'],Y,Y,['d'],N,,,,,Y,Y,Female,20,
49,3,542,2,2,11,['d'],['k'],Y,N,None,Y,,,,,Y,Y,Female,20,
49,4,543,6,6,11,['k'],['d'],Y,N,None,Y,,,,,Y,Y,Female,20,
49,5,544,2,2,11,['d'],['k'],Y,N,None,Y,,,,,Y,Y,Female,20,
49,6,545,4,4,11,['d'],['k'],Y,N,None,Y,,,,,Y,Y,Female,20,
49,7,546,8,8,11,['d'],['k'],Y,N,None,Y,,,,,Y,Y,Female,20,
49,8,547,9,9,11,['k'],['d'],Y,N,None,Y,,,,,Y,Y,Female,20,
49,9,548,3,3,11,['d'],['k'],Y,N,None,Y,,,,,Y,Y,Female,20,
49,10,549,8,8,11,['k'],['d'],Y,N,None,Y,46,46,25,,Y,Y,Female,20,
50,0,550,2,2,12,['d'],['k'],Y,,,,,,,,Y,Y,Female,20,
50,1,551,3,3,12,['d'],['k'],Y,,,,,,,,Y,Y,Female,20,
50,2,552,3,3,12,['d'],['k'],Y,N,None,Y,,,,,Y,Y,Female,20,
50,3,553,8,8,12,['d'],['k'],Y,Y,['space'],Y,,,,,Y,Y,Female,20,
50,4,554,7,7,12,['d'],['k'],Y,N,None,Y,,,,,Y,Y,Female,20,
50,5,555,0,0,12,['d'],['d'],N,N,None,Y,,,,,Y,Y,Female,20,
50,6,556,2,2,12,['d'],['k'],Y,N,None,Y,,,,,Y,Y,Female,20,
50,7,557,7,7,12,['d'],['d'],N,Y,['space'],Y,,,,,Y,Y,Female,20,
50,8,558,4,4,12,['k'],['d'],Y,N,None,Y,,,,,Y,Y,Female,20,
50,9,559,8,8,12,['d'],['k'],Y,Y,['space'],Y,,,,,Y,Y,Female,20,
50,10,560,7,7,12,['k'],['d'],Y,N,None,Y,,,,,Y,Y,Female,20,
51,0,561,6,6,12,['d'],['k'],Y,N,None,Y,,,,,Y,Y,Female,20,
51,1,562,6,6,12,['d'],['d'],N,N,None,Y,,,,,Y,Y,Female,20,
51,2,563,9,9,12,['d'],['k'],Y,N,None,Y,,,,,Y,Y,Female,20,
51,3,564,10,10,12,['k'],['d'],Y,N,None,Y,,,,,Y,Y,Female,20,
51,4,565,1,1,12,['d'],['d'],N,Y,['space'],Y,,,,,Y,Y,Female,20,
51,5,566,0,0,12,['d'],['k'],Y,N,None,Y,,,,,Y,Y,Female,20,
51,6,567,6,6,12,['d'],['k'],Y,Y,['space'],Y,,,,,Y,Y,Female,20,
51,7,568,10,10,12,['d'],['k'],Y,N,None,Y,,,,,Y,Y,Female,20,
51,8,569,3,3,12,['k'],['d'],Y,Y,['space'],Y,,,,,Y,Y,Female,20,
51,9,570,10,10,12,['d'],['k'],Y,N,None,Y,,,,,Y,Y,Female,20,
51,10,571,0,0,12,['d'],['k'],Y,N,None,Y,,,,,Y,Y,Female,20,
52,0,572,4,4,12,['k'],['d'],Y,Y,['space'],Y,,,,,Y,Y,Female,20,
52,1,573,8,8,12,['k'],['d'],Y,N,None,Y,,,,,Y,Y,Female,20,
52,2,574,6,6,12,['d'],['k'],Y,Y,['space'],Y,,,,,Y,Y,Female,20,
52,3,575,2,2,12,['k'],['d'],Y,Y,['space'],Y,,,,,Y,Y,Female,20,
52,4,576,7,7,12,['d'],['d'],N,N,None,Y,,,,,Y,Y,Female,20,
52,5,577,8,8,12,['d'],['k'],Y,N,None,Y,,,,,Y,Y,Female,20,
52,6,578,8,8,12,['d'],['k'],Y,Y,['space'],Y,,,,,Y,Y,Female,20,
52,7,579,3,3,12,['d'],['k'],Y,Y,['space'],Y,,,,,Y,Y,Female,20,
52,8,580,7,7,12,['k'],['d'],Y,Y,['space'],Y,,,,,Y,Y,Female,20,
52,9,581,8,8,12,['d'],['k'],Y,Y,['space'],Y,,,,,Y,Y,Female,20,
52,10,582,5,5,12,['d'],['d'],N,Y,['space'],Y,,,,,Y,Y,Female,20,
53,0,583,5,5,12,['d'],['k'],Y,Y,['space'],Y,,,,,Y,Y,Female,20,
53,1,584,8,8,12,['d'],['k'],Y,N,None,Y,,,,,Y,Y,Female,20,
53,2,585,1,1,12,['k'],['d'],Y,N,None,Y,,,,,Y,Y,Female,20,
53,3,586,5,5,12,['k'],['d'],Y,Y,['space'],Y,,,,,Y,Y,Female,20,
53,4,587,4,4,12,['k'],['d'],Y,N,None,Y,,,,,Y,Y,Female,20,
53,5,588,3,3,12,['d'],['k'],Y,Y,['space'],Y,,,,,Y,Y,Female,20,
53,6,589,5,5,12,['k'],['d'],Y,Y,['space'],Y,,,,,Y,Y,Female,20,
53,7,590,2,2,12,['k'],['d'],Y,N,None,Y,,,,,Y,Y,Female,20,
53,8,591,2,2,12,['d'],['k'],Y,Y,['space'],Y,,,,,Y,Y,Female,20,
53,9,592,9,9,12,['k'],['d'],Y,Y,['space'],Y,,,,,Y,Y,Female,20,
53,10,593,2,2,12,['d'],['k'],Y,N,['space'],N,,,,,Y,Y,Female,20,
54,0,594,9,9,12,['d'],['k'],Y,Y,None,N,,,,,Y,Y,Female,20,
54,1,595,3,3,12,['d'],['k'],Y,N,None,Y,,,,,Y,Y,Female,20,
54,2,596,3,3,12,['d'],['k'],Y,N,None,Y,,,,,Y,Y,Female,20,
54,3,597,7,7,12,['k'],['d'],Y,Y,['space'],Y,,,,,Y,Y,Female,20,
54,4,598,10,10,12,['d'],['k'],Y,Y,['space'],Y,,,,,Y,Y,Female,20,
54,5,599,1,1,12,['d'],['k'],Y,Y,['space'],Y,44,46,24,,Y,Y,Female,20,
