.thisRepN,.thisTrialN,.thisN,.thisIndex,.thisTrial,Block Number,Key pressed,Correct?,Category,Int Match?,Int Response,Int Correct?,Line Accuracy,Interference Accuracy,Matching Interferences,New instruction shown?,Buttons switched?,Fast?,gender,age,
0,0,0,4,4,1,None,Timed out,,,,,,,,,,,female,21,
0,1,1,0,0,1,['k'],Y,['k'],,,,,,,,,,female,21,
0,2,2,1,1,1,None,Timed out,,Y,None,N,,,,,,,female,21,
0,3,3,0,0,1,['k'],Y,['k'],Y,None,N,,,,,,,female,21,
0,4,4,9,9,1,['d'],Y,['d'],Y,None,N,,,,,,,female,21,
0,5,5,5,5,1,['k'],N,['d'],N,None,Y,,,,,,,female,21,
0,6,6,3,3,1,['d'],N,['k'],Y,['space'],Y,,,,,,,female,21,
0,7,7,2,2,1,['k'],Y,['k'],N,['space'],N,,,,,,,female,21,
0,8,8,8,8,1,['k'],Y,['k'],Y,['space'],Y,,,,,,,female,21,
0,9,9,6,6,1,['k'],Y,['k'],N,None,Y,,,,,,,female,21,
0,10,10,7,7,1,['d'],N,['k'],Y,['space'],Y,,,,,,,female,21,
1,0,11,2,2,1,['k'],Y,['k'],N,['space'],N,,,,,,,female,21,
1,1,12,0,0,1,['k'],Y,['k'],N,['space'],N,,,,,,,female,21,
1,2,13,2,2,1,['k'],N,['d'],N,None,Y,,,,,,,female,21,
1,3,14,5,5,1,['d'],Y,['d'],N,None,Y,,,,,,,female,21,
1,4,15,7,7,1,['k'],N,['d'],Y,['k'],N,,,,,,,female,21,
1,5,16,9,9,1,['k'],N,['d'],Y,None,N,,,,,,,female,21,
1,6,17,6,6,1,['d'],Y,['d'],N,['space'],N,,,,,,,female,21,
1,7,18,8,8,1,['k'],N,['d'],Y,None,N,,,,,,,female,21,
1,8,19,10,10,1,['k'],Y,['k'],N,['space'],N,,,,,,,female,21,
1,9,20,1,1,1,['k'],N,['d'],Y,['space'],Y,,,,,,,female,21,
1,10,21,8,8,1,['k'],Y,['k'],Y,['space'],Y,,,,,,,female,21,
2,0,22,8,8,1,['k'],N,['d'],N,None,Y,,,,,,,female,21,
2,1,23,1,1,1,['k'],N,['d'],N,None,Y,,,,,,,female,21,
2,2,24,7,7,1,['k'],Y,['k'],Y,None,N,,,,,,,female,21,
2,3,25,3,3,1,['k'],Y,['k'],Y,None,N,,,,,,,female,21,
2,4,26,10,10,1,['k'],Y,['k'],N,None,Y,,,,,,,female,21,
2,5,27,5,5,1,['k'],N,['d'],N,['space'],N,,,,,,,female,21,
2,6,28,6,6,1,['k'],N,['d'],N,None,Y,,,,,,,female,21,
2,7,29,6,6,1,['k'],N,['d'],N,['space'],N,,,,,,,female,21,
2,8,30,5,5,1,['k'],N,['d'],Y,None,N,,,,,,,female,21,
2,9,31,5,5,1,['d'],N,['k'],N,None,Y,,,,,,,female,21,
2,10,32,1,1,1,['k'],N,['d'],N,None,Y,,,,,,,female,21,
3,0,33,4,4,1,['d'],N,['k'],N,['space'],N,,,,,,,female,21,
3,1,34,1,1,1,['k'],Y,['k'],N,['space'],N,,,,,,,female,21,
3,2,35,3,3,1,['k'],Y,['k'],Y,['space'],Y,,,,,,,female,21,
3,3,36,1,1,1,['k'],Y,['k'],Y,['space'],Y,,,,,,,female,21,
3,4,37,5,5,1,['k'],Y,['k'],N,['space'],N,,,,,,,female,21,
3,5,38,2,2,1,['k'],Y,['k'],N,['space'],N,,,,,,,female,21,
3,6,39,8,8,1,['d'],N,['k'],Y,['space'],Y,,,,,,,female,21,
3,7,40,2,2,1,['k'],Y,['k'],N,None,Y,,,,,,,female,21,
3,8,41,10,10,1,['k'],N,['d'],N,['space'],N,,,,,,,female,21,
3,9,42,0,0,1,['k'],N,['d'],N,['d'],N,,,,,,,female,21,
3,10,43,0,0,1,['d'],Y,['d'],Y,['space'],Y,,,,,,,female,21,
4,0,44,2,2,1,['k'],N,['d'],Y,['k'],N,,,,,,,female,21,
4,1,45,8,8,1,['d'],N,['k'],Y,['space'],Y,,,,,,,female,21,
4,2,46,9,9,1,['k'],Y,['k'],N,['space'],N,,,,,,,female,21,
4,3,47,2,2,1,['d'],Y,['d'],N,['k'],N,,,,,,,female,21,
4,4,48,10,10,1,['k'],N,['d'],N,['space'],N,,,,,,,female,21,
4,5,49,9,9,1,['k'],N,['d'],Y,None,N,24,21,21,,,,female,21,
4,6,50,4,4,2,['d'],Y,['d'],,,,,,,,,,female,21,
4,7,51,2,2,2,['k'],N,['d'],,,,,,,,,,female,21,
4,8,52,10,10,2,['d'],Y,['d'],N,['space'],N,,,,,,,female,21,
4,9,53,9,9,2,['k'],N,['d'],N,None,Y,,,,,,,female,21,
4,10,54,8,8,2,['d'],N,['k'],N,None,Y,,,,,,,female,21,
5,0,55,3,3,2,['k'],Y,['k'],Y,['space'],Y,,,,,,,female,21,
5,1,56,3,3,2,['k'],Y,['k'],Y,['space'],Y,,,,,,,female,21,
5,2,57,10,10,2,['k'],Y,['k'],N,['space'],N,,,,,,,female,21,
5,3,58,0,0,2,['d'],Y,['d'],N,None,Y,,,,,,,female,21,
5,4,59,9,9,2,['d'],Y,['d'],Y,None,N,,,,,,,female,21,
5,5,60,7,7,2,['k'],Y,['k'],Y,['k'],N,,,,,,,female,21,
5,6,61,2,2,2,['d'],Y,['d'],N,None,Y,,,,,,,female,21,
5,7,62,6,6,2,['k'],N,['d'],Y,['space'],Y,,,,,,,female,21,
5,8,63,9,9,2,['d'],Y,['d'],N,None,Y,,,,,,,female,21,
5,9,64,5,5,2,['k'],Y,['k'],Y,['space'],Y,,,,,,,female,21,
5,10,65,6,6,2,['d'],Y,['d'],N,None,Y,,,,,,,female,21,
6,0,66,1,1,2,['k'],N,['d'],N,None,Y,,,,,,,female,21,
6,1,67,1,1,2,['d'],Y,['d'],Y,['space'],Y,,,,,,,female,21,
6,2,68,9,9,2,['k'],Y,['k'],Y,['space'],Y,,,,,,,female,21,
6,3,69,8,8,2,['d'],N,['k'],N,None,Y,,,,,,,female,21,
6,4,70,2,2,2,['k'],N,['d'],N,None,Y,,,,,,,female,21,
6,5,71,8,8,2,['d'],N,['k'],Y,['d'],N,,,,,,,female,21,
6,6,72,2,2,2,['k'],N,['d'],Y,['space'],Y,,,,,,,female,21,
6,7,73,10,10,2,['d'],N,['k'],N,None,Y,,,,,,,female,21,
6,8,74,10,10,2,['k'],N,['d'],N,None,Y,,,,,,,female,21,
6,9,75,1,1,2,['k'],N,['d'],Y,None,N,,,,,,,female,21,
6,10,76,4,4,2,['d'],N,['k'],N,['space'],N,,,,,,,female,21,
7,0,77,9,9,2,['k'],N,['d'],N,None,Y,,,,,,,female,21,
7,1,78,3,3,2,['d'],N,['k'],Y,['space'],Y,,,,,,,female,21,
7,2,79,7,7,2,['k'],Y,['k'],Y,None,N,,,,,,,female,21,
7,3,80,10,10,2,['k'],Y,['k'],N,['space'],N,,,,,,,female,21,
7,4,81,4,4,2,['d'],N,['k'],N,None,Y,,,,,,,female,21,
7,5,82,2,2,2,['k'],N,['d'],N,None,Y,,,,,,,female,21,
7,6,83,0,0,2,['d'],N,['k'],Y,['space'],Y,,,,,,,female,21,
7,7,84,3,3,2,['k'],Y,['k'],Y,['k'],N,,,,,,,female,21,
7,8,85,1,1,2,['d'],Y,['d'],Y,['space'],Y,,,,,,,female,21,
7,9,86,7,7,2,['k'],N,['d'],Y,['space'],Y,,,,,,,female,21,
7,10,87,0,0,2,['d'],Y,['d'],N,['d'],N,,,,,,,female,21,
8,0,88,5,5,2,['d'],N,['k'],Y,['space'],Y,,,,,,,female,21,
8,1,89,9,9,2,['k'],Y,['k'],Y,['space'],Y,,,,,,,female,21,
8,2,90,8,8,2,['k'],Y,['k'],N,None,Y,,,,,,,female,21,
8,3,91,3,3,2,['d'],N,['k'],N,None,Y,,,,,,,female,21,
8,4,92,7,7,2,['k'],N,['d'],Y,None,N,,,,,,,female,21,
8,5,93,6,6,2,['k'],Y,['k'],N,None,Y,,,,,,,female,21,
8,6,94,3,3,2,['k'],Y,['k'],N,['space'],N,,,,,,,female,21,
8,7,95,3,3,2,['k'],N,['d'],Y,None,N,,,,,,,female,21,
8,8,96,7,7,2,['d'],N,['k'],N,['space'],N,,,,,,,female,21,
8,9,97,6,6,2,['k'],N,['d'],Y,['space'],Y,,,,,,,female,21,
8,10,98,4,4,2,['d'],Y,['d'],N,['space'],N,,,,,,,female,21,
9,0,99,0,0,2,['k'],Y,['k'],N,['space'],N,25,31,22,,,,female,21,
9,1,100,9,9,3,['k'],N,['d'],,,,,,,,,,female,21,
9,2,101,7,7,3,['d'],N,['k'],,,,,,,,,,female,21,
9,3,102,2,2,3,['k'],Y,['k'],N,None,Y,,,,,,,female,21,
9,4,103,6,6,3,['k'],N,['d'],N,None,Y,,,,,,,female,21,
9,5,104,0,0,3,['k'],Y,['k'],Y,['space'],Y,,,,,,,female,21,
9,6,105,5,5,3,['d'],Y,['d'],N,None,Y,,,,,,,female,21,
9,7,106,6,6,3,['k'],Y,['k'],N,['space'],N,,,,,,,female,21,
9,8,107,9,9,3,['k'],Y,['k'],Y,None,N,,,,,,,female,21,
9,9,108,2,2,3,['d'],Y,['d'],N,['space'],N,,,,,,,female,21,
9,10,109,0,0,3,['k'],N,['d'],N,None,Y,,,,,,,female,21,
10,0,110,1,1,3,['k'],N,['d'],N,None,Y,,,,,,,female,21,
10,1,111,5,5,3,['d'],Y,['d'],Y,['space'],Y,,,,,,,female,21,
10,2,112,2,2,3,['d'],Y,['d'],N,None,Y,,,,,,,female,21,
10,3,113,9,9,3,['k'],N,['d'],N,None,Y,,,,,,,female,21,
10,4,114,9,9,3,['k'],Y,['k'],Y,None,N,,,,,,,female,21,
10,5,115,7,7,3,['d'],Y,['d'],N,None,Y,,,,,,,female,21,
10,6,116,8,8,3,['k'],N,['d'],Y,['k'],N,,,,,,,female,21,
10,7,117,1,1,3,['d'],N,['k'],Y,None,N,,,,,,,female,21,
10,8,118,10,10,3,['k'],Y,['k'],N,None,Y,,,,,,,female,21,
10,9,119,8,8,3,['k'],N,['d'],N,None,Y,,,,,,,female,21,
10,10,120,1,1,3,['d'],N,['k'],N,['space'],N,,,,,,,female,21,
11,0,121,3,3,3,['k'],N,['d'],N,['k'],N,,,,,,,female,21,
11,1,122,5,5,3,['k'],Y,['k'],N,['space'],N,,,,,,,female,21,
11,2,123,1,1,3,['d'],Y,['d'],Y,None,N,,,,,,,female,21,
11,3,124,8,8,3,['k'],Y,['k'],N,None,Y,,,,,,,female,21,
11,4,125,10,10,3,['k'],N,['d'],Y,['space'],Y,,,,,,,female,21,
11,5,126,1,1,3,['d'],Y,['d'],N,None,Y,,,,,,,female,21,
11,6,127,9,9,3,['k'],N,['d'],N,None,Y,,,,,,,female,21,
11,7,128,3,3,3,['d'],N,['k'],Y,['space'],Y,,,,,,,female,21,
11,8,129,9,9,3,['k'],Y,['k'],N,None,Y,,,,,,,female,21,
11,9,130,10,10,3,['k'],N,['d'],N,None,Y,,,,,,,female,21,
11,10,131,7,7,3,['d'],Y,['d'],Y,['space'],Y,,,,,,,female,21,
12,0,132,7,7,3,['k'],Y,['k'],Y,['space'],Y,,,,,,,female,21,
12,1,133,3,3,3,['k'],N,['d'],Y,['space'],Y,,,,,,,female,21,
12,2,134,6,6,3,['k'],Y,['k'],Y,['d'],N,,,,,,,female,21,
12,3,135,7,7,3,['k'],Y,['k'],N,None,Y,,,,,,,female,21,
12,4,136,4,4,3,['d'],Y,['d'],Y,['space'],Y,,,,,,,female,21,
12,5,137,9,9,3,['k'],N,['d'],N,['space'],N,,,,,,,female,21,
12,6,138,10,10,3,['k'],N,['d'],N,None,Y,,,,,,,female,21,
12,7,139,5,5,3,['d'],N,['k'],N,None,Y,,,,,,,female,21,
12,8,140,1,1,3,['k'],N,['d'],N,None,Y,,,,,,,female,21,
12,9,141,6,6,3,['k'],N,['d'],N,None,Y,,,,,,,female,21,
12,10,142,10,10,3,['d'],N,['k'],N,['space'],N,,,,,,,female,21,
13,0,143,5,5,3,['k'],N,['d'],N,None,Y,,,,,,,female,21,
13,1,144,2,2,3,['d'],Y,['d'],Y,['space'],Y,,,,,,,female,21,
13,2,145,1,1,3,['k'],Y,['k'],Y,None,N,,,,,,,female,21,
13,3,146,5,5,3,['k'],Y,['k'],Y,['space'],Y,,,,,,,female,21,
13,4,147,9,9,3,['k'],N,['d'],Y,['k'],N,,,,,,,female,21,
13,5,148,0,0,3,['k'],N,['d'],N,['space'],N,,,,,,,female,21,
13,6,149,1,1,3,['d'],Y,['d'],N,None,Y,25,32,18,,,,female,21,
13,7,150,2,2,4,['k'],N,['d'],,,,,,,,,,female,21,
13,8,151,0,0,4,['d'],N,['k'],,,,,,,,,,female,21,
13,9,152,8,8,4,['k'],Y,['k'],N,None,Y,,,,,,,female,21,
13,10,153,5,5,4,['k'],N,['d'],N,None,Y,,,,,,,female,21,
14,0,154,9,9,4,['d'],N,['k'],N,None,Y,,,,,,,female,21,
14,1,155,5,5,4,['k'],Y,['k'],N,None,Y,,,,,,,female,21,
14,2,156,8,8,4,['d'],N,['k'],Y,['space'],Y,,,,,,,female,21,
14,3,157,2,2,4,['k'],N,['d'],N,None,Y,,,,,,,female,21,
14,4,158,3,3,4,['k'],N,['d'],N,['d'],N,,,,,,,female,21,
14,5,159,3,3,4,['k'],Y,['k'],Y,['d'],N,,,,,,,female,21,
14,6,160,9,9,4,['k'],N,['d'],Y,None,N,,,,,,,female,21,
14,7,161,2,2,4,['d'],N,['k'],N,None,Y,,,,,,,female,21,
14,8,162,5,5,4,['k'],Y,['k'],Y,['space'],Y,,,,,,,female,21,
14,9,163,1,1,4,['k'],Y,['k'],Y,['space'],Y,,,,,,,female,21,
14,10,164,9,9,4,['d'],N,['k'],N,None,Y,,,,,,,female,21,
15,0,165,6,6,4,['k'],Y,['k'],N,None,Y,,,,,,,female,21,
15,1,166,4,4,4,['k'],Y,['k'],Y,None,N,,,,,,,female,21,
15,2,167,2,2,4,['k'],N,['d'],Y,None,N,,,,,,,female,21,
15,3,168,4,4,4,['k'],Y,['k'],N,None,Y,,,,,,,female,21,
15,4,169,8,8,4,['k'],Y,['k'],Y,None,N,,,,,,,female,21,
15,5,170,2,2,4,['k'],Y,['k'],N,None,Y,,,,,,,female,21,
15,6,171,7,7,4,['k'],Y,['k'],N,['space'],N,,,,,,,female,21,
15,7,172,8,8,4,['d'],Y,['d'],N,None,Y,,,,,,,female,21,
15,8,173,9,9,4,['d'],Y,['d'],Y,None,N,,,,,,,female,21,
15,9,174,4,4,4,['k'],Y,['k'],Y,['k'],N,,,,,,,female,21,
15,10,175,7,7,4,['k'],N,['d'],Y,['space'],Y,,,,,,,female,21,
16,0,176,6,6,4,['k'],N,['d'],Y,['space'],Y,,,,,,,female,21,
16,1,177,6,6,4,['k'],N,['d'],N,['space'],N,,,,,,,female,21,
16,2,178,10,10,4,['k'],Y,['k'],N,['k'],N,,,,,,,female,21,
16,3,179,3,3,4,['k'],Y,['k'],N,None,Y,,,,,,,female,21,
16,4,180,0,0,4,['k'],Y,['k'],Y,['k'],N,,,,,,,female,21,
16,5,181,1,1,4,['k'],Y,['k'],Y,['space'],Y,,,,,,,female,21,
16,6,182,10,10,4,['k'],Y,['k'],N,None,Y,,,,,,,female,21,
16,7,183,0,0,4,['k'],N,['d'],Y,None,N,,,,,,,female,21,
16,8,184,3,3,4,['k'],Y,['k'],N,['space'],N,,,,,,,female,21,
16,9,185,1,1,4,['k'],N,['d'],N,None,Y,,,,,,,female,21,
16,10,186,9,9,4,['k'],Y,['k'],Y,['space'],Y,,,,,,,female,21,
17,0,187,6,6,4,['k'],N,['d'],N,None,Y,,,,,,,female,21,
17,1,188,10,10,4,['k'],Y,['k'],N,['space'],N,,,,,,,female,21,
17,2,189,9,9,4,['d'],Y,['d'],N,None,Y,,,,,,,female,21,
17,3,190,1,1,4,['k'],Y,['k'],N,['space'],N,,,,,,,female,21,
17,4,191,6,6,4,['k'],Y,['k'],Y,['space'],Y,,,,,,,female,21,
17,5,192,4,4,4,['k'],N,['d'],Y,['space'],Y,,,,,,,female,21,
17,6,193,4,4,4,['k'],Y,['k'],N,None,Y,,,,,,,female,21,
17,7,194,7,7,4,['k'],Y,['k'],N,None,Y,,,,,,,female,21,
17,8,195,10,10,4,['k'],Y,['k'],Y,['space'],Y,,,,,,,female,21,
17,9,196,7,7,4,['d'],N,['k'],N,None,Y,,,,,,,female,21,
17,10,197,10,10,4,['k'],N,['d'],N,['space'],N,,,,,,,female,21,
18,0,198,1,1,4,['k'],Y,['k'],N,['space'],N,,,,,,,female,21,
18,1,199,4,4,4,['k'],Y,['k'],Y,None,N,30,29,20,,,,female,21,
18,2,200,4,4,5,['k'],Y,['k'],,,,,,,,,,female,21,
18,3,201,4,4,5,['k'],Y,['k'],,,,,,,,,,female,21,
18,4,202,3,3,5,['k'],Y,['k'],Y,['space'],Y,,,,,,,female,21,
18,5,203,7,7,5,['d'],Y,['d'],N,None,Y,,,,,,,female,21,
18,6,204,5,5,5,['k'],Y,['k'],N,None,Y,,,,,,,female,21,
18,7,205,3,3,5,['k'],N,['d'],N,None,Y,,,,,,,female,21,
18,8,206,5,5,5,['d'],N,['k'],N,None,Y,,,,,,,female,21,
18,9,207,10,10,5,['k'],N,['d'],Y,['space'],Y,,,,,,,female,21,
18,10,208,7,7,5,['k'],Y,['k'],N,['k'],N,,,,,,,female,21,
19,0,209,5,5,5,['k'],Y,['k'],N,['space'],N,,,,,,,female,21,
19,1,210,9,9,5,['k'],N,['d'],N,None,Y,,,,,,,female,21,
19,2,211,5,5,5,['d'],Y,['d'],Y,['space'],Y,,,,,,,female,21,
19,3,212,3,3,5,['k'],Y,['k'],N,None,Y,,,,,,,female,21,
19,4,213,9,9,5,['k'],N,['d'],N,None,Y,,,,,,,female,21,
19,5,214,7,7,5,['k'],N,['d'],N,None,Y,,,,,,,female,21,
19,6,215,6,6,5,['d'],Y,['d'],Y,None,N,,,,,,,female,21,
19,7,216,10,10,5,['k'],Y,['k'],N,None,Y,,,,,,,female,21,
19,8,217,3,3,5,['k'],Y,['k'],Y,['space'],Y,,,,,,,female,21,
19,9,218,7,7,5,['k'],N,['d'],N,None,Y,,,,,,,female,21,
19,10,219,2,2,5,['k'],Y,['k'],Y,['space'],Y,,,,,,,female,21,
20,0,220,2,2,5,['k'],Y,['k'],N,None,Y,,,,,,,female,21,
20,1,221,8,8,5,['d'],Y,['d'],N,None,Y,,,,,,,female,21,
20,2,222,2,2,5,['k'],Y,['k'],N,None,Y,,,,,,,female,21,
20,3,223,10,10,5,['k'],N,['d'],Y,None,N,,,,,,,female,21,
20,4,224,10,10,5,['d'],N,['k'],N,['space'],N,,,,,,,female,21,
20,5,225,5,5,5,['k'],N,['d'],Y,['k'],N,,,,,,,female,21,
20,6,226,10,10,5,['k'],Y,['k'],N,['space'],N,,,,,,,female,21,
20,7,227,7,7,5,['k'],Y,['k'],Y,None,N,,,,,,,female,21,
20,8,228,3,3,5,['k'],N,['d'],N,['space'],N,,,,,,,female,21,
20,9,229,5,5,5,['d'],Y,['d'],Y,['k'],N,,,,,,,female,21,
20,10,230,3,3,5,['k'],Y,['k'],Y,['space'],Y,,,,,,,female,21,
21,0,231,4,4,5,['k'],N,['d'],N,None,Y,,,,,,,female,21,
21,1,232,9,9,5,['d'],Y,['d'],N,None,Y,,,,,,,female,21,
21,2,233,7,7,5,['k'],N,['d'],N,None,Y,,,,,,,female,21,
21,3,234,7,7,5,['k'],N,['d'],N,None,Y,,,,,,,female,21,
21,4,235,6,6,5,['k'],Y,['k'],N,None,Y,,,,,,,female,21,
21,5,236,2,2,5,['k'],N,['d'],N,['space'],N,,,,,,,female,21,
21,6,237,2,2,5,['k'],Y,['k'],N,['d'],N,,,,,,,female,21,
21,7,238,3,3,5,['k'],N,['d'],N,None,Y,,,,,,,female,21,
21,8,239,0,0,5,['k'],Y,['k'],Y,['space'],Y,,,,,,,female,21,
21,9,240,8,8,5,['k'],Y,['k'],Y,None,N,,,,,,,female,21,
21,10,241,3,3,5,['d'],N,['k'],Y,['space'],Y,,,,,,,female,21,
22,0,242,9,9,5,['k'],Y,['k'],Y,['space'],Y,,,,,,,female,21,
22,1,243,8,8,5,['k'],N,['d'],N,None,Y,,,,,,,female,21,
22,2,244,4,4,5,['k'],Y,['k'],Y,['space'],Y,,,,,,,female,21,
22,3,245,7,7,5,['d'],Y,['d'],N,['k'],N,,,,,,,female,21,
22,4,246,4,4,5,['k'],N,['d'],Y,None,N,,,,,,,female,21,
22,5,247,1,1,5,['k'],N,['d'],N,['space'],N,,,,,,,female,21,
22,6,248,1,1,5,['k'],Y,['k'],Y,['k'],N,,,,,,,female,21,
22,7,249,6,6,5,['d'],N,['k'],N,None,Y,29,31,18,,,,female,21,
22,8,250,6,6,6,['k'],N,['d'],,,,,,,,,,female,21,
22,9,251,5,5,6,['k'],N,['d'],,,,,,,,,,female,21,
22,10,252,1,1,6,['d'],Y,['d'],Y,['space'],Y,,,,,,,female,21,
23,0,253,0,0,6,['k'],Y,['k'],Y,['space'],Y,,,,,,,female,21,
23,1,254,7,7,6,['d'],N,['k'],Y,['space'],Y,,,,,,,female,21,
23,2,255,2,2,6,['k'],N,['d'],Y,None,N,,,,,,,female,21,
23,3,256,5,5,6,['k'],Y,['k'],N,['space'],N,,,,,,,female,21,
23,4,257,0,0,6,['k'],N,['d'],N,None,Y,,,,,,,female,21,
23,5,258,8,8,6,['d'],Y,['d'],Y,['space'],Y,,,,,,,female,21,
23,6,259,8,8,6,['k'],Y,['k'],Y,['space'],Y,,,,,,,female,21,
23,7,260,8,8,6,['k'],N,['d'],Y,['space'],Y,,,,,,,female,21,
23,8,261,8,8,6,['k'],N,['d'],N,None,Y,,,,,,,female,21,
23,9,262,8,8,6,['d'],N,['k'],N,None,Y,,,,,,,female,21,
23,10,263,10,10,6,['k'],N,['d'],N,None,Y,,,,,,,female,21,
24,0,264,1,1,6,['d'],N,['k'],Y,['space'],Y,,,,,,,female,21,
24,1,265,10,10,6,['k'],N,['d'],N,None,Y,,,,,,,female,21,
24,2,266,5,5,6,['k'],N,['d'],N,['space'],N,,,,,,,female,21,
24,3,267,6,6,6,['k'],Y,['k'],N,None,Y,,,,,,,female,21,
24,4,268,4,4,6,['k'],Y,['k'],Y,['k'],N,,,,,,,female,21,
24,5,269,10,10,6,['k'],N,['d'],N,['space'],N,,,,,,,female,21,
24,6,270,2,2,6,['k'],Y,['k'],Y,['space'],Y,,,,,,,female,21,
24,7,271,2,2,6,['k'],Y,['k'],N,None,Y,,,,,,,female,21,
24,8,272,6,6,6,['k'],N,['d'],Y,['space'],Y,,,,,,,female,21,
24,9,273,9,9,6,['k'],N,['d'],Y,['k'],N,,,,,,,female,21,
24,10,274,4,4,6,['k'],Y,['k'],N,['space'],N,,,,,,,female,21,
25,0,275,5,5,6,['k'],Y,['k'],N,['space'],N,,,,,,,female,21,
25,1,276,1,1,6,['k'],Y,['k'],N,None,Y,,,,,,,female,21,
25,2,277,4,4,6,['k'],Y,['k'],N,None,Y,,,,,,,female,21,
25,3,278,3,3,6,['k'],N,['d'],Y,['space'],Y,,,,,,,female,21,
25,4,279,5,5,6,['d'],Y,['d'],N,['space'],N,,,,,,,female,21,
25,5,280,2,2,6,['d'],Y,['d'],Y,['space'],Y,,,,,,,female,21,
25,6,281,6,6,6,['k'],N,['d'],N,None,Y,,,,,,,female,21,
25,7,282,0,0,6,['d'],Y,['d'],N,None,Y,,,,,,,female,21,
25,8,283,2,2,6,['k'],N,['d'],N,['space'],N,,,,,,,female,21,
25,9,284,5,5,6,['k'],Y,['k'],Y,['d'],N,,,,,,,female,21,
25,10,285,6,6,6,['k'],Y,['k'],Y,['space'],Y,,,,,,,female,21,
26,0,286,6,6,6,['k'],Y,['k'],N,None,Y,,,,,,,female,21,
26,1,287,3,3,6,['k'],N,['d'],Y,['space'],Y,,,,,,,female,21,
26,2,288,8,8,6,['d'],Y,['d'],Y,['space'],Y,,,,,,,female,21,
26,3,289,5,5,6,['k'],Y,['k'],N,['d'],N,,,,,,,female,21,
26,4,290,8,8,6,['k'],N,['d'],Y,['k'],N,,,,,,,female,21,
26,5,291,8,8,6,['k'],Y,['k'],Y,['space'],Y,,,,,,,female,21,
26,6,292,4,4,6,['d'],N,['k'],N,None,Y,,,,,,,female,21,
26,7,293,1,1,6,['k'],Y,['k'],N,None,Y,,,,,,,female,21,
26,8,294,4,4,6,['d'],N,['k'],N,None,Y,,,,,,,female,21,
26,9,295,1,1,6,['k'],Y,['k'],Y,['k'],N,,,,,,,female,21,
26,10,296,8,8,6,['k'],N,['d'],N,['space'],N,,,,,,,female,21,
27,0,297,9,9,6,['k'],Y,['k'],Y,None,N,,,,,,,female,21,
27,1,298,4,4,6,['k'],N,['d'],Y,['space'],Y,,,,,,,female,21,
27,2,299,7,7,6,['k'],N,['d'],N,None,Y,25,32,23,,,,female,21,
27,3,300,2,2,7,['k'],N,['d'],,,,,,,,,,female,21,
27,4,301,0,0,7,['k'],N,['d'],,,,,,,,,,female,21,
27,5,302,4,4,7,['k'],N,['d'],Y,['space'],Y,,,,,,,female,21,
27,6,303,3,3,7,['d'],Y,['d'],Y,['space'],Y,,,,,,,female,21,
27,7,304,9,9,7,['d'],N,['k'],Y,None,N,,,,,,,female,21,
27,8,305,5,5,7,['k'],Y,['k'],Y,['space'],Y,,,,,,,female,21,
27,9,306,3,3,7,['k'],Y,['k'],Y,['space'],Y,,,,,,,female,21,
27,10,307,3,3,7,['k'],Y,['k'],N,None,Y,,,,,,,female,21,
28,0,308,0,0,7,['k'],Y,['k'],N,None,Y,,,,,,,female,21,
28,1,309,0,0,7,['k'],N,['d'],N,['space'],N,,,,,,,female,21,
28,2,310,4,4,7,['k'],Y,['k'],Y,['space'],Y,,,,,,,female,21,
28,3,311,10,10,7,['k'],N,['d'],N,['space'],N,,,,,,,female,21,
28,4,312,4,4,7,['k'],Y,['k'],N,['space'],N,,,,,,,female,21,
28,5,313,3,3,7,['k'],N,['d'],Y,None,N,,,,,,,female,21,
28,6,314,0,0,7,['k'],N,['d'],N,None,Y,,,,,,,female,21,
28,7,315,4,4,7,['d'],N,['k'],Y,None,N,,,,,,,female,21,
28,8,316,4,4,7,['k'],N,['d'],Y,['space'],Y,,,,,,,female,21,
28,9,317,1,1,7,['d'],Y,['d'],Y,None,N,,,,,,,female,21,
28,10,318,3,3,7,['k'],Y,['k'],N,['space'],N,,,,,,,female,21,
29,0,319,6,6,7,['k'],Y,['k'],Y,None,N,,,,,,,female,21,
29,1,320,4,4,7,['k'],Y,['k'],Y,None,N,,,,,,,female,21,
29,2,321,7,7,7,['k'],Y,['k'],N,None,Y,,,,,,,female,21,
29,3,322,0,0,7,['k'],Y,['k'],Y,['space'],Y,,,,,,,female,21,
29,4,323,7,7,7,['k'],Y,['k'],N,None,Y,,,,,,,female,21,
29,5,324,5,5,7,['k'],N,['d'],N,None,Y,,,,,,,female,21,
29,6,325,6,6,7,['d'],N,['k'],Y,['space'],Y,,,,,,,female,21,
29,7,326,10,10,7,['k'],N,['d'],Y,['space'],Y,,,,,,,female,21,
29,8,327,5,5,7,['k'],Y,['k'],Y,['space'],Y,,,,,,,female,21,
29,9,328,9,9,7,['k'],Y,['k'],N,['space'],N,,,,,,,female,21,
29,10,329,6,6,7,['k'],Y,['k'],Y,['k'],N,,,,,,,female,21,
30,0,330,9,9,7,['k'],Y,['k'],N,None,Y,,,,,,,female,21,
30,1,331,7,7,7,['k'],N,['d'],Y,['space'],Y,,,,,,,female,21,
30,2,332,5,5,7,['k'],Y,['k'],Y,['space'],Y,,,,,,,female,21,
30,3,333,4,4,7,['k'],N,['d'],Y,['space'],Y,,,,,,,female,21,
30,4,334,9,9,7,['k'],N,['d'],N,None,Y,,,,,,,female,21,
30,5,335,10,10,7,['d'],Y,['d'],Y,['space'],Y,,,,,,,female,21,
30,6,336,6,6,7,['d'],Y,['d'],N,None,Y,,,,,,,female,21,
30,7,337,10,10,7,['k'],Y,['k'],N,None,Y,,,,,,,female,21,
30,8,338,3,3,7,['d'],N,['k'],Y,['space'],Y,,,,,,,female,21,
30,9,339,5,5,7,['k'],Y,['k'],N,['k'],N,,,,,,,female,21,
30,10,340,0,0,7,['k'],N,['d'],N,['space'],N,,,,,,,female,21,
31,0,341,4,4,7,['k'],N,['d'],Y,['d'],N,,,,,,,female,21,
31,1,342,2,2,7,['k'],N,['d'],N,['space'],N,,,,,,,female,21,
31,2,343,3,3,7,['k'],N,['d'],N,None,Y,,,,,,,female,21,
31,3,344,9,9,7,['d'],Y,['d'],N,None,Y,,,,,,,female,21,
31,4,345,5,5,7,['k'],Y,['k'],N,['space'],N,,,,,,,female,21,
31,5,346,6,6,7,['k'],N,['d'],Y,None,N,,,,,,,female,21,
31,6,347,6,6,7,['d'],N,['k'],Y,['space'],Y,,,,,,,female,21,
31,7,348,4,4,7,['k'],N,['d'],N,None,Y,,,,,,,female,21,
31,8,349,9,9,7,['k'],Y,['k'],N,None,Y,26,30,25,,,,female,21,
31,9,350,6,6,8,['k'],N,['d'],,,,,,,,,,female,21,
31,10,351,4,4,8,['k'],N,['d'],,,,,,,,,,female,21,
32,0,352,2,2,8,['d'],Y,['d'],N,None,Y,,,,,,,female,21,
32,1,353,6,6,8,['k'],N,['d'],Y,['space'],Y,,,,,,,female,21,
32,2,354,3,3,8,['k'],Y,['k'],N,None,Y,,,,,,,female,21,
32,3,355,4,4,8,['d'],Y,['d'],N,None,Y,,,,,,,female,21,
32,4,356,3,3,8,['k'],N,['d'],Y,['space'],Y,,,,,,,female,21,
32,5,357,8,8,8,['d'],N,['k'],Y,['space'],Y,,,,,,,female,21,
32,6,358,1,1,8,['k'],Y,['k'],Y,['k'],N,,,,,,,female,21,
32,7,359,10,10,8,['d'],N,['k'],Y,None,N,,,,,,,female,21,
32,8,360,4,4,8,['k'],N,['d'],N,None,Y,,,,,,,female,21,
32,9,361,2,2,8,['k'],Y,['k'],N,None,Y,,,,,,,female,21,
32,10,362,8,8,8,['k'],Y,['k'],N,None,Y,,,,,,,female,21,
33,0,363,2,2,8,['k'],N,['d'],Y,['space'],Y,,,,,,,female,21,
33,1,364,2,2,8,['k'],N,['d'],N,['space'],N,,,,,,,female,21,
33,2,365,10,10,8,['d'],Y,['d'],N,None,Y,,,,,,,female,21,
33,3,366,5,5,8,['d'],Y,['d'],N,None,Y,,,,,,,female,21,
33,4,367,1,1,8,['d'],Y,['d'],Y,['space'],Y,,,,,,,female,21,
33,5,368,3,3,8,['k'],N,['d'],Y,['k'],N,,,,,,,female,21,
33,6,369,10,10,8,['k'],N,['d'],Y,['space'],Y,,,,,,,female,21,
33,7,370,9,9,8,['d'],N,['k'],N,['space'],N,,,,,,,female,21,
33,8,371,0,0,8,['k'],Y,['k'],N,None,Y,,,,,,,female,21,
33,9,372,10,10,8,['k'],N,['d'],N,['space'],N,,,,,,,female,21,
33,10,373,10,10,8,['d'],N,['k'],Y,['space'],Y,,,,,,,female,21,
34,0,374,5,5,8,['k'],N,['d'],Y,['space'],Y,,,,,,,female,21,
34,1,375,10,10,8,['d'],Y,['d'],Y,None,N,,,,,,,female,21,
34,2,376,1,1,8,['k'],Y,['k'],Y,['k'],N,,,,,,,female,21,
34,3,377,3,3,8,['k'],Y,['k'],Y,['k'],N,,,,,,,female,21,
34,4,378,10,10,8,['k'],N,['d'],Y,['k'],N,,,,,,,female,21,
34,5,379,8,8,8,['k'],N,['d'],Y,None,N,,,,,,,female,21,
34,6,380,2,2,8,['d'],Y,['d'],Y,['space'],Y,,,,,,,female,21,
34,7,381,9,9,8,['k'],N,['d'],Y,['space'],Y,,,,,,,female,21,
34,8,382,2,2,8,['k'],N,['d'],Y,None,N,,,,,,,female,21,
34,9,383,4,4,8,['k'],Y,['k'],N,None,Y,,,,,,,female,21,
34,10,384,5,5,8,['k'],N,['d'],N,['space'],N,,,,,,,female,21,
35,0,385,1,1,8,['d'],N,['k'],N,None,Y,,,,,,,female,21,
35,1,386,0,0,8,['k'],Y,['k'],Y,['k'],N,,,,,,,female,21,
35,2,387,6,6,8,['k'],Y,['k'],Y,['space'],Y,,,,,,,female,21,
35,3,388,9,9,8,['k'],Y,['k'],N,None,Y,,,,,,,female,21,
35,4,389,7,7,8,['k'],Y,['k'],Y,['d'],N,,,,,,,female,21,
35,5,390,2,2,8,['k'],Y,['k'],Y,['space'],Y,,,,,,,female,21,
35,6,391,7,7,8,['k'],N,['d'],N,None,Y,,,,,,,female,21,
35,7,392,10,10,8,['d'],N,['k'],Y,['space'],Y,,,,,,,female,21,
35,8,393,0,0,8,['k'],Y,['k'],Y,['space'],Y,,,,,,,female,21,
35,9,394,7,7,8,['d'],N,['k'],N,None,Y,,,,,,,female,21,
35,10,395,9,9,8,['k'],Y,['k'],N,None,Y,,,,,,,female,21,
36,0,396,7,7,8,['k'],Y,['k'],N,None,Y,,,,,,,female,21,
36,1,397,6,6,8,['k'],N,['d'],N,None,Y,,,,,,,female,21,
36,2,398,10,10,8,['d'],N,['k'],N,None,Y,,,,,,,female,21,
36,3,399,3,3,8,['k'],N,['d'],N,['space'],N,23,32,25,,,,female,21,
36,4,400,8,8,9,['k'],N,['d'],,,,,,,,,,female,21,
36,5,401,8,8,9,['d'],Y,['d'],,,,,,,,,,female,21,
36,6,402,9,9,9,['k'],Y,['k'],Y,['space'],Y,,,,,,,female,21,
36,7,403,4,4,9,['k'],Y,['k'],Y,['d'],N,,,,,,,female,21,
36,8,404,10,10,9,['k'],N,['d'],N,['space'],N,,,,,,,female,21,
36,9,405,7,7,9,['d'],Y,['d'],N,['space'],N,,,,,,,female,21,
36,10,406,4,4,9,['k'],N,['d'],N,None,Y,,,,,,,female,21,
37,0,407,0,0,9,['k'],N,['d'],N,None,Y,,,,,,,female,21,
37,1,408,1,1,9,['d'],N,['k'],N,None,Y,,,,,,,female,21,
37,2,409,0,0,9,['k'],Y,['k'],Y,None,N,,,,,,,female,21,
37,3,410,3,3,9,['k'],N,['d'],N,None,Y,,,,,,,female,21,
37,4,411,1,1,9,['k'],N,['d'],N,None,Y,,,,,,,female,21,
37,5,412,5,5,9,['k'],Y,['k'],Y,['d'],N,,,,,,,female,21,
37,6,413,3,3,9,['k'],N,['d'],Y,['space'],Y,,,,,,,female,21,
37,7,414,0,0,9,['d'],N,['k'],N,['d'],N,,,,,,,female,21,
37,8,415,4,4,9,['k'],N,['d'],Y,None,N,,,,,,,female,21,
37,9,416,7,7,9,['k'],N,['d'],Y,['space'],Y,,,,,,,female,21,
37,10,417,0,0,9,['k'],N,['d'],Y,['d'],N,,,,,,,female,21,
38,0,418,8,8,9,['k'],N,['d'],Y,['d'],N,,,,,,,female,21,
38,1,419,6,6,9,['d'],N,['k'],N,['d'],N,,,,,,,female,21,
38,2,420,9,9,9,['k'],Y,['k'],Y,['k'],N,,,,,,,female,21,
38,3,421,6,6,9,['k'],N,['d'],N,['space'],N,,,,,,,female,21,
38,4,422,8,8,9,['k'],Y,['k'],N,None,Y,,,,,,,female,21,
38,5,423,10,10,9,['k'],Y,['k'],N,['space'],N,,,,,,,female,21,
38,6,424,0,0,9,['k'],Y,['k'],N,None,Y,,,,,,,female,21,
38,7,425,5,5,9,['k'],Y,['k'],N,None,Y,,,,,,,female,21,
38,8,426,7,7,9,['d'],Y,['d'],Y,['space'],Y,,,,,,,female,21,
38,9,427,8,8,9,['d'],Y,['d'],N,None,Y,,,,,,,female,21,
38,10,428,3,3,9,['k'],N,['d'],N,None,Y,,,,,,,female,21,
39,0,429,6,6,9,['k'],Y,['k'],N,['d'],N,,,,,,,female,21,
39,1,430,3,3,9,['k'],Y,['k'],N,['space'],N,,,,,,,female,21,
39,2,431,9,9,9,['k'],N,['d'],Y,['space'],Y,,,,,,,female,21,
39,3,432,4,4,9,['d'],Y,['d'],Y,['space'],Y,,,,,,,female,21,
39,4,433,2,2,9,['k'],Y,['k'],Y,['k'],N,,,,,,,female,21,
39,5,434,9,9,9,['k'],Y,['k'],N,['d'],N,,,,,,,female,21,
39,6,435,0,0,9,['k'],Y,['k'],N,['k'],N,,,,,,,female,21,
39,7,436,1,1,9,['k'],N,['d'],Y,['k'],N,,,,,,,female,21,
39,8,437,9,9,9,['d'],N,['k'],N,['space'],N,,,,,,,female,21,
39,9,438,4,4,9,['k'],Y,['k'],N,['k'],N,,,,,,,female,21,
39,10,439,9,9,9,['k'],N,['d'],N,None,Y,,,,,,,female,21,
40,0,440,2,2,9,['k'],Y,['k'],N,['d'],N,,,,,,,female,21,
40,1,441,6,6,9,['k'],Y,['k'],N,None,Y,,,,,,,female,21,
40,2,442,1,1,9,['k'],Y,['k'],N,None,Y,,,,,,,female,21,
40,3,443,3,3,9,['k'],N,['d'],Y,['k'],N,,,,,,,female,21,
40,4,444,0,0,9,['k'],Y,['k'],Y,['space'],Y,,,,,,,female,21,
40,5,445,6,6,9,['k'],Y,['k'],N,None,Y,,,,,,,female,21,
40,6,446,10,10,9,['k'],Y,['k'],N,['k'],N,,,,,,,female,21,
40,7,447,6,6,9,['k'],N,['d'],N,None,Y,,,,,,,female,21,
40,8,448,10,10,9,['d'],Y,['d'],N,None,Y,,,,,,,female,21,
40,9,449,6,6,9,['k'],N,['d'],Y,['d'],N,27,23,18,,,,female,21,
40,10,450,8,8,10,['k'],Y,['k'],,,,,,,,,,female,21,
41,0,451,4,4,10,['k'],N,['d'],,,,,,,,,,female,21,
41,1,452,4,4,10,['d'],N,['k'],Y,['space'],Y,,,,,,,female,21,
41,2,453,7,7,10,['k'],Y,['k'],Y,['space'],Y,,,,,,,female,21,
41,3,454,2,2,10,['k'],Y,['k'],N,None,Y,,,,,,,female,21,
41,4,455,4,4,10,['k'],Y,['k'],N,None,Y,,,,,,,female,21,
41,5,456,6,6,10,['d'],Y,['d'],N,None,Y,,,,,,,female,21,
41,6,457,5,5,10,['k'],Y,['k'],Y,['space'],Y,,,,,,,female,21,
41,7,458,8,8,10,['k'],Y,['k'],N,None,Y,,,,,,,female,21,
41,8,459,0,0,10,['k'],N,['d'],Y,['space'],Y,,,,,,,female,21,
41,9,460,0,0,10,['k'],Y,['k'],N,None,Y,,,,,,,female,21,
41,10,461,1,1,10,['k'],Y,['k'],N,None,Y,,,,,,,female,21,
42,0,462,0,0,10,['k'],N,['d'],Y,None,N,,,,,,,female,21,
42,1,463,0,0,10,['k'],Y,['k'],Y,None,N,,,,,,,female,21,
42,2,464,1,1,10,['k'],N,['d'],N,['space'],N,,,,,,,female,21,
42,3,465,9,9,10,['k'],N,['d'],N,None,Y,,,,,,,female,21,
42,4,466,1,1,10,['k'],N,['d'],N,None,Y,,,,,,,female,21,
42,5,467,4,4,10,['d'],N,['k'],N,['d'],N,,,,,,,female,21,
42,6,468,8,8,10,['d'],N,['k'],Y,['k'],N,,,,,,,female,21,
42,7,469,1,1,10,['k'],N,['d'],Y,['space'],Y,,,,,,,female,21,
42,8,470,10,10,10,['k'],N,['d'],Y,['k'],N,,,,,,,female,21,
42,9,471,0,0,10,['k'],N,['d'],Y,['d'],N,,,,,,,female,21,
42,10,472,8,8,10,['k'],Y,['k'],N,['k'],N,,,,,,,female,21,
43,0,473,2,2,10,['k'],Y,['k'],N,['space'],N,,,,,,,female,21,
43,1,474,7,7,10,['k'],N,['d'],N,None,Y,,,,,,,female,21,
43,2,475,0,0,10,['k'],N,['d'],N,['space'],N,,,,,,,female,21,
43,3,476,3,3,10,['k'],N,['d'],N,None,Y,,,,,,,female,21,
43,4,477,2,2,10,['k'],Y,['k'],Y,['space'],Y,,,,,,,female,21,
43,5,478,5,5,10,['k'],N,['d'],Y,['space'],Y,,,,,,,female,21,
43,6,479,7,7,10,['k'],Y,['k'],Y,None,N,,,,,,,female,21,
43,7,480,3,3,10,['k'],Y,['k'],N,None,Y,,,,,,,female,21,
43,8,481,8,8,10,['k'],N,['d'],Y,['space'],Y,,,,,,,female,21,
43,9,482,5,5,10,['k'],Y,['k'],N,['space'],N,,,,,,,female,21,
43,10,483,0,0,10,['k'],Y,['k'],Y,None,N,,,,,,,female,21,
44,0,484,7,7,10,['k'],N,['d'],Y,None,N,,,,,,,female,21,
44,1,485,6,6,10,['k'],Y,['k'],Y,['space'],Y,,,,,,,female,21,
44,2,486,3,3,10,['k'],Y,['k'],Y,None,N,,,,,,,female,21,
44,3,487,1,1,10,['d'],Y,['d'],N,['space'],N,,,,,,,female,21,
44,4,488,7,7,10,['k'],Y,['k'],N,['space'],N,,,,,,,female,21,
44,5,489,3,3,10,['k'],Y,['k'],N,['d'],N,,,,,,,female,21,
44,6,490,5,5,10,['k'],Y,['k'],Y,None,N,,,,,,,female,21,
44,7,491,6,6,10,['k'],Y,['k'],Y,['space'],Y,,,,,,,female,21,
44,8,492,2,2,10,['k'],Y,['k'],N,['space'],N,,,,,,,female,21,
44,9,493,5,5,10,['d'],Y,['d'],Y,['space'],Y,,,,,,,female,21,
44,10,494,7,7,10,['d'],Y,['d'],N,None,Y,,,,,,,female,21,
45,0,495,7,7,10,['k'],Y,['k'],Y,['k'],N,,,,,,,female,21,
45,1,496,5,5,10,['k'],Y,['k'],Y,['space'],Y,,,,,,,female,21,
45,2,497,5,5,10,['d'],Y,['d'],Y,['space'],Y,,,,,,,female,21,
45,3,498,7,7,10,['k'],Y,['k'],N,['space'],N,,,,,,,female,21,
45,4,499,4,4,10,['k'],Y,['k'],Y,None,N,32,25,25,,,,female,21,
45,5,500,7,7,11,['d'],Y,['k'],,,,,,,Y,Y,Y,female,21,
45,6,501,4,4,11,['k'],Y,['d'],,,,,,,,Y,Y,female,21,
45,7,502,8,8,11,['d'],N,['d'],Y,['space'],Y,,,,,Y,Y,female,21,
45,8,503,9,9,11,['d'],Y,['k'],Y,None,N,,,,,Y,Y,female,21,
45,9,504,9,9,11,['d'],Y,['k'],N,None,Y,,,,,Y,Y,female,21,
45,10,505,1,1,11,['k'],Y,['d'],Y,['space'],Y,,,,,Y,Y,female,21,
46,0,506,6,6,11,['k'],Y,['d'],Y,None,N,,,,,Y,Y,female,21,
46,1,507,5,5,11,['k'],Y,['d'],Y,['space'],Y,,,,,Y,Y,female,21,
46,2,508,8,8,11,['d'],Y,['k'],N,None,Y,,,,,Y,Y,female,21,
46,3,509,6,6,11,['d'],Y,['k'],Y,['space'],Y,,,,,Y,Y,female,21,
46,4,510,10,10,11,['k'],Y,['d'],N,None,Y,,,,,Y,Y,female,21,
46,5,511,9,9,11,['k'],Y,['d'],Y,None,N,,,,,Y,Y,female,21,
46,6,512,0,0,11,['k'],Y,['d'],N,None,Y,,,,,Y,Y,female,21,
46,7,513,10,10,11,['d'],Y,['k'],Y,['space'],Y,,,,,Y,Y,female,21,
46,8,514,2,2,11,['k'],N,['k'],Y,['space'],Y,,,,,Y,Y,female,21,
46,9,515,3,3,11,['d'],Y,['k'],N,None,Y,,,,,Y,Y,female,21,
46,10,516,0,0,11,['k'],Y,['d'],N,['space'],N,,,,,Y,Y,female,21,
47,0,517,1,1,11,['k'],Y,['d'],Y,None,N,,,,,Y,Y,female,21,
47,1,518,6,6,11,['d'],Y,['k'],N,None,Y,,,,,Y,Y,female,21,
47,2,519,9,9,11,['d'],Y,['k'],Y,['space'],Y,,,,,Y,Y,female,21,
47,3,520,8,8,11,['k'],N,['k'],Y,['space'],Y,,,,,Y,Y,female,21,
47,4,521,0,0,11,['k'],Y,['d'],Y,None,N,,,,,Y,Y,female,21,
47,5,522,10,10,11,['d'],Y,['k'],N,None,Y,,,,,Y,Y,female,21,
47,6,523,1,1,11,['d'],Y,['k'],Y,['space'],Y,,,,,Y,Y,female,21,
47,7,524,5,5,11,['k'],Y,['d'],N,None,Y,,,,,Y,Y,female,21,
47,8,525,8,8,11,['k'],Y,['d'],N,None,Y,,,,,Y,Y,female,21,
47,9,526,10,10,11,['d'],Y,['k'],Y,None,N,,,,,Y,Y,female,21,
47,10,527,9,9,11,['k'],Y,['d'],N,None,Y,,,,,Y,Y,female,21,
48,0,528,7,7,11,['k'],Y,['d'],N,None,Y,,,,,Y,Y,female,21,
48,1,529,8,8,11,['d'],Y,['k'],Y,['space'],Y,,,,,Y,Y,female,21,
48,2,530,1,1,11,['d'],Y,['k'],Y,None,N,,,,,Y,Y,female,21,
48,3,531,3,3,11,['d'],Y,['k'],Y,None,N,,,,,Y,Y,female,21,
48,4,532,1,1,11,['k'],Y,['d'],N,None,Y,,,,,Y,Y,female,21,
48,5,533,10,10,11,['k'],Y,['d'],Y,['d'],N,,,,,Y,Y,female,21,
48,6,534,3,3,11,['k'],Y,['d'],N,['d'],N,,,,,Y,Y,female,21,
48,7,535,8,8,11,['k'],Y,['d'],Y,['space'],Y,,,,,Y,Y,female,21,
48,8,536,5,5,11,['k'],Y,['d'],Y,None,N,,,,,Y,Y,female,21,
48,9,537,4,4,11,['d'],Y,['k'],N,['space'],N,,,,,Y,Y,female,21,
48,10,538,7,7,11,['k'],Y,['d'],Y,None,N,,,,,Y,Y,female,21,
49,0,539,0,0,11,['d'],N,['d'],N,['space'],N,,,,,Y,Y,female,21,
49,1,540,3,3,11,['k'],Y,['d'],N,['k'],N,,,,,Y,Y,female,21,
49,2,541,6,6,11,['k'],Y,['d'],N,None,Y,,,,,Y,Y,female,21,
49,3,542,10,10,11,['d'],N,['d'],N,None,Y,,,,,Y,Y,female,21,
49,4,543,10,10,11,['d'],N,['d'],Y,['space'],Y,,,,,Y,Y,female,21,
49,5,544,0,0,11,['k'],Y,['d'],Y,['k'],N,,,,,Y,Y,female,21,
49,6,545,2,2,11,['d'],Y,['k'],Y,['d'],N,,,,,Y,Y,female,21,
49,7,546,0,0,11,['k'],Y,['d'],N,['space'],N,,,,,Y,Y,female,21,
49,8,547,7,7,11,['d'],N,['d'],N,['space'],N,,,,,Y,Y,female,21,
49,9,548,8,8,11,['d'],Y,['k'],N,None,Y,,,,,Y,Y,female,21,
49,10,549,4,4,11,['d'],Y,['k'],N,None,Y,43,28,25,,Y,Y,female,21,
50,0,550,1,1,12,['k'],Y,['d'],,,,,,,,Y,Y,female,21,
50,1,551,9,9,12,['d'],Y,['k'],,,,,,,,Y,Y,female,21,
50,2,552,3,3,12,['d'],Y,['k'],Y,['space'],Y,,,,,Y,Y,female,21,
50,3,553,8,8,12,['k'],Y,['d'],Y,['space'],Y,,,,,Y,Y,female,21,
50,4,554,5,5,12,['k'],Y,['d'],N,None,Y,,,,,Y,Y,female,21,
50,5,555,10,10,12,['d'],Y,['k'],Y,['space'],Y,,,,,Y,Y,female,21,
50,6,556,7,7,12,['d'],Y,['k'],N,None,Y,,,,,Y,Y,female,21,
50,7,557,0,0,12,['k'],Y,['d'],Y,['space'],Y,,,,,Y,Y,female,21,
50,8,558,8,8,12,['d'],N,['d'],N,None,Y,,,,,Y,Y,female,21,
50,9,559,6,6,12,['d'],Y,['k'],N,None,Y,,,,,Y,Y,female,21,
50,10,560,5,5,12,['k'],Y,['d'],Y,None,N,,,,,Y,Y,female,21,
51,0,561,8,8,12,['k'],Y,['d'],Y,None,N,,,,,Y,Y,female,21,
51,1,562,5,5,12,['k'],Y,['d'],N,['d'],N,,,,,Y,Y,female,21,
51,2,563,4,4,12,['k'],Y,['d'],Y,None,N,,,,,Y,Y,female,21,
51,3,564,2,2,12,['d'],Y,['k'],N,['space'],N,,,,,Y,Y,female,21,
51,4,565,6,6,12,['d'],Y,['k'],Y,['space'],Y,,,,,Y,Y,female,21,
51,5,566,1,1,12,['k'],Y,['d'],Y,None,N,,,,,Y,Y,female,21,
51,6,567,3,3,12,['d'],Y,['k'],Y,['space'],Y,,,,,Y,Y,female,21,
51,7,568,2,2,12,['d'],Y,['k'],Y,['space'],Y,,,,,Y,Y,female,21,
51,8,569,0,0,12,['d'],Y,['k'],Y,None,N,,,,,Y,Y,female,21,
51,9,570,7,7,12,['d'],N,['d'],N,None,Y,,,,,Y,Y,female,21,
51,10,571,2,2,12,['k'],Y,['d'],N,['space'],N,,,,,Y,Y,female,21,
52,0,572,10,10,12,['d'],Y,['k'],Y,None,N,,,,,Y,Y,female,21,
52,1,573,8,8,12,['k'],Y,['d'],Y,None,N,,,,,Y,Y,female,21,
52,2,574,2,2,12,['k'],Y,['d'],Y,None,N,,,,,Y,Y,female,21,
52,3,575,7,7,12,['d'],Y,['k'],N,['space'],N,,,,,Y,Y,female,21,
52,4,576,10,10,12,['d'],Y,['k'],N,None,Y,,,,,Y,Y,female,21,
52,5,577,7,7,12,['d'],Y,['k'],Y,['space'],Y,,,,,Y,Y,female,21,
52,6,578,0,0,12,['k'],Y,['d'],N,['k'],N,,,,,Y,Y,female,21,
52,7,579,8,8,12,['k'],Y,['d'],Y,['space'],Y,,,,,Y,Y,female,21,
52,8,580,7,7,12,['k'],Y,['d'],Y,['space'],Y,,,,,Y,Y,female,21,
52,9,581,6,6,12,['k'],Y,['d'],N,['space'],N,,,,,Y,Y,female,21,
52,10,582,3,3,12,['k'],Y,['d'],N,None,Y,,,,,Y,Y,female,21,
53,0,583,2,2,12,['d'],N,['d'],N,['space'],N,,,,,Y,Y,female,21,
53,1,584,0,0,12,['k'],Y,['d'],Y,['space'],Y,,,,,Y,Y,female,21,
53,2,585,0,0,12,['d'],Y,['k'],N,None,Y,,,,,Y,Y,female,21,
53,3,586,0,0,12,['k'],Y,['d'],Y,['space'],Y,,,,,Y,Y,female,21,
53,4,587,1,1,12,['d'],Y,['k'],N,None,Y,,,,,Y,Y,female,21,
53,5,588,4,4,12,['d'],Y,['k'],N,None,Y,,,,,Y,Y,female,21,
53,6,589,1,1,12,['k'],Y,['d'],N,None,Y,,,,,Y,Y,female,21,
53,7,590,7,7,12,['d'],Y,['k'],Y,['space'],Y,,,,,Y,Y,female,21,
53,8,591,0,0,12,['k'],Y,['d'],N,None,Y,,,,,Y,Y,female,21,
53,9,592,9,9,12,['d'],Y,['k'],N,None,Y,,,,,Y,Y,female,21,
53,10,593,6,6,12,['d'],Y,['k'],Y,['space'],Y,,,,,Y,Y,female,21,
54,0,594,2,2,12,['k'],Y,['d'],N,['space'],N,,,,,Y,Y,female,21,
54,1,595,1,1,12,['k'],Y,['d'],Y,['space'],Y,,,,,Y,Y,female,21,
54,2,596,4,4,12,['d'],N,['d'],N,['d'],N,,,,,Y,Y,female,21,
54,3,597,2,2,12,['k'],Y,['d'],Y,['space'],Y,,,,,Y,Y,female,21,
54,4,598,5,5,12,['d'],N,['d'],Y,['space'],Y,,,,,Y,Y,female,21,
54,5,599,9,9,12,['k'],Y,['d'],N,['space'],N,45,30,25,,Y,Y,female,21,
