.thisRepN,.thisTrialN,.thisN,.thisIndex,.thisTrial,Block Number,Key pressed,Category,Correct?,Int Match?,Int Response,Int Correct?,Line Accuracy,Interference Accuracy,Matching Interferences,New instruction shown?,Buttons switched?,Fast?,gender,age,
0,0,0,4,4,1,['d'],['k'],N,,,,,,,,,,male,18,
0,1,1,8,8,1,['d'],['k'],N,,,,,,,,,,male,18,
0,2,2,2,2,1,['k'],['d'],N,Y,['space'],Y,,,,,,,male,18,
0,3,3,0,0,1,['d'],['d'],Y,Y,None,N,,,,,,,male,18,
0,4,4,4,4,1,['d'],['k'],N,N,None,Y,,,,,,,male,18,
0,5,5,8,8,1,['d'],['d'],Y,Y,['space'],Y,,,,,,,male,18,
0,6,6,4,4,1,['d'],['k'],N,Y,['space'],Y,,,,,,,male,18,
0,7,7,5,5,1,['k'],['d'],N,N,None,Y,,,,,,,male,18,
0,8,8,6,6,1,['k'],['k'],Y,N,None,Y,,,,,,,male,18,
0,9,9,0,0,1,['k'],['k'],Y,N,['space'],N,,,,,,,male,18,
0,10,10,9,9,1,['d'],['d'],Y,Y,None,N,,,,,,,male,18,
1,0,11,10,10,1,['k'],['k'],Y,Y,None,N,,,,,,,male,18,
1,1,12,8,8,1,['d'],['d'],Y,Y,['space'],Y,,,,,,,male,18,
1,2,13,6,6,1,['k'],['d'],N,Y,None,N,,,,,,,male,18,
1,3,14,0,0,1,['d'],['k'],N,N,['space'],N,,,,,,,male,18,
1,4,15,9,9,1,['d'],['k'],N,N,None,Y,,,,,,,male,18,
1,5,16,5,5,1,['k'],['k'],Y,Y,['space'],Y,,,,,,,male,18,
1,6,17,4,4,1,['d'],['d'],Y,N,None,Y,,,,,,,male,18,
1,7,18,2,2,1,['d'],['k'],N,Y,['space'],Y,,,,,,,male,18,
1,8,19,8,8,1,['k'],['k'],Y,Y,['space'],Y,,,,,,,male,18,
1,9,20,0,0,1,['d'],['d'],Y,N,None,Y,,,,,,,male,18,
1,10,21,8,8,1,['k'],['k'],Y,N,None,Y,,,,,,,male,18,
2,0,22,7,7,1,['d'],['k'],N,N,None,Y,,,,,,,male,18,
2,1,23,7,7,1,['k'],['k'],Y,Y,None,N,,,,,,,male,18,
2,2,24,7,7,1,['d'],['d'],Y,N,None,Y,,,,,,,male,18,
2,3,25,5,5,1,['d'],['k'],N,Y,None,N,,,,,,,male,18,
2,4,26,8,8,1,['k'],['k'],Y,Y,['space'],Y,,,,,,,male,18,
2,5,27,5,5,1,['d'],['d'],Y,N,None,Y,,,,,,,male,18,
2,6,28,3,3,1,['k'],['k'],Y,Y,['space'],Y,,,,,,,male,18,
2,7,29,9,9,1,['d'],['k'],N,Y,None,N,,,,,,,male,18,
2,8,30,8,8,1,['k'],['d'],N,N,None,Y,,,,,,,male,18,
2,9,31,2,2,1,['d'],['d'],Y,Y,None,N,,,,,,,male,18,
2,10,32,9,9,1,['k'],['d'],N,Y,None,N,,,,,,,male,18,
3,0,33,0,0,1,['d'],['k'],N,Y,None,N,,,,,,,male,18,
3,1,34,1,1,1,['k'],['k'],Y,Y,None,N,,,,,,,male,18,
3,2,35,9,9,1,['k'],['k'],Y,Y,None,N,,,,,,,male,18,
3,3,36,2,2,1,['d'],['k'],N,Y,['space'],Y,,,,,,,male,18,
3,4,37,2,2,1,['d'],['k'],N,N,['space'],N,,,,,,,male,18,
3,5,38,5,5,1,['d'],['k'],N,Y,None,N,,,,,,,male,18,
3,6,39,0,0,1,['d'],['d'],Y,Y,None,N,,,,,,,male,18,
3,7,40,7,7,1,['d'],['k'],N,N,['space'],N,,,,,,,male,18,
3,8,41,5,5,1,['k'],['k'],Y,Y,None,N,,,,,,,male,18,
3,9,42,1,1,1,['d'],['d'],Y,N,None,Y,,,,,,,male,18,
3,10,43,2,2,1,['k'],['d'],N,N,['space'],N,,,,,,,male,18,
4,0,44,7,7,1,['d'],['k'],N,N,None,Y,,,,,,,male,18,
4,1,45,10,10,1,['k'],['d'],N,N,None,Y,,,,,,,male,18,
4,2,46,2,2,1,['d'],['k'],N,N,None,Y,,,,,,,male,18,
4,3,47,0,0,1,['k'],['d'],N,N,['space'],N,,,,,,,male,18,
4,4,48,1,1,1,['k'],['d'],N,N,['space'],N,,,,,,,male,18,
4,5,49,2,2,1,['d'],['d'],Y,N,None,Y,24,26,25,,,,male,18,
4,6,50,0,0,2,['k'],['d'],N,,,,,,,,,,male,18,
4,7,51,4,4,2,['d'],['d'],Y,,,,,,,,,,male,18,
4,8,52,7,7,2,['d'],['d'],Y,Y,['d'],N,,,,,,,male,18,
4,9,53,10,10,2,['k'],['k'],Y,N,None,Y,,,,,,,male,18,
4,10,54,4,4,2,['k'],['d'],N,Y,['space'],Y,,,,,,,male,18,
5,0,55,2,2,2,['d'],['d'],Y,Y,['space'],Y,,,,,,,male,18,
5,1,56,0,0,2,['k'],['k'],Y,Y,['space'],Y,,,,,,,male,18,
5,2,57,0,0,2,['k'],['d'],N,Y,['space'],Y,,,,,,,male,18,
5,3,58,6,6,2,['d'],['d'],Y,Y,['space'],Y,,,,,,,male,18,
5,4,59,0,0,2,['k'],['k'],Y,Y,['space'],Y,,,,,,,male,18,
5,5,60,1,1,2,['d'],['k'],N,Y,['space'],Y,,,,,,,male,18,
5,6,61,9,9,2,['k'],['d'],N,Y,['space'],Y,,,,,,,male,18,
5,7,62,6,6,2,['d'],['k'],N,N,None,Y,,,,,,,male,18,
5,8,63,3,3,2,['k'],['d'],N,N,None,Y,,,,,,,male,18,
5,9,64,10,10,2,['d'],['d'],Y,N,None,Y,,,,,,,male,18,
5,10,65,8,8,2,['k'],['k'],Y,N,None,Y,,,,,,,male,18,
6,0,66,10,10,2,['d'],['k'],N,Y,['space'],Y,,,,,,,male,18,
6,1,67,2,2,2,['k'],['d'],N,Y,['space'],Y,,,,,,,male,18,
6,2,68,5,5,2,['d'],['d'],Y,N,None,Y,,,,,,,male,18,
6,3,69,8,8,2,['k'],['k'],Y,N,None,Y,,,,,,,male,18,
6,4,70,10,10,2,['d'],['d'],Y,N,None,Y,,,,,,,male,18,
6,5,71,3,3,2,['k'],['d'],N,Y,['space'],Y,,,,,,,male,18,
6,6,72,10,10,2,['d'],['k'],N,N,None,Y,,,,,,,male,18,
6,7,73,7,7,2,['k'],['d'],N,Y,['space'],Y,,,,,,,male,18,
6,8,74,3,3,2,['k'],['k'],Y,Y,['d'],N,,,,,,,male,18,
6,9,75,5,5,2,['k'],['d'],N,N,None,Y,,,,,,,male,18,
6,10,76,1,1,2,['d'],['d'],Y,N,None,Y,,,,,,,male,18,
7,0,77,7,7,2,['k'],['d'],N,N,None,Y,,,,,,,male,18,
7,1,78,5,5,2,['d'],['k'],N,N,['space'],N,,,,,,,male,18,
7,2,79,5,5,2,['k'],['k'],Y,N,['space'],N,,,,,,,male,18,
7,3,80,5,5,2,['d'],['k'],N,N,['space'],N,,,,,,,male,18,
7,4,81,10,10,2,['k'],['k'],Y,N,None,Y,,,,,,,male,18,
7,5,82,1,1,2,['d'],['d'],Y,N,None,Y,,,,,,,male,18,
7,6,83,0,0,2,['k'],['k'],Y,N,None,Y,,,,,,,male,18,
7,7,84,4,4,2,['d'],['d'],Y,N,None,Y,,,,,,,male,18,
7,8,85,3,3,2,['k'],['k'],Y,Y,['space'],Y,,,,,,,male,18,
7,9,86,10,10,2,['k'],['k'],Y,N,None,Y,,,,,,,male,18,
7,10,87,6,6,2,['d'],['k'],N,Y,['space'],Y,,,,,,,male,18,
8,0,88,8,8,2,['k'],['d'],N,Y,None,N,,,,,,,male,18,
8,1,89,1,1,2,['k'],['k'],Y,N,None,Y,,,,,,,male,18,
8,2,90,2,2,2,['d'],['k'],N,N,None,Y,,,,,,,male,18,
8,3,91,7,7,2,['d'],['k'],N,Y,['space'],Y,,,,,,,male,18,
8,4,92,7,7,2,['k'],['d'],N,N,None,Y,,,,,,,male,18,
8,5,93,2,2,2,['k'],['k'],Y,Y,['space'],Y,,,,,,,male,18,
8,6,94,4,4,2,['d'],['d'],Y,N,None,Y,,,,,,,male,18,
8,7,95,7,7,2,['k'],['d'],N,N,None,Y,,,,,,,male,18,
8,8,96,7,7,2,['d'],['d'],Y,N,None,Y,,,,,,,male,18,
8,9,97,5,5,2,['k'],['k'],Y,N,None,Y,,,,,,,male,18,
8,10,98,4,4,2,['d'],['d'],Y,Y,['space'],Y,,,,,,,male,18,
9,0,99,0,0,2,['k'],['k'],Y,N,None,Y,28,42,20,,,,male,18,
9,1,100,6,6,3,['k'],['k'],Y,,,,,,,,,,male,18,
9,2,101,9,9,3,['k'],['d'],N,,,,,,,,,,male,18,
9,3,102,1,1,3,['d'],['d'],Y,Y,['space'],Y,,,,,,,male,18,
9,4,103,2,2,3,['k'],['k'],Y,N,None,Y,,,,,,,male,18,
9,5,104,9,9,3,['d'],['k'],N,Y,['space'],Y,,,,,,,male,18,
9,6,105,5,5,3,['k'],['d'],N,Y,['space'],Y,,,,,,,male,18,
9,7,106,5,5,3,['k'],['k'],Y,N,None,Y,,,,,,,male,18,
9,8,107,6,6,3,['d'],['d'],Y,N,None,Y,,,,,,,male,18,
9,9,108,9,9,3,['k'],['d'],N,Y,['space'],Y,,,,,,,male,18,
9,10,109,6,6,3,['d'],['k'],N,Y,['space'],Y,,,,,,,male,18,
10,0,110,7,7,3,['k'],['k'],Y,N,None,Y,,,,,,,male,18,
10,1,111,7,7,3,['d'],['d'],Y,N,None,Y,,,,,,,male,18,
10,2,112,7,7,3,['k'],['d'],N,N,None,Y,,,,,,,male,18,
10,3,113,4,4,3,['d'],['d'],Y,Y,['space'],Y,,,,,,,male,18,
10,4,114,10,10,3,['k'],['k'],Y,N,None,Y,,,,,,,male,18,
10,5,115,8,8,3,['d'],['d'],Y,N,None,Y,,,,,,,male,18,
10,6,116,0,0,3,['d'],['d'],Y,N,None,Y,,,,,,,male,18,
10,7,117,3,3,3,['k'],['d'],N,N,None,Y,,,,,,,male,18,
10,8,118,8,8,3,['d'],['k'],N,N,None,Y,,,,,,,male,18,
10,9,119,10,10,3,['k'],['k'],Y,N,None,Y,,,,,,,male,18,
10,10,120,4,4,3,['k'],['d'],N,N,None,Y,,,,,,,male,18,
11,0,121,1,1,3,['d'],['d'],Y,Y,['space'],Y,,,,,,,male,18,
11,1,122,9,9,3,['k'],['d'],N,N,None,Y,,,,,,,male,18,
11,2,123,0,0,3,['d'],['k'],N,N,None,Y,,,,,,,male,18,
11,3,124,2,2,3,['k'],['k'],Y,Y,['space'],Y,,,,,,,male,18,
11,4,125,6,6,3,['k'],['k'],Y,N,None,Y,,,,,,,male,18,
11,5,126,9,9,3,['k'],['d'],N,Y,['space'],Y,,,,,,,male,18,
11,6,127,9,9,3,['k'],['k'],Y,Y,['space'],Y,,,,,,,male,18,
11,7,128,7,7,3,['d'],['k'],N,Y,['space'],Y,,,,,,,male,18,
11,8,129,3,3,3,['k'],['k'],Y,Y,['space'],Y,,,,,,,male,18,
11,9,130,3,3,3,['d'],['d'],Y,Y,['space'],Y,,,,,,,male,18,
11,10,131,6,6,3,['k'],['d'],N,N,None,Y,,,,,,,male,18,
12,0,132,10,10,3,['d'],['d'],Y,Y,['space'],Y,,,,,,,male,18,
12,1,133,5,5,3,['k'],['k'],Y,N,None,Y,,,,,,,male,18,
12,2,134,3,3,3,['d'],['d'],Y,N,None,Y,,,,,,,male,18,
12,3,135,5,5,3,['k'],['k'],Y,Y,['space'],Y,,,,,,,male,18,
12,4,136,7,7,3,['d'],['d'],Y,N,None,Y,,,,,,,male,18,
12,5,137,4,4,3,['k'],['d'],N,Y,['space'],Y,,,,,,,male,18,
12,6,138,4,4,3,['k'],['k'],Y,Y,['space'],Y,,,,,,,male,18,
12,7,139,6,6,3,['d'],['k'],N,Y,None,N,,,,,,,male,18,
12,8,140,7,7,3,['k'],['k'],Y,N,None,Y,,,,,,,male,18,
12,9,141,10,10,3,['d'],['k'],N,Y,['space'],Y,,,,,,,male,18,
12,10,142,8,8,3,['k'],['k'],Y,N,['k'],N,,,,,,,male,18,
13,0,143,10,10,3,['k'],['d'],N,Y,['space'],Y,,,,,,,male,18,
13,1,144,5,5,3,['d'],['d'],Y,Y,None,N,,,,,,,male,18,
13,2,145,4,4,3,['k'],['d'],N,Y,None,N,,,,,,,male,18,
13,3,146,1,1,3,['d'],['d'],Y,N,['d'],N,,,,,,,male,18,
13,4,147,7,7,3,['d'],['d'],Y,Y,['k'],N,,,,,,,male,18,
13,5,148,0,0,3,['k'],['d'],N,N,['space'],N,,,,,,,male,18,
13,6,149,9,9,3,['d'],['k'],N,N,None,Y,29,41,23,,,,male,18,
13,7,150,8,8,4,['d'],['k'],N,,,,,,,,,,male,18,
13,8,151,1,1,4,['k'],['k'],Y,,,,,,,,,,male,18,
13,9,152,2,2,4,['k'],['d'],N,Y,['space'],Y,,,,,,,male,18,
13,10,153,1,1,4,['k'],['d'],N,Y,['space'],Y,,,,,,,male,18,
14,0,154,3,3,4,['k'],['k'],Y,N,None,Y,,,,,,,male,18,
14,1,155,10,10,4,['d'],['k'],N,Y,['space'],Y,,,,,,,male,18,
14,2,156,2,2,4,['k'],['d'],N,Y,None,N,,,,,,,male,18,
14,3,157,3,3,4,['k'],['k'],Y,Y,None,N,,,,,,,male,18,
14,4,158,10,10,4,['d'],['d'],Y,N,['space'],N,,,,,,,male,18,
14,5,159,5,5,4,['k'],['k'],Y,Y,['k'],N,,,,,,,male,18,
14,6,160,4,4,4,['k'],['d'],N,N,['space'],N,,,,,,,male,18,
14,7,161,2,2,4,['k'],['d'],N,N,None,Y,,,,,,,male,18,
14,8,162,2,2,4,['d'],['d'],Y,N,None,Y,,,,,,,male,18,
14,9,163,6,6,4,['d'],['d'],Y,N,None,Y,,,,,,,male,18,
14,10,164,8,8,4,['k'],['k'],Y,Y,['space'],Y,,,,,,,male,18,
15,0,165,4,4,4,['k'],['k'],Y,Y,None,N,,,,,,,male,18,
15,1,166,9,9,4,['d'],['k'],N,N,['space'],N,,,,,,,male,18,
15,2,167,2,2,4,['d'],['d'],Y,N,None,Y,,,,,,,male,18,
15,3,168,9,9,4,['k'],['d'],N,Y,None,N,,,,,,,male,18,
15,4,169,9,9,4,['k'],['d'],N,N,None,Y,,,,,,,male,18,
15,5,170,9,9,4,['d'],['k'],N,N,['k'],N,,,,,,,male,18,
15,6,171,3,3,4,['d'],['d'],Y,Y,None,N,,,,,,,male,18,
15,7,172,6,6,4,['k'],['d'],N,Y,['space'],Y,,,,,,,male,18,
15,8,173,9,9,4,['k'],['k'],Y,N,None,Y,,,,,,,male,18,
15,9,174,9,9,4,['d'],['d'],Y,N,None,Y,,,,,,,male,18,
15,10,175,9,9,4,['k'],['k'],Y,N,['space'],N,,,,,,,male,18,
16,0,176,6,6,4,['k'],['d'],N,N,None,Y,,,,,,,male,18,
16,1,177,4,4,4,['d'],['d'],Y,Y,['space'],Y,,,,,,,male,18,
16,2,178,7,7,4,['k'],['k'],Y,N,None,Y,,,,,,,male,18,
16,3,179,6,6,4,['k'],['k'],Y,Y,None,N,,,,,,,male,18,
16,4,180,4,4,4,['k'],['d'],N,Y,['space'],Y,,,,,,,male,18,
16,5,181,10,10,4,['d'],['d'],Y,N,None,Y,,,,,,,male,18,
16,6,182,1,1,4,['k'],['d'],N,N,None,Y,,,,,,,male,18,
16,7,183,2,2,4,['d'],['d'],Y,Y,['space'],Y,,,,,,,male,18,
16,8,184,9,9,4,['k'],['k'],Y,Y,None,N,,,,,,,male,18,
16,9,185,8,8,4,['d'],['d'],Y,N,None,Y,,,,,,,male,18,
16,10,186,5,5,4,['k'],['k'],Y,Y,['space'],Y,,,,,,,male,18,
17,0,187,4,4,4,['k'],['k'],Y,Y,None,N,,,,,,,male,18,
17,1,188,2,2,4,['d'],['k'],N,Y,None,N,,,,,,,male,18,
17,2,189,1,1,4,['k'],['k'],Y,Y,None,N,,,,,,,male,18,
17,3,190,0,0,4,['d'],['d'],Y,Y,['space'],Y,,,,,,,male,18,
17,4,191,0,0,4,['d'],['d'],Y,N,None,Y,,,,,,,male,18,
17,5,192,7,7,4,['d'],['k'],N,Y,['space'],Y,,,,,,,male,18,
17,6,193,0,0,4,['d'],['k'],N,N,['space'],N,,,,,,,male,18,
17,7,194,0,0,4,['k'],['k'],Y,Y,['space'],Y,,,,,,,male,18,
17,8,195,3,3,4,['k'],['d'],N,Y,['space'],Y,,,,,,,male,18,
17,9,196,1,1,4,['d'],['k'],N,N,None,Y,,,,,,,male,18,
17,10,197,8,8,4,['k'],['d'],N,N,['k'],N,,,,,,,male,18,
18,0,198,7,7,4,['d'],['d'],Y,N,['space'],N,,,,,,,male,18,
18,1,199,3,3,4,['k'],['k'],Y,N,None,Y,29,29,24,,,,male,18,
18,2,200,5,5,5,['d'],['k'],N,,,,,,,,,,male,18,
18,3,201,5,5,5,['k'],['d'],N,,,,,,,,,,male,18,
18,4,202,7,7,5,['k'],['d'],N,Y,['space'],Y,,,,,,,male,18,
18,5,203,7,7,5,['d'],['k'],N,Y,['k'],N,,,,,,,male,18,
18,6,204,10,10,5,['k'],['k'],Y,Y,None,N,,,,,,,male,18,
18,7,205,4,4,5,['k'],['k'],Y,Y,None,N,,,,,,,male,18,
18,8,206,7,7,5,['d'],['d'],Y,N,None,Y,,,,,,,male,18,
18,9,207,5,5,5,['d'],['d'],Y,N,None,Y,,,,,,,male,18,
18,10,208,0,0,5,['d'],['k'],N,Y,None,N,,,,,,,male,18,
19,0,209,10,10,5,['k'],['d'],N,Y,['space'],Y,,,,,,,male,18,
19,1,210,6,6,5,['d'],['d'],Y,Y,None,N,,,,,,,male,18,
19,2,211,8,8,5,['k'],['d'],N,Y,['space'],Y,,,,,,,male,18,
19,3,212,4,4,5,['d'],['k'],N,N,None,Y,,,,,,,male,18,
19,4,213,9,9,5,['k'],['d'],N,N,None,Y,,,,,,,male,18,
19,5,214,1,1,5,['d'],['k'],N,Y,['d'],N,,,,,,,male,18,
19,6,215,0,0,5,['d'],['k'],N,N,None,Y,,,,,,,male,18,
19,7,216,6,6,5,['d'],['k'],N,Y,None,N,,,,,,,male,18,
19,8,217,10,10,5,['k'],['d'],N,Y,None,N,,,,,,,male,18,
19,9,218,6,6,5,['d'],['d'],Y,N,None,Y,,,,,,,male,18,
19,10,219,10,10,5,['k'],['d'],N,N,None,Y,,,,,,,male,18,
20,0,220,2,2,5,['k'],['k'],Y,N,None,Y,,,,,,,male,18,
20,1,221,4,4,5,['k'],['d'],N,N,['space'],N,,,,,,,male,18,
20,2,222,7,7,5,['d'],['k'],N,N,None,Y,,,,,,,male,18,
20,3,223,6,6,5,['k'],['k'],Y,N,None,Y,,,,,,,male,18,
20,4,224,6,6,5,['d'],['d'],Y,N,None,Y,,,,,,,male,18,
20,5,225,9,9,5,['k'],['k'],Y,N,None,Y,,,,,,,male,18,
20,6,226,0,0,5,['k'],['d'],N,Y,['space'],Y,,,,,,,male,18,
20,7,227,8,8,5,['k'],['k'],Y,N,None,Y,,,,,,,male,18,
20,8,228,6,6,5,['k'],['d'],N,N,None,Y,,,,,,,male,18,
20,9,229,8,8,5,['d'],['d'],Y,Y,['space'],Y,,,,,,,male,18,
20,10,230,2,2,5,['k'],['k'],Y,Y,['space'],Y,,,,,,,male,18,
21,0,231,1,1,5,['k'],['k'],Y,N,None,Y,,,,,,,male,18,
21,1,232,10,10,5,['k'],['d'],N,Y,['space'],Y,,,,,,,male,18,
21,2,233,6,6,5,['d'],['d'],Y,Y,['space'],Y,,,,,,,male,18,
21,3,234,2,2,5,['d'],['k'],N,N,None,Y,,,,,,,male,18,
21,4,235,8,8,5,['k'],['k'],Y,Y,['space'],Y,,,,,,,male,18,
21,5,236,7,7,5,['k'],['d'],N,Y,['space'],Y,,,,,,,male,18,
21,6,237,4,4,5,['k'],['k'],Y,Y,['space'],Y,,,,,,,male,18,
21,7,238,9,9,5,['k'],['k'],Y,N,None,Y,,,,,,,male,18,
21,8,239,3,3,5,['k'],['d'],N,N,None,Y,,,,,,,male,18,
21,9,240,0,0,5,['d'],['k'],N,N,None,Y,,,,,,,male,18,
21,10,241,6,6,5,['k'],['d'],N,N,None,Y,,,,,,,male,18,
22,0,242,0,0,5,['k'],['d'],N,Y,['space'],Y,,,,,,,male,18,
22,1,243,4,4,5,['d'],['d'],Y,N,None,Y,,,,,,,male,18,
22,2,244,9,9,5,['k'],['k'],Y,N,None,Y,,,,,,,male,18,
22,3,245,1,1,5,['k'],['k'],Y,N,None,Y,,,,,,,male,18,
22,4,246,5,5,5,['d'],['k'],N,N,None,Y,,,,,,,male,18,
22,5,247,0,0,5,['k'],['k'],Y,N,['k'],N,,,,,,,male,18,
22,6,248,2,2,5,['d'],['k'],N,Y,None,N,,,,,,,male,18,
22,7,249,6,6,5,['k'],['d'],N,Y,None,N,22,36,22,,,,male,18,
22,8,250,7,7,6,['d'],['k'],N,,,,,,,,,,male,18,
22,9,251,6,6,6,['k'],['k'],Y,,,,,,,,,,male,18,
22,10,252,3,3,6,['k'],['d'],N,Y,['space'],Y,,,,,,,male,18,
23,0,253,4,4,6,['k'],['k'],Y,Y,['space'],Y,,,,,,,male,18,
23,1,254,5,5,6,['d'],['k'],N,N,None,Y,,,,,,,male,18,
23,2,255,10,10,6,['k'],['d'],N,Y,['space'],Y,,,,,,,male,18,
23,3,256,6,6,6,['d'],['k'],N,Y,['space'],Y,,,,,,,male,18,
23,4,257,2,2,6,['k'],['k'],Y,N,None,Y,,,,,,,male,18,
23,5,258,8,8,6,['k'],['k'],Y,Y,['space'],Y,,,,,,,male,18,
23,6,259,7,7,6,['k'],['k'],Y,N,None,Y,,,,,,,male,18,
23,7,260,5,5,6,['k'],['k'],Y,N,['space'],N,,,,,,,male,18,
23,8,261,4,4,6,['k'],['d'],N,Y,None,N,,,,,,,male,18,
23,9,262,3,3,6,['k'],['d'],N,N,None,Y,,,,,,,male,18,
23,10,263,4,4,6,['k'],['d'],N,N,None,Y,,,,,,,male,18,
24,0,264,9,9,6,['k'],['k'],Y,N,None,Y,,,,,,,male,18,
24,1,265,8,8,6,['k'],['d'],N,Y,['space'],Y,,,,,,,male,18,
24,2,266,6,6,6,['k'],['k'],Y,N,None,Y,,,,,,,male,18,
24,3,267,9,9,6,['k'],['k'],Y,N,None,Y,,,,,,,male,18,
24,4,268,10,10,6,['d'],['k'],N,Y,['space'],Y,,,,,,,male,18,
24,5,269,8,8,6,['k'],['d'],N,N,None,Y,,,,,,,male,18,
24,6,270,2,2,6,['d'],['k'],N,N,None,Y,,,,,,,male,18,
24,7,271,8,8,6,['d'],['d'],Y,Y,['space'],Y,,,,,,,male,18,
24,8,272,4,4,6,['d'],['k'],N,Y,['space'],Y,,,,,,,male,18,
24,9,273,0,0,6,['k'],['d'],N,N,None,Y,,,,,,,male,18,
24,10,274,3,3,6,['d'],['d'],Y,Y,['space'],Y,,,,,,,male,18,
25,0,275,2,2,6,['k'],['d'],N,Y,['space'],Y,,,,,,,male,18,
25,1,276,0,0,6,['d'],['d'],Y,Y,['space'],Y,,,,,,,male,18,
25,2,277,9,9,6,['k'],['d'],N,N,None,Y,,,,,,,male,18,
25,3,278,1,1,6,['k'],['k'],Y,Y,['space'],Y,,,,,,,male,18,
25,4,279,2,2,6,['d'],['k'],N,N,None,Y,,,,,,,male,18,
25,5,280,1,1,6,['k'],['k'],Y,N,None,Y,,,,,,,male,18,
25,6,281,4,4,6,['d'],['d'],Y,N,None,Y,,,,,,,male,18,
25,7,282,10,10,6,['d'],['d'],Y,N,None,Y,,,,,,,male,18,
25,8,283,7,7,6,['k'],['k'],Y,Y,['space'],Y,,,,,,,male,18,
25,9,284,7,7,6,['k'],['d'],N,N,None,Y,,,,,,,male,18,
25,10,285,3,3,6,['k'],['k'],Y,N,None,Y,,,,,,,male,18,
26,0,286,9,9,6,['d'],['k'],N,N,None,Y,,,,,,,male,18,
26,1,287,6,6,6,['k'],['k'],Y,N,None,Y,,,,,,,male,18,
26,2,288,5,5,6,['d'],['k'],N,Y,None,N,,,,,,,male,18,
26,3,289,2,2,6,['k'],['d'],N,Y,['space'],Y,,,,,,,male,18,
26,4,290,5,5,6,['k'],['k'],Y,Y,['space'],Y,,,,,,,male,18,
26,5,291,3,3,6,['d'],['d'],Y,Y,['space'],Y,,,,,,,male,18,
26,6,292,7,7,6,['k'],['d'],N,N,None,Y,,,,,,,male,18,
26,7,293,1,1,6,['d'],['d'],Y,Y,['space'],Y,,,,,,,male,18,
26,8,294,3,3,6,['k'],['k'],Y,Y,['space'],Y,,,,,,,male,18,
26,9,295,10,10,6,['d'],['d'],Y,N,None,Y,,,,,,,male,18,
26,10,296,4,4,6,['k'],['d'],N,Y,['space'],Y,,,,,,,male,18,
27,0,297,9,9,6,['d'],['d'],Y,N,None,Y,,,,,,,male,18,
27,1,298,3,3,6,['k'],['k'],Y,N,None,Y,,,,,,,male,18,
27,2,299,6,6,6,['k'],['d'],N,Y,['space'],Y,26,45,23,,,,male,18,
27,3,300,8,8,7,['d'],['k'],N,,,,,,,,,,male,18,
27,4,301,6,6,7,['k'],['k'],Y,,,,,,,,,,male,18,
27,5,302,6,6,7,['d'],['d'],Y,N,None,Y,,,,,,,male,18,
27,6,303,0,0,7,['d'],['d'],Y,Y,['space'],Y,,,,,,,male,18,
27,7,304,9,9,7,['d'],['k'],N,Y,['space'],Y,,,,,,,male,18,
27,8,305,3,3,7,['k'],['k'],Y,Y,['space'],Y,,,,,,,male,18,
27,9,306,8,8,7,['k'],['d'],N,N,['d'],N,,,,,,,male,18,
27,10,307,10,10,7,['d'],['k'],N,N,None,Y,,,,,,,male,18,
28,0,308,6,6,7,['k'],['k'],Y,Y,['space'],Y,,,,,,,male,18,
28,1,309,5,5,7,['k'],['d'],N,Y,['space'],Y,,,,,,,male,18,
28,2,310,5,5,7,['k'],['k'],Y,Y,['space'],Y,,,,,,,male,18,
28,3,311,8,8,7,['d'],['k'],N,N,None,Y,,,,,,,male,18,
28,4,312,3,3,7,['k'],['k'],Y,Y,['space'],Y,,,,,,,male,18,
28,5,313,2,2,7,['k'],['d'],N,N,None,Y,,,,,,,male,18,
28,6,314,6,6,7,['k'],['d'],N,Y,['space'],Y,,,,,,,male,18,
28,7,315,10,10,7,['d'],['d'],Y,Y,['space'],Y,,,,,,,male,18,
28,8,316,4,4,7,['k'],['k'],Y,N,None,Y,,,,,,,male,18,
28,9,317,3,3,7,['k'],['d'],N,N,None,Y,,,,,,,male,18,
28,10,318,9,9,7,['k'],['d'],N,N,None,Y,,,,,,,male,18,
29,0,319,5,5,7,['k'],['d'],N,N,None,Y,,,,,,,male,18,
29,1,320,8,8,7,['d'],['k'],N,N,None,Y,,,,,,,male,18,
29,2,321,9,9,7,['k'],['d'],N,Y,None,N,,,,,,,male,18,
29,3,322,3,3,7,['k'],['k'],Y,N,None,Y,,,,,,,male,18,
29,4,323,8,8,7,['k'],['d'],N,Y,None,N,,,,,,,male,18,
29,5,324,7,7,7,['k'],['d'],N,N,None,Y,,,,,,,male,18,
29,6,325,10,10,7,['k'],['k'],Y,Y,None,N,,,,,,,male,18,
29,7,326,10,10,7,['k'],['k'],Y,N,None,Y,,,,,,,male,18,
29,8,327,10,10,7,['d'],['d'],Y,Y,['space'],Y,,,,,,,male,18,
29,9,328,7,7,7,['k'],['d'],N,N,None,Y,,,,,,,male,18,
29,10,329,1,1,7,['k'],['d'],N,N,None,Y,,,,,,,male,18,
30,0,330,6,6,7,['k'],['k'],Y,Y,['space'],Y,,,,,,,male,18,
30,1,331,7,7,7,['k'],['d'],N,Y,None,N,,,,,,,male,18,
30,2,332,6,6,7,['k'],['d'],N,N,None,Y,,,,,,,male,18,
30,3,333,3,3,7,['d'],['d'],Y,Y,['space'],Y,,,,,,,male,18,
30,4,334,0,0,7,['k'],['d'],N,Y,['space'],Y,,,,,,,male,18,
30,5,335,0,0,7,['k'],['d'],N,N,None,Y,,,,,,,male,18,
30,6,336,5,5,7,['k'],['d'],N,N,None,Y,,,,,,,male,18,
30,7,337,4,4,7,['d'],['k'],N,N,None,Y,,,,,,,male,18,
30,8,338,0,0,7,['d'],['k'],N,N,None,Y,,,,,,,male,18,
30,9,339,1,1,7,['k'],['k'],Y,Y,['space'],Y,,,,,,,male,18,
30,10,340,3,3,7,['d'],['d'],Y,N,None,Y,,,,,,,male,18,
31,0,341,0,0,7,['k'],['k'],Y,N,None,Y,,,,,,,male,18,
31,1,342,9,9,7,['d'],['k'],N,N,None,Y,,,,,,,male,18,
31,2,343,8,8,7,['k'],['d'],N,Y,['space'],Y,,,,,,,male,18,
31,3,344,0,0,7,['k'],['d'],N,N,None,Y,,,,,,,male,18,
31,4,345,5,5,7,['k'],['d'],N,N,None,Y,,,,,,,male,18,
31,5,346,0,0,7,['d'],['d'],Y,N,None,Y,,,,,,,male,18,
31,6,347,0,0,7,['k'],['k'],Y,Y,['space'],Y,,,,,,,male,18,
31,7,348,4,4,7,['k'],['k'],Y,N,None,Y,,,,,,,male,18,
31,8,349,2,2,7,['k'],['k'],Y,Y,['space'],Y,22,43,21,,,,male,18,
31,9,350,10,10,8,['d'],['k'],N,,,,,,,,,,male,18,
31,10,351,7,7,8,['k'],['k'],Y,,,,,,,,,,male,18,
32,0,352,4,4,8,['d'],['d'],Y,N,None,Y,,,,,,,male,18,
32,1,353,1,1,8,['k'],['k'],Y,N,None,Y,,,,,,,male,18,
32,2,354,8,8,8,['d'],['d'],Y,N,None,Y,,,,,,,male,18,
32,3,355,0,0,8,['k'],['d'],N,N,None,Y,,,,,,,male,18,
32,4,356,7,7,8,['d'],['k'],N,N,None,Y,,,,,,,male,18,
32,5,357,8,8,8,['d'],['d'],Y,N,['space'],N,,,,,,,male,18,
32,6,358,5,5,8,['k'],['d'],N,Y,None,N,,,,,,,male,18,
32,7,359,4,4,8,['k'],['k'],Y,Y,['space'],Y,,,,,,,male,18,
32,8,360,6,6,8,['k'],['d'],N,Y,['space'],Y,,,,,,,male,18,
32,9,361,3,3,8,['k'],['k'],Y,Y,['space'],Y,,,,,,,male,18,
32,10,362,3,3,8,['k'],['k'],Y,Y,['space'],Y,,,,,,,male,18,
33,0,363,5,5,8,['k'],['k'],Y,N,None,Y,,,,,,,male,18,
33,1,364,2,2,8,['k'],['d'],N,Y,['space'],Y,,,,,,,male,18,
33,2,365,0,0,8,['d'],['d'],Y,N,None,Y,,,,,,,male,18,
33,3,366,0,0,8,['d'],['d'],Y,Y,['space'],Y,,,,,,,male,18,
33,4,367,7,7,8,['d'],['k'],N,Y,['space'],Y,,,,,,,male,18,
33,5,368,9,9,8,['k'],['d'],N,N,None,Y,,,,,,,male,18,
33,6,369,5,5,8,['d'],['k'],N,N,None,Y,,,,,,,male,18,
33,7,370,4,4,8,['k'],['d'],N,N,None,Y,,,,,,,male,18,
33,8,371,3,3,8,['d'],['d'],Y,N,None,Y,,,,,,,male,18,
33,9,372,7,7,8,['d'],['d'],Y,Y,['space'],Y,,,,,,,male,18,
33,10,373,0,0,8,['k'],['k'],Y,N,None,Y,,,,,,,male,18,
34,0,374,3,3,8,['k'],['k'],Y,N,None,Y,,,,,,,male,18,
34,1,375,1,1,8,['d'],['d'],Y,N,None,Y,,,,,,,male,18,
34,2,376,2,2,8,['d'],['k'],N,Y,['space'],Y,,,,,,,male,18,
34,3,377,10,10,8,['k'],['k'],Y,N,None,Y,,,,,,,male,18,
34,4,378,6,6,8,['d'],['k'],N,Y,['space'],Y,,,,,,,male,18,
34,5,379,0,0,8,['k'],['k'],Y,N,None,Y,,,,,,,male,18,
34,6,380,1,1,8,['k'],['k'],Y,Y,['space'],Y,,,,,,,male,18,
34,7,381,5,5,8,['k'],['k'],Y,Y,['space'],Y,,,,,,,male,18,
34,8,382,5,5,8,['k'],['d'],N,N,None,Y,,,,,,,male,18,
34,9,383,4,4,8,['d'],['k'],N,N,None,Y,,,,,,,male,18,
34,10,384,2,2,8,['k'],['d'],N,N,None,Y,,,,,,,male,18,
35,0,385,8,8,8,['k'],['d'],N,N,None,Y,,,,,,,male,18,
35,1,386,3,3,8,['d'],['k'],N,N,None,Y,,,,,,,male,18,
35,2,387,6,6,8,['k'],['d'],N,Y,['space'],Y,,,,,,,male,18,
35,3,388,9,9,8,['k'],['d'],N,N,['d'],N,,,,,,,male,18,
35,4,389,7,7,8,['d'],['k'],N,Y,['space'],Y,,,,,,,male,18,
35,5,390,5,5,8,['k'],['d'],N,N,None,Y,,,,,,,male,18,
35,6,391,0,0,8,['k'],['d'],N,Y,['space'],Y,,,,,,,male,18,
35,7,392,6,6,8,['d'],['k'],N,N,None,Y,,,,,,,male,18,
35,8,393,7,7,8,['d'],['d'],Y,N,None,Y,,,,,,,male,18,
35,9,394,6,6,8,['d'],['k'],N,N,None,Y,,,,,,,male,18,
35,10,395,10,10,8,['d'],['d'],Y,Y,['space'],Y,,,,,,,male,18,
36,0,396,10,10,8,['k'],['d'],N,N,None,Y,,,,,,,male,18,
36,1,397,10,10,8,['d'],['k'],N,Y,['space'],Y,,,,,,,male,18,
36,2,398,0,0,8,['d'],['k'],N,N,None,Y,,,,,,,male,18,
36,3,399,8,8,8,['k'],['k'],Y,N,None,Y,23,45,18,,,,male,18,
36,4,400,4,4,9,['k'],['k'],Y,,,,,,,,,,male,18,
36,5,401,10,10,9,['d'],['k'],N,,,,,,,,,,male,18,
36,6,402,10,10,9,['k'],['k'],Y,N,None,Y,,,,,,,male,18,
36,7,403,5,5,9,['d'],['d'],Y,Y,['space'],Y,,,,,,,male,18,
36,8,404,8,8,9,['d'],['d'],Y,N,None,Y,,,,,,,male,18,
36,9,405,7,7,9,['k'],['k'],Y,Y,['space'],Y,,,,,,,male,18,
36,10,406,1,1,9,['k'],['k'],Y,Y,['space'],Y,,,,,,,male,18,
37,0,407,10,10,9,['k'],['k'],Y,N,None,Y,,,,,,,male,18,
37,1,408,9,9,9,['d'],['k'],N,N,None,Y,,,,,,,male,18,
37,2,409,3,3,9,['k'],['k'],Y,N,None,Y,,,,,,,male,18,
37,3,410,9,9,9,['k'],['d'],N,N,None,Y,,,,,,,male,18,
37,4,411,7,7,9,['d'],['k'],N,N,None,Y,,,,,,,male,18,
37,5,412,5,5,9,['k'],['d'],N,Y,['space'],Y,,,,,,,male,18,
37,6,413,5,5,9,['d'],['d'],Y,Y,['space'],Y,,,,,,,male,18,
37,7,414,5,5,9,['k'],['d'],N,N,None,Y,,,,,,,male,18,
37,8,415,10,10,9,['d'],['d'],Y,N,None,Y,,,,,,,male,18,
37,9,416,0,0,9,['k'],['d'],N,Y,['space'],Y,,,,,,,male,18,
37,10,417,10,10,9,['d'],['d'],Y,N,None,Y,,,,,,,male,18,
38,0,418,0,0,9,['k'],['d'],N,Y,['space'],Y,,,,,,,male,18,
38,1,419,6,6,9,['d'],['d'],Y,Y,None,N,,,,,,,male,18,
38,2,420,10,10,9,['d'],['d'],Y,N,None,Y,,,,,,,male,18,
38,3,421,7,7,9,['k'],['k'],Y,Y,None,N,,,,,,,male,18,
38,4,422,9,9,9,['d'],['d'],Y,Y,['space'],Y,,,,,,,male,18,
38,5,423,5,5,9,['k'],['k'],Y,Y,['space'],Y,,,,,,,male,18,
38,6,424,4,4,9,['k'],['d'],N,N,None,Y,,,,,,,male,18,
38,7,425,0,0,9,['d'],['k'],N,N,None,Y,,,,,,,male,18,
38,8,426,0,0,9,['d'],['k'],N,Y,['space'],Y,,,,,,,male,18,
38,9,427,8,8,9,['d'],['k'],N,N,['k'],N,,,,,,,male,18,
38,10,428,0,0,9,['k'],['k'],Y,N,None,Y,,,,,,,male,18,
39,0,429,5,5,9,['k'],['k'],Y,N,['d'],N,,,,,,,male,18,
39,1,430,8,8,9,['k'],['d'],N,N,None,Y,,,,,,,male,18,
39,2,431,8,8,9,['d'],['k'],N,N,None,Y,,,,,,,male,18,
39,3,432,6,6,9,['k'],['d'],N,Y,None,N,,,,,,,male,18,
39,4,433,8,8,9,['d'],['d'],Y,Y,['space'],Y,,,,,,,male,18,
39,5,434,3,3,9,['d'],['k'],N,N,None,Y,,,,,,,male,18,
39,6,435,4,4,9,['d'],['d'],Y,N,None,Y,,,,,,,male,18,
39,7,436,4,4,9,['k'],['k'],Y,Y,['space'],Y,,,,,,,male,18,
39,8,437,5,5,9,['d'],['k'],N,N,None,Y,,,,,,,male,18,
39,9,438,6,6,9,['k'],['d'],N,N,None,Y,,,,,,,male,18,
39,10,439,1,1,9,['d'],['k'],N,Y,['space'],Y,,,,,,,male,18,
40,0,440,2,2,9,['d'],['k'],N,Y,['space'],Y,,,,,,,male,18,
40,1,441,6,6,9,['k'],['k'],Y,Y,['space'],Y,,,,,,,male,18,
40,2,442,1,1,9,['d'],['d'],Y,Y,['space'],Y,,,,,,,male,18,
40,3,443,4,4,9,['k'],['d'],N,N,None,Y,,,,,,,male,18,
40,4,444,4,4,9,['k'],['k'],Y,N,['space'],N,,,,,,,male,18,
40,5,445,5,5,9,['d'],['d'],Y,Y,None,N,,,,,,,male,18,
40,6,446,4,4,9,['d'],['d'],Y,N,None,Y,,,,,,,male,18,
40,7,447,9,9,9,['k'],['k'],Y,N,['space'],N,,,,,,,male,18,
40,8,448,1,1,9,['d'],['d'],Y,Y,['space'],Y,,,,,,,male,18,
40,9,449,2,2,9,['d'],['k'],N,N,None,Y,28,40,21,,,,male,18,
40,10,450,3,3,10,['d'],['k'],N,,,,,,,,,,male,18,
41,0,451,6,6,10,['d'],['k'],N,,,,,,,,,,male,18,
41,1,452,6,6,10,['k'],['d'],N,Y,['space'],Y,,,,,,,male,18,
41,2,453,1,1,10,['d'],['d'],Y,Y,['space'],Y,,,,,,,male,18,
41,3,454,9,9,10,['k'],['k'],Y,Y,['space'],Y,,,,,,,male,18,
41,4,455,8,8,10,['d'],['k'],N,N,None,Y,,,,,,,male,18,
41,5,456,1,1,10,['k'],['d'],N,Y,None,N,,,,,,,male,18,
41,6,457,5,5,10,['d'],['d'],Y,Y,['space'],Y,,,,,,,male,18,
41,7,458,6,6,10,['k'],['d'],N,Y,['space'],Y,,,,,,,male,18,
41,8,459,1,1,10,['k'],['d'],N,Y,['space'],Y,,,,,,,male,18,
41,9,460,10,10,10,['d'],['d'],Y,N,None,Y,,,,,,,male,18,
41,10,461,6,6,10,['k'],['d'],N,N,None,Y,,,,,,,male,18,
42,0,462,5,5,10,['k'],['k'],Y,N,None,Y,,,,,,,male,18,
42,1,463,1,1,10,['k'],['k'],Y,Y,['space'],Y,,,,,,,male,18,
42,2,464,2,2,10,['k'],['d'],N,Y,['space'],Y,,,,,,,male,18,
42,3,465,2,2,10,['k'],['k'],Y,N,None,Y,,,,,,,male,18,
42,4,466,1,1,10,['d'],['k'],N,Y,['d'],N,,,,,,,male,18,
42,5,467,9,9,10,['k'],['d'],N,N,None,Y,,,,,,,male,18,
42,6,468,1,1,10,['k'],['d'],N,Y,['space'],Y,,,,,,,male,18,
42,7,469,7,7,10,['k'],['k'],Y,Y,['space'],Y,,,,,,,male,18,
42,8,470,1,1,10,['k'],['k'],Y,Y,['space'],Y,,,,,,,male,18,
42,9,471,3,3,10,['k'],['d'],N,Y,['space'],Y,,,,,,,male,18,
42,10,472,8,8,10,['k'],['d'],N,N,None,Y,,,,,,,male,18,
43,0,473,1,1,10,['k'],['k'],Y,N,None,Y,,,,,,,male,18,
43,1,474,5,5,10,['d'],['k'],N,Y,['space'],Y,,,,,,,male,18,
43,2,475,9,9,10,['k'],['d'],N,N,None,Y,,,,,,,male,18,
43,3,476,5,5,10,['d'],['d'],Y,Y,None,N,,,,,,,male,18,
43,4,477,1,1,10,['d'],['d'],Y,Y,None,N,,,,,,,male,18,
43,5,478,10,10,10,['k'],['k'],Y,Y,['space'],Y,,,,,,,male,18,
43,6,479,7,7,10,['d'],['d'],Y,Y,['space'],Y,,,,,,,male,18,
43,7,480,1,1,10,['k'],['d'],N,N,None,Y,,,,,,,male,18,
43,8,481,7,7,10,['d'],['d'],Y,N,None,Y,,,,,,,male,18,
43,9,482,3,3,10,['k'],['k'],Y,N,None,Y,,,,,,,male,18,
43,10,483,4,4,10,['d'],['d'],Y,N,None,Y,,,,,,,male,18,
44,0,484,1,1,10,['k'],['d'],N,N,None,Y,,,,,,,male,18,
44,1,485,10,10,10,['k'],['d'],N,Y,['space'],Y,,,,,,,male,18,
44,2,486,7,7,10,['d'],['k'],N,Y,['space'],Y,,,,,,,male,18,
44,3,487,6,6,10,['k'],['d'],N,N,None,Y,,,,,,,male,18,
44,4,488,1,1,10,['d'],['k'],N,Y,['space'],Y,,,,,,,male,18,
44,5,489,8,8,10,['k'],['d'],N,N,None,Y,,,,,,,male,18,
44,6,490,4,4,10,['d'],['d'],Y,Y,['space'],Y,,,,,,,male,18,
44,7,491,3,3,10,['k'],['k'],Y,Y,['space'],Y,,,,,,,male,18,
44,8,492,3,3,10,['d'],['k'],N,Y,['space'],Y,,,,,,,male,18,
44,9,493,9,9,10,['k'],['k'],Y,N,None,Y,,,,,,,male,18,
44,10,494,2,2,10,['d'],['k'],N,N,None,Y,,,,,,,male,18,
45,0,495,0,0,10,['k'],['k'],Y,N,None,Y,,,,,,,male,18,
45,1,496,2,2,10,['d'],['k'],N,N,None,Y,,,,,,,male,18,
45,2,497,8,8,10,['k'],['k'],Y,N,None,Y,,,,,,,male,18,
45,3,498,8,8,10,['d'],['k'],N,N,None,Y,,,,,,,male,18,
45,4,499,7,7,10,['d'],['k'],N,N,None,Y,22,44,25,,,,male,18,
45,5,500,0,0,11,['k'],['k'],N,,,,,,,Y,Y,Y,male,18,
45,6,501,1,1,11,['d'],['d'],N,,,,,,,,Y,Y,male,18,
45,7,502,2,2,11,['d'],['k'],Y,N,None,Y,,,,,Y,Y,male,18,
45,8,503,3,3,11,['k'],['d'],Y,N,None,Y,,,,,Y,Y,male,18,
45,9,504,2,2,11,['k'],['d'],Y,Y,['space'],Y,,,,,Y,Y,male,18,
45,10,505,7,7,11,['d'],['k'],Y,N,['space'],N,,,,,Y,Y,male,18,
46,0,506,10,10,11,['k'],['d'],Y,Y,['space'],Y,,,,,Y,Y,male,18,
46,1,507,1,1,11,['d'],['k'],Y,Y,['space'],Y,,,,,Y,Y,male,18,
46,2,508,7,7,11,['d'],['k'],Y,N,None,Y,,,,,Y,Y,male,18,
46,3,509,3,3,11,None,,Timed out,Y,['d'],N,,,,,Y,Y,male,18,
46,4,510,2,2,11,['k'],['d'],Y,Y,['space'],Y,,,,,Y,Y,male,18,
46,5,511,5,5,11,['d'],['k'],Y,Y,['space'],Y,,,,,Y,Y,male,18,
46,6,512,1,1,11,['d'],['k'],Y,Y,['space'],Y,,,,,Y,Y,male,18,
46,7,513,2,2,11,['d'],['k'],Y,N,None,Y,,,,,Y,Y,male,18,
46,8,514,2,2,11,['d'],['k'],Y,N,None,Y,,,,,Y,Y,male,18,
46,9,515,9,9,11,['k'],['d'],Y,Y,['space'],Y,,,,,Y,Y,male,18,
46,10,516,2,2,11,['d'],['d'],N,Y,['space'],Y,,,,,Y,Y,male,18,
47,0,517,7,7,11,['k'],['d'],Y,N,None,Y,,,,,Y,Y,male,18,
47,1,518,7,7,11,['d'],['d'],N,Y,['space'],Y,,,,,Y,Y,male,18,
47,2,519,9,9,11,['d'],['d'],N,N,None,Y,,,,,Y,Y,male,18,
47,3,520,9,9,11,['k'],['k'],N,Y,['space'],Y,,,,,Y,Y,male,18,
47,4,521,6,6,11,['k'],['k'],N,Y,['space'],Y,,,,,Y,Y,male,18,
47,5,522,3,3,11,['d'],['k'],Y,N,None,Y,,,,,Y,Y,male,18,
47,6,523,0,0,11,['d'],['d'],N,N,None,Y,,,,,Y,Y,male,18,
47,7,524,9,9,11,['k'],['d'],Y,Y,['space'],Y,,,,,Y,Y,male,18,
47,8,525,6,6,11,['d'],['k'],Y,Y,['space'],Y,,,,,Y,Y,male,18,
47,9,526,1,1,11,['k'],['d'],Y,N,None,Y,,,,,Y,Y,male,18,
47,10,527,9,9,11,['d'],['k'],Y,N,None,Y,,,,,Y,Y,male,18,
48,0,528,8,8,11,['d'],['k'],Y,Y,['space'],Y,,,,,Y,Y,male,18,
48,1,529,7,7,11,['k'],['k'],N,N,None,Y,,,,,Y,Y,male,18,
48,2,530,4,4,11,['d'],['d'],N,Y,['space'],Y,,,,,Y,Y,male,18,
48,3,531,0,0,11,['d'],['d'],N,Y,['space'],Y,,,,,Y,Y,male,18,
48,4,532,10,10,11,['k'],['k'],N,N,None,Y,,,,,Y,Y,male,18,
48,5,533,3,3,11,['d'],['k'],Y,N,None,Y,,,,,Y,Y,male,18,
48,6,534,3,3,11,['d'],['k'],Y,Y,['space'],Y,,,,,Y,Y,male,18,
48,7,535,1,1,11,['d'],['d'],N,Y,['space'],Y,,,,,Y,Y,male,18,
48,8,536,3,3,11,['d'],['k'],Y,N,None,Y,,,,,Y,Y,male,18,
48,9,537,6,6,11,None,,Timed out,N,['k'],N,,,,,Y,Y,male,18,
48,10,538,6,6,11,None,,Timed out,Y,None,N,,,,,Y,Y,male,18,
49,0,539,9,9,11,['d'],['k'],Y,N,None,Y,,,,,Y,Y,male,18,
49,1,540,2,2,11,['k'],['d'],Y,Y,['space'],Y,,,,,Y,Y,male,18,
49,2,541,10,10,11,['k'],['k'],N,N,None,Y,,,,,Y,Y,male,18,
49,3,542,8,8,11,['d'],['d'],N,Y,['space'],Y,,,,,Y,Y,male,18,
49,4,543,9,9,11,['k'],['d'],Y,N,['space'],N,,,,,Y,Y,male,18,
49,5,544,1,1,11,['k'],['k'],N,N,None,Y,,,,,Y,Y,male,18,
49,6,545,2,2,11,['k'],['d'],Y,Y,['space'],Y,,,,,Y,Y,male,18,
49,7,546,2,2,11,['d'],['k'],Y,N,None,Y,,,,,Y,Y,male,18,
49,8,547,3,3,11,['d'],['d'],N,N,None,Y,,,,,Y,Y,male,18,
49,9,548,9,9,11,['k'],['k'],N,N,None,Y,,,,,Y,Y,male,18,
49,10,549,0,0,11,['d'],['d'],N,N,None,Y,28,43,23,,Y,Y,male,18,
50,0,550,4,4,12,['d'],['d'],N,,,,,,,,Y,Y,male,18,
50,1,551,9,9,12,['k'],['k'],N,,,,,,,,Y,Y,male,18,
50,2,552,2,2,12,['d'],['k'],Y,N,None,Y,,,,,Y,Y,male,18,
50,3,553,1,1,12,['d'],['d'],N,N,None,Y,,,,,Y,Y,male,18,
50,4,554,0,0,12,['d'],['d'],N,Y,None,N,,,,,Y,Y,male,18,
50,5,555,3,3,12,['d'],['d'],N,N,None,Y,,,,,Y,Y,male,18,
50,6,556,1,1,12,None,,Timed out,Y,['space'],Y,,,,,Y,Y,male,18,
50,7,557,7,7,12,['d'],['k'],Y,Y,['space'],Y,,,,,Y,Y,male,18,
50,8,558,3,3,12,['d'],['k'],Y,N,None,Y,,,,,Y,Y,male,18,
50,9,559,10,10,12,['k'],['d'],Y,Y,['space'],Y,,,,,Y,Y,male,18,
50,10,560,4,4,12,['d'],['d'],N,Y,['space'],Y,,,,,Y,Y,male,18,
51,0,561,8,8,12,['k'],['d'],Y,Y,['space'],Y,,,,,Y,Y,male,18,
51,1,562,8,8,12,['d'],['d'],N,Y,['space'],Y,,,,,Y,Y,male,18,
51,2,563,10,10,12,['k'],['k'],N,Y,['space'],Y,,,,,Y,Y,male,18,
51,3,564,10,10,12,['d'],['d'],N,N,None,Y,,,,,Y,Y,male,18,
51,4,565,10,10,12,['k'],['k'],N,Y,['space'],Y,,,,,Y,Y,male,18,
51,5,566,3,3,12,['d'],['d'],N,Y,['space'],Y,,,,,Y,Y,male,18,
51,6,567,4,4,12,['d'],['k'],Y,N,None,Y,,,,,Y,Y,male,18,
51,7,568,4,4,12,['k'],['d'],Y,Y,['space'],Y,,,,,Y,Y,male,18,
51,8,569,0,0,12,['d'],['d'],N,Y,['space'],Y,,,,,Y,Y,male,18,
51,9,570,6,6,12,['d'],['k'],Y,Y,['k'],N,,,,,Y,Y,male,18,
51,10,571,5,5,12,['d'],['d'],N,N,None,Y,,,,,Y,Y,male,18,
52,0,572,8,8,12,['d'],['k'],Y,N,None,Y,,,,,Y,Y,male,18,
52,1,573,4,4,12,['k'],['d'],Y,N,None,Y,,,,,Y,Y,male,18,
52,2,574,3,3,12,['d'],['k'],Y,N,None,Y,,,,,Y,Y,male,18,
52,3,575,1,1,12,['k'],['k'],N,N,None,Y,,,,,Y,Y,male,18,
52,4,576,1,1,12,['d'],['k'],Y,N,['space'],N,,,,,Y,Y,male,18,
52,5,577,10,10,12,['d'],['d'],N,N,None,Y,,,,,Y,Y,male,18,
52,6,578,8,8,12,['k'],['k'],N,N,None,Y,,,,,Y,Y,male,18,
52,7,579,6,6,12,['d'],['k'],Y,Y,['space'],Y,,,,,Y,Y,male,18,
52,8,580,2,2,12,['d'],['d'],N,Y,['space'],Y,,,,,Y,Y,male,18,
52,9,581,8,8,12,['d'],['d'],N,Y,['space'],Y,,,,,Y,Y,male,18,
52,10,582,2,2,12,['k'],['k'],N,N,None,Y,,,,,Y,Y,male,18,
53,0,583,10,10,12,['d'],['d'],N,N,None,Y,,,,,Y,Y,male,18,
53,1,584,3,3,12,['k'],['d'],Y,N,None,Y,,,,,Y,Y,male,18,
53,2,585,4,4,12,['k'],['d'],Y,Y,['space'],Y,,,,,Y,Y,male,18,
53,3,586,3,3,12,None,,Timed out,Y,['space'],Y,,,,,Y,Y,male,18,
53,4,587,1,1,12,['k'],['d'],Y,Y,['space'],Y,,,,,Y,Y,male,18,
53,5,588,2,2,12,['d'],['d'],N,Y,['space'],Y,,,,,Y,Y,male,18,
53,6,589,5,5,12,['k'],['d'],Y,N,None,Y,,,,,Y,Y,male,18,
53,7,590,5,5,12,['k'],['k'],N,Y,['space'],Y,,,,,Y,Y,male,18,
53,8,591,4,4,12,['d'],['d'],N,Y,['space'],Y,,,,,Y,Y,male,18,
53,9,592,5,5,12,['k'],['d'],Y,N,None,Y,,,,,Y,Y,male,18,
53,10,593,9,9,12,['d'],['k'],Y,Y,['space'],Y,,,,,Y,Y,male,18,
54,0,594,3,3,12,['k'],['k'],N,N,None,Y,,,,,Y,Y,male,18,
54,1,595,8,8,12,['d'],['d'],N,N,None,Y,,,,,Y,Y,male,18,
54,2,596,8,8,12,['k'],['d'],Y,Y,['space'],Y,,,,,Y,Y,male,18,
54,3,597,10,10,12,['d'],['k'],Y,Y,['space'],Y,,,,,Y,Y,male,18,
54,4,598,2,2,12,['k'],['k'],N,N,None,Y,,,,,Y,Y,male,18,
54,5,599,9,9,12,['d'],['d'],N,N,None,Y,21,45,25,,Y,Y,male,18,
