.thisRepN,.thisTrialN,.thisN,.thisIndex,.thisTrial,Block Number,Key pressed,Category,Correct?,Int Match?,Int Response,Int Correct?,Line Accuracy,Interference Accuracy,Matching Interferences,New instruction shown?,Buttons switched?,Fast?,gender,age,
0,0,0,2,2,1,['k'],['d'],N,,,,,,,,,,F,23,
0,1,1,0,0,1,['d'],['k'],N,,,,,,,,,,F,23,
0,2,2,5,5,1,['d'],['d'],Y,Y,['space'],Y,,,,,,,F,23,
0,3,3,6,6,1,['k'],['k'],Y,N,None,Y,,,,,,,F,23,
0,4,4,10,10,1,['d'],['d'],Y,Y,None,N,,,,,,,F,23,
0,5,5,9,9,1,['d'],['k'],N,Y,['space'],Y,,,,,,,F,23,
0,6,6,8,8,1,['d'],['k'],N,Y,None,N,,,,,,,F,23,
0,7,7,5,5,1,['k'],['d'],N,Y,['space'],Y,,,,,,,F,23,
0,8,8,2,2,1,['k'],['d'],N,Y,['space'],Y,,,,,,,F,23,
0,9,9,6,6,1,['d'],['d'],Y,N,None,Y,,,,,,,F,23,
0,10,10,10,10,1,['d'],['k'],N,Y,['space'],Y,,,,,,,F,23,
1,0,11,0,0,1,['d'],['d'],Y,N,['space'],N,,,,,,,F,23,
1,1,12,2,2,1,['d'],['k'],N,N,None,Y,,,,,,,F,23,
1,2,13,1,1,1,['k'],['k'],Y,N,None,Y,,,,,,,F,23,
1,3,14,7,7,1,['d'],['d'],Y,N,None,Y,,,,,,,F,23,
1,4,15,4,4,1,['k'],['d'],N,Y,['space'],Y,,,,,,,F,23,
1,5,16,10,10,1,['d'],['k'],N,Y,['space'],Y,,,,,,,F,23,
1,6,17,5,5,1,['k'],['d'],N,N,None,Y,,,,,,,F,23,
1,7,18,7,7,1,['k'],['k'],Y,Y,['space'],Y,,,,,,,F,23,
1,8,19,8,8,1,['k'],['d'],N,Y,['space'],Y,,,,,,,F,23,
1,9,20,4,4,1,['d'],['d'],Y,Y,None,N,,,,,,,F,23,
1,10,21,10,10,1,['k'],['k'],Y,N,None,Y,,,,,,,F,23,
2,0,22,10,10,1,['d'],['d'],Y,Y,None,N,,,,,,,F,23,
2,1,23,8,8,1,['k'],['k'],Y,N,None,Y,,,,,,,F,23,
2,2,24,5,5,1,['d'],['k'],N,Y,['space'],Y,,,,,,,F,23,
2,3,25,1,1,1,['k'],['k'],Y,Y,None,N,,,,,,,F,23,
2,4,26,10,10,1,['d'],['k'],N,N,None,Y,,,,,,,F,23,
2,5,27,10,10,1,['k'],['d'],N,Y,None,N,,,,,,,F,23,
2,6,28,8,8,1,['k'],['d'],N,N,None,Y,,,,,,,F,23,
2,7,29,10,10,1,['k'],['d'],N,Y,['space'],Y,,,,,,,F,23,
2,8,30,4,4,1,['k'],['k'],Y,N,None,Y,,,,,,,F,23,
2,9,31,1,1,1,['d'],['k'],N,N,None,Y,,,,,,,F,23,
2,10,32,7,7,1,['k'],['k'],Y,Y,['space'],Y,,,,,,,F,23,
3,0,33,2,2,1,['k'],['k'],Y,N,None,Y,,,,,,,F,23,
3,1,34,0,0,1,['d'],['k'],N,Y,['space'],Y,,,,,,,F,23,
3,2,35,8,8,1,['k'],['d'],N,N,None,Y,,,,,,,F,23,
3,3,36,7,7,1,['k'],['k'],Y,N,None,Y,,,,,,,F,23,
3,4,37,6,6,1,['k'],['d'],N,Y,None,N,,,,,,,F,23,
3,5,38,1,1,1,['k'],['k'],Y,Y,['space'],Y,,,,,,,F,23,
3,6,39,6,6,1,['d'],['d'],Y,Y,None,N,,,,,,,F,23,
3,7,40,2,2,1,['d'],['d'],Y,N,None,Y,,,,,,,F,23,
3,8,41,0,0,1,['k'],['k'],Y,Y,None,N,,,,,,,F,23,
3,9,42,1,1,1,['k'],['k'],Y,N,None,Y,,,,,,,F,23,
3,10,43,4,4,1,['k'],['k'],Y,N,None,Y,,,,,,,F,23,
4,0,44,9,9,1,['k'],['d'],N,N,None,Y,,,,,,,F,23,
4,1,45,1,1,1,['k'],['d'],N,Y,None,N,,,,,,,F,23,
4,2,46,3,3,1,['d'],['k'],N,N,None,Y,,,,,,,F,23,
4,3,47,7,7,1,['k'],['k'],Y,N,None,Y,,,,,,,F,23,
4,4,48,5,5,1,['k'],['d'],N,Y,None,N,,,,,,,F,23,
4,5,49,0,0,1,['d'],['d'],Y,N,None,Y,25,36,25,,,,F,23,
4,6,50,8,8,2,['d'],['k'],N,,,,,,,,,,F,23,
4,7,51,7,7,2,['d'],['d'],Y,,,,,,,,,,F,23,
4,8,52,4,4,2,['k'],['k'],Y,Y,['space'],Y,,,,,,,F,23,
4,9,53,3,3,2,['k'],['d'],N,N,None,Y,,,,,,,F,23,
4,10,54,4,4,2,['d'],['k'],N,Y,None,N,,,,,,,F,23,
5,0,55,0,0,2,['d'],['k'],N,N,None,Y,,,,,,,F,23,
5,1,56,0,0,2,['k'],['d'],N,N,None,Y,,,,,,,F,23,
5,2,57,9,9,2,['d'],['k'],N,N,None,Y,,,,,,,F,23,
5,3,58,9,9,2,['d'],['d'],Y,N,None,Y,,,,,,,F,23,
5,4,59,9,9,2,['d'],['d'],Y,N,None,Y,,,,,,,F,23,
5,5,60,8,8,2,['k'],['k'],Y,Y,None,N,,,,,,,F,23,
5,6,61,7,7,2,['d'],['k'],N,Y,None,N,,,,,,,F,23,
5,7,62,8,8,2,['k'],['d'],N,N,None,Y,,,,,,,F,23,
5,8,63,6,6,2,['d'],['k'],N,Y,None,N,,,,,,,F,23,
5,9,64,4,4,2,['k'],['d'],N,Y,None,N,,,,,,,F,23,
5,10,65,3,3,2,['d'],['k'],N,N,None,Y,,,,,,,F,23,
6,0,66,6,6,2,['k'],['d'],N,N,None,Y,,,,,,,F,23,
6,1,67,0,0,2,['k'],['d'],N,N,None,Y,,,,,,,F,23,
6,2,68,6,6,2,['d'],['d'],Y,N,None,Y,,,,,,,F,23,
6,3,69,0,0,2,['d'],['k'],N,N,None,Y,,,,,,,F,23,
6,4,70,0,0,2,['k'],['k'],Y,Y,None,N,,,,,,,F,23,
6,5,71,9,9,2,['d'],['d'],Y,Y,None,N,,,,,,,F,23,
6,6,72,9,9,2,['k'],['d'],N,N,None,Y,,,,,,,F,23,
6,7,73,4,4,2,['d'],['d'],Y,N,None,Y,,,,,,,F,23,
6,8,74,1,1,2,['k'],['d'],N,N,None,Y,,,,,,,F,23,
6,9,75,5,5,2,['d'],['d'],Y,N,None,Y,,,,,,,F,23,
6,10,76,7,7,2,['d'],['d'],Y,N,None,Y,,,,,,,F,23,
7,0,77,0,0,2,['d'],['k'],N,Y,['space'],Y,,,,,,,F,23,
7,1,78,8,8,2,['k'],['k'],Y,N,None,Y,,,,,,,F,23,
7,2,79,0,0,2,['k'],['d'],N,N,None,Y,,,,,,,F,23,
7,3,80,5,5,2,['d'],['d'],Y,Y,['space'],Y,,,,,,,F,23,
7,4,81,2,2,2,['k'],['k'],Y,N,None,Y,,,,,,,F,23,
7,5,82,2,2,2,['k'],['d'],N,N,None,Y,,,,,,,F,23,
7,6,83,2,2,2,['d'],['k'],N,Y,['space'],Y,,,,,,,F,23,
7,7,84,7,7,2,['d'],['d'],Y,Y,['space'],Y,,,,,,,F,23,
7,8,85,3,3,2,['k'],['d'],N,N,None,Y,,,,,,,F,23,
7,9,86,4,4,2,['d'],['k'],N,Y,['space'],Y,,,,,,,F,23,
7,10,87,5,5,2,['k'],['d'],N,Y,['space'],Y,,,,,,,F,23,
8,0,88,2,2,2,['d'],['d'],Y,N,None,Y,,,,,,,F,23,
8,1,89,4,4,2,['k'],['d'],N,N,None,Y,,,,,,,F,23,
8,2,90,6,6,2,['d'],['d'],Y,Y,['space'],Y,,,,,,,F,23,
8,3,91,10,10,2,['k'],['d'],N,Y,['space'],Y,,,,,,,F,23,
8,4,92,3,3,2,['d'],['k'],N,N,None,Y,,,,,,,F,23,
8,5,93,9,9,2,['d'],['d'],Y,Y,['space'],Y,,,,,,,F,23,
8,6,94,2,2,2,['k'],['d'],N,Y,['space'],Y,,,,,,,F,23,
8,7,95,7,7,2,['d'],['k'],N,N,None,Y,,,,,,,F,23,
8,8,96,8,8,2,['d'],['k'],N,Y,['space'],Y,,,,,,,F,23,
8,9,97,3,3,2,['d'],['k'],N,Y,['space'],Y,,,,,,,F,23,
8,10,98,10,10,2,['d'],['k'],N,N,None,Y,,,,,,,F,23,
9,0,99,6,6,2,['k'],['k'],Y,Y,['space'],Y,19,41,21,,,,F,23,
9,1,100,7,7,3,None,,Timed out,,,,,,,,,,F,23,
9,2,101,8,8,3,['d'],['k'],N,,,,,,,,,,F,23,
9,3,102,0,0,3,['d'],['k'],N,N,None,Y,,,,,,,F,23,
9,4,103,4,4,3,['k'],['d'],N,Y,None,N,,,,,,,F,23,
9,5,104,9,9,3,['d'],['k'],N,N,None,Y,,,,,,,F,23,
9,6,105,0,0,3,['d'],['d'],Y,Y,None,N,,,,,,,F,23,
9,7,106,8,8,3,['d'],['k'],N,N,None,Y,,,,,,,F,23,
9,8,107,3,3,3,['d'],['k'],N,N,None,Y,,,,,,,F,23,
9,9,108,2,2,3,['d'],['d'],Y,Y,['space'],Y,,,,,,,F,23,
9,10,109,7,7,3,['d'],['d'],Y,N,None,Y,,,,,,,F,23,
10,0,110,5,5,3,['k'],['k'],Y,Y,['space'],Y,,,,,,,F,23,
10,1,111,2,2,3,['d'],['d'],Y,Y,['space'],Y,,,,,,,F,23,
10,2,112,5,5,3,['k'],['d'],N,Y,['space'],Y,,,,,,,F,23,
10,3,113,6,6,3,['d'],['d'],Y,N,None,Y,,,,,,,F,23,
10,4,114,8,8,3,['k'],['d'],N,N,None,Y,,,,,,,F,23,
10,5,115,0,0,3,['d'],['k'],N,N,None,Y,,,,,,,F,23,
10,6,116,5,5,3,['k'],['k'],Y,N,None,Y,,,,,,,F,23,
10,7,117,6,6,3,['d'],['d'],Y,Y,None,N,,,,,,,F,23,
10,8,118,9,9,3,['d'],['k'],N,Y,None,N,,,,,,,F,23,
10,9,119,5,5,3,['k'],['k'],Y,N,['space'],N,,,,,,,F,23,
10,10,120,7,7,3,['k'],['d'],N,Y,None,N,,,,,,,F,23,
11,0,121,5,5,3,['k'],['d'],N,Y,['space'],Y,,,,,,,F,23,
11,1,122,4,4,3,['d'],['k'],N,N,None,Y,,,,,,,F,23,
11,2,123,3,3,3,['d'],['k'],N,N,None,Y,,,,,,,F,23,
11,3,124,10,10,3,['d'],['k'],N,Y,['space'],Y,,,,,,,F,23,
11,4,125,4,4,3,['k'],['k'],Y,Y,['space'],Y,,,,,,,F,23,
11,5,126,1,1,3,['k'],['k'],Y,N,None,Y,,,,,,,F,23,
11,6,127,5,5,3,['k'],['d'],N,Y,None,N,,,,,,,F,23,
11,7,128,8,8,3,['d'],['k'],N,Y,['space'],Y,,,,,,,F,23,
11,8,129,4,4,3,['k'],['d'],N,Y,['space'],Y,,,,,,,F,23,
11,9,130,4,4,3,['k'],['k'],Y,Y,['space'],Y,,,,,,,F,23,
11,10,131,7,7,3,['d'],['k'],N,N,['space'],N,,,,,,,F,23,
12,0,132,3,3,3,['k'],['k'],Y,N,['space'],N,,,,,,,F,23,
12,1,133,8,8,3,['d'],['k'],N,N,None,Y,,,,,,,F,23,
12,2,134,9,9,3,['k'],['d'],N,Y,None,N,,,,,,,F,23,
12,3,135,10,10,3,['k'],['d'],N,N,None,Y,,,,,,,F,23,
12,4,136,3,3,3,['d'],['k'],N,N,None,Y,,,,,,,F,23,
12,5,137,6,6,3,['k'],['d'],N,N,None,Y,,,,,,,F,23,
12,6,138,4,4,3,['k'],['k'],Y,Y,None,N,,,,,,,F,23,
12,7,139,0,0,3,['d'],['d'],Y,Y,None,N,,,,,,,F,23,
12,8,140,7,7,3,['k'],['k'],Y,N,None,Y,,,,,,,F,23,
12,9,141,8,8,3,['d'],['k'],N,N,None,Y,,,,,,,F,23,
12,10,142,1,1,3,['k'],['k'],Y,Y,['space'],Y,,,,,,,F,23,
13,0,143,6,6,3,['d'],['d'],Y,Y,['space'],Y,,,,,,,F,23,
13,1,144,4,4,3,['k'],['k'],Y,N,None,Y,,,,,,,F,23,
13,2,145,6,6,3,['d'],['k'],N,Y,['space'],Y,,,,,,,F,23,
13,3,146,5,5,3,['d'],['d'],Y,Y,['space'],Y,,,,,,,F,23,
13,4,147,1,1,3,['k'],['k'],Y,Y,['space'],Y,,,,,,,F,23,
13,5,148,2,2,3,['d'],['k'],N,Y,['space'],Y,,,,,,,F,23,
13,6,149,9,9,3,['d'],['d'],Y,N,None,Y,22,36,25,,,,F,23,
13,7,150,8,8,4,['d'],['k'],N,,,,,,,,,,F,23,
13,8,151,8,8,4,['k'],['d'],N,,,,,,,,,,F,23,
13,9,152,2,2,4,['d'],['k'],N,N,None,Y,,,,,,,F,23,
13,10,153,10,10,4,['d'],['d'],Y,N,None,Y,,,,,,,F,23,
14,0,154,10,10,4,['k'],['k'],Y,N,None,Y,,,,,,,F,23,
14,1,155,8,8,4,['d'],['d'],Y,N,None,Y,,,,,,,F,23,
14,2,156,6,6,4,['k'],['d'],N,Y,['space'],Y,,,,,,,F,23,
14,3,157,4,4,4,['d'],['d'],Y,N,None,Y,,,,,,,F,23,
14,4,158,5,5,4,['d'],['k'],N,N,None,Y,,,,,,,F,23,
14,5,159,5,5,4,['d'],['k'],N,N,None,Y,,,,,,,F,23,
14,6,160,8,8,4,['d'],['d'],Y,N,None,Y,,,,,,,F,23,
14,7,161,3,3,4,['k'],['d'],N,N,None,Y,,,,,,,F,23,
14,8,162,0,0,4,['k'],['d'],N,Y,None,N,,,,,,,F,23,
14,9,163,4,4,4,['d'],['k'],N,N,None,Y,,,,,,,F,23,
14,10,164,3,3,4,['k'],['k'],Y,N,None,Y,,,,,,,F,23,
15,0,165,3,3,4,['d'],['k'],N,Y,None,N,,,,,,,F,23,
15,1,166,3,3,4,['k'],['k'],Y,Y,None,N,,,,,,,F,23,
15,2,167,4,4,4,['d'],['d'],Y,Y,['space'],Y,,,,,,,F,23,
15,3,168,6,6,4,['d'],['d'],Y,N,None,Y,,,,,,,F,23,
15,4,169,8,8,4,['k'],['d'],N,N,None,Y,,,,,,,F,23,
15,5,170,1,1,4,['d'],['k'],N,Y,None,N,,,,,,,F,23,
15,6,171,8,8,4,['d'],['d'],Y,N,None,Y,,,,,,,F,23,
15,7,172,3,3,4,['d'],['d'],Y,N,None,Y,,,,,,,F,23,
15,8,173,9,9,4,['d'],['d'],Y,Y,None,N,,,,,,,F,23,
15,9,174,0,0,4,['d'],['d'],Y,N,None,Y,,,,,,,F,23,
15,10,175,8,8,4,['d'],['k'],N,N,None,Y,,,,,,,F,23,
16,0,176,3,3,4,['d'],['k'],N,N,None,Y,,,,,,,F,23,
16,1,177,0,0,4,['k'],['k'],Y,Y,None,N,,,,,,,F,23,
16,2,178,10,10,4,['k'],['k'],Y,N,None,Y,,,,,,,F,23,
16,3,179,2,2,4,['d'],['d'],Y,N,['space'],N,,,,,,,F,23,
16,4,180,4,4,4,['d'],['d'],Y,N,None,Y,,,,,,,F,23,
16,5,181,0,0,4,['k'],['d'],N,Y,['space'],Y,,,,,,,F,23,
16,6,182,10,10,4,['d'],['d'],Y,Y,None,N,,,,,,,F,23,
16,7,183,9,9,4,['d'],['d'],Y,N,None,Y,,,,,,,F,23,
16,8,184,10,10,4,['k'],['k'],Y,N,None,Y,,,,,,,F,23,
16,9,185,7,7,4,['k'],['k'],Y,Y,['space'],Y,,,,,,,F,23,
16,10,186,8,8,4,['d'],['d'],Y,N,['space'],N,,,,,,,F,23,
17,0,187,10,10,4,['d'],['d'],Y,Y,['space'],Y,,,,,,,F,23,
17,1,188,1,1,4,['k'],['d'],N,N,None,Y,,,,,,,F,23,
17,2,189,10,10,4,['k'],['d'],N,Y,['space'],Y,,,,,,,F,23,
17,3,190,6,6,4,['d'],['d'],Y,Y,None,N,,,,,,,F,23,
17,4,191,6,6,4,['k'],['d'],N,Y,None,N,,,,,,,F,23,
17,5,192,6,6,4,['d'],['k'],N,N,None,Y,,,,,,,F,23,
17,6,193,4,4,4,['d'],['k'],N,N,None,Y,,,,,,,F,23,
17,7,194,4,4,4,['k'],['k'],Y,N,['space'],N,,,,,,,F,23,
17,8,195,2,2,4,['d'],['d'],Y,Y,None,N,,,,,,,F,23,
17,9,196,0,0,4,['d'],['d'],Y,N,['space'],N,,,,,,,F,23,
17,10,197,2,2,4,['k'],['d'],N,Y,['space'],Y,,,,,,,F,23,
18,0,198,2,2,4,['d'],['k'],N,Y,['space'],Y,,,,,,,F,23,
18,1,199,6,6,4,['k'],['d'],N,Y,['space'],Y,27,34,19,,,,F,23,
18,2,200,5,5,5,['k'],['d'],N,,,,,,,,,,F,23,
18,3,201,8,8,5,['k'],['d'],N,,,,,,,,,,F,23,
18,4,202,2,2,5,['d'],['k'],N,Y,['space'],Y,,,,,,,F,23,
18,5,203,1,1,5,['k'],['k'],Y,N,['space'],N,,,,,,,F,23,
18,6,204,4,4,5,['d'],['d'],Y,Y,['space'],Y,,,,,,,F,23,
18,7,205,10,10,5,['k'],['d'],N,Y,['space'],Y,,,,,,,F,23,
18,8,206,4,4,5,['d'],['k'],N,N,None,Y,,,,,,,F,23,
18,9,207,1,1,5,['k'],['k'],Y,Y,None,N,,,,,,,F,23,
18,10,208,7,7,5,['d'],['k'],N,N,None,Y,,,,,,,F,23,
19,0,209,8,8,5,['k'],['k'],Y,Y,['space'],Y,,,,,,,F,23,
19,1,210,4,4,5,['d'],['k'],N,Y,['space'],Y,,,,,,,F,23,
19,2,211,7,7,5,['d'],['k'],N,Y,['space'],Y,,,,,,,F,23,
19,3,212,3,3,5,['k'],['k'],Y,N,None,Y,,,,,,,F,23,
19,4,213,5,5,5,['d'],['d'],Y,N,None,Y,,,,,,,F,23,
19,5,214,2,2,5,['k'],['d'],N,Y,None,N,,,,,,,F,23,
19,6,215,8,8,5,['d'],['d'],Y,N,None,Y,,,,,,,F,23,
19,7,216,7,7,5,['k'],['k'],Y,N,None,Y,,,,,,,F,23,
19,8,217,2,2,5,['d'],['k'],N,N,None,Y,,,,,,,F,23,
19,9,218,5,5,5,['k'],['k'],Y,N,['k'],N,,,,,,,F,23,
19,10,219,9,9,5,['k'],['d'],N,N,None,Y,,,,,,,F,23,
20,0,220,6,6,5,['d'],['d'],Y,N,None,Y,,,,,,,F,23,
20,1,221,3,3,5,['k'],['d'],N,N,None,Y,,,,,,,F,23,
20,2,222,0,0,5,['d'],['d'],Y,N,None,Y,,,,,,,F,23,
20,3,223,5,5,5,['k'],['d'],N,Y,None,N,,,,,,,F,23,
20,4,224,8,8,5,['d'],['d'],Y,N,None,Y,,,,,,,F,23,
20,5,225,8,8,5,['k'],['d'],N,Y,['space'],Y,,,,,,,F,23,
20,6,226,4,4,5,['k'],['k'],Y,N,None,Y,,,,,,,F,23,
20,7,227,3,3,5,['d'],['d'],Y,Y,None,N,,,,,,,F,23,
20,8,228,1,1,5,['d'],['k'],N,N,None,Y,,,,,,,F,23,
20,9,229,10,10,5,['d'],['k'],N,Y,None,N,,,,,,,F,23,
20,10,230,9,9,5,['k'],['k'],Y,N,None,Y,,,,,,,F,23,
21,0,231,3,3,5,['d'],['d'],Y,N,None,Y,,,,,,,F,23,
21,1,232,9,9,5,['k'],['k'],Y,N,None,Y,,,,,,,F,23,
21,2,233,0,0,5,['k'],['d'],N,N,None,Y,,,,,,,F,23,
21,3,234,2,2,5,['d'],['k'],N,Y,None,N,,,,,,,F,23,
21,4,235,1,1,5,['k'],['k'],Y,N,None,Y,,,,,,,F,23,
21,5,236,9,9,5,['k'],['d'],N,Y,None,N,,,,,,,F,23,
21,6,237,1,1,5,['k'],['d'],N,N,None,Y,,,,,,,F,23,
21,7,238,5,5,5,['d'],['k'],N,N,None,Y,,,,,,,F,23,
21,8,239,1,1,5,['k'],['d'],N,N,None,Y,,,,,,,F,23,
21,9,240,3,3,5,['d'],['d'],Y,Y,None,N,,,,,,,F,23,
21,10,241,2,2,5,['k'],['k'],Y,Y,None,N,,,,,,,F,23,
22,0,242,8,8,5,['d'],['d'],Y,Y,None,N,,,,,,,F,23,
22,1,243,5,5,5,['k'],['k'],Y,N,None,Y,,,,,,,F,23,
22,2,244,5,5,5,['d'],['d'],Y,Y,None,N,,,,,,,F,23,
22,3,245,2,2,5,['k'],['k'],Y,Y,['space'],Y,,,,,,,F,23,
22,4,246,4,4,5,['k'],['d'],N,Y,['space'],Y,,,,,,,F,23,
22,5,247,3,3,5,['d'],['k'],N,N,None,Y,,,,,,,F,23,
22,6,248,1,1,5,['d'],['k'],N,Y,None,N,,,,,,,F,23,
22,7,249,6,6,5,['k'],['k'],Y,N,None,Y,25,34,21,,,,F,23,
22,8,250,6,6,6,['d'],['d'],Y,,,,,,,,,,F,23,
22,9,251,5,5,6,['k'],['k'],Y,,,,,,,,,,F,23,
22,10,252,2,2,6,['d'],['d'],Y,N,None,Y,,,,,,,F,23,
23,0,253,9,9,6,['d'],['d'],Y,Y,['space'],Y,,,,,,,F,23,
23,1,254,7,7,6,['d'],['k'],N,N,None,Y,,,,,,,F,23,
23,2,255,4,4,6,['d'],['d'],Y,Y,['space'],Y,,,,,,,F,23,
23,3,256,0,0,6,['d'],['d'],Y,Y,['space'],Y,,,,,,,F,23,
23,4,257,7,7,6,['d'],['d'],Y,Y,['space'],Y,,,,,,,F,23,
23,5,258,4,4,6,['d'],['d'],Y,Y,['space'],Y,,,,,,,F,23,
23,6,259,7,7,6,['d'],['d'],Y,Y,['space'],Y,,,,,,,F,23,
23,7,260,10,10,6,['k'],['k'],Y,N,None,Y,,,,,,,F,23,
23,8,261,4,4,6,['d'],['k'],N,N,None,Y,,,,,,,F,23,
23,9,262,8,8,6,['d'],['d'],Y,Y,['space'],Y,,,,,,,F,23,
23,10,263,3,3,6,['k'],['k'],Y,Y,None,N,,,,,,,F,23,
24,0,264,6,6,6,['k'],['d'],N,N,None,Y,,,,,,,F,23,
24,1,265,10,10,6,['d'],['d'],Y,N,['space'],N,,,,,,,F,23,
24,2,266,8,8,6,['k'],['d'],N,N,None,Y,,,,,,,F,23,
24,3,267,7,7,6,['d'],['d'],Y,Y,['space'],Y,,,,,,,F,23,
24,4,268,10,10,6,['d'],['d'],Y,Y,['space'],Y,,,,,,,F,23,
24,5,269,2,2,6,['k'],['k'],Y,N,None,Y,,,,,,,F,23,
24,6,270,3,3,6,['d'],['d'],Y,Y,['space'],Y,,,,,,,F,23,
24,7,271,9,9,6,['k'],['d'],N,N,None,Y,,,,,,,F,23,
24,8,272,4,4,6,['d'],['k'],N,Y,['space'],Y,,,,,,,F,23,
24,9,273,10,10,6,['d'],['k'],N,Y,['space'],Y,,,,,,,F,23,
24,10,274,3,3,6,['k'],['k'],Y,N,None,Y,,,,,,,F,23,
25,0,275,10,10,6,['k'],['d'],N,Y,['space'],Y,,,,,,,F,23,
25,1,276,1,1,6,['k'],['k'],Y,Y,['space'],Y,,,,,,,F,23,
25,2,277,2,2,6,['d'],['k'],N,N,['space'],N,,,,,,,F,23,
25,3,278,1,1,6,['k'],['d'],N,N,None,Y,,,,,,,F,23,
25,4,279,2,2,6,['d'],['k'],N,Y,['space'],Y,,,,,,,F,23,
25,5,280,6,6,6,['d'],['d'],Y,N,None,Y,,,,,,,F,23,
25,6,281,3,3,6,['k'],['k'],Y,N,None,Y,,,,,,,F,23,
25,7,282,0,0,6,['d'],['d'],Y,Y,None,N,,,,,,,F,23,
25,8,283,9,9,6,['k'],['k'],Y,N,None,Y,,,,,,,F,23,
25,9,284,9,9,6,['k'],['k'],Y,N,None,Y,,,,,,,F,23,
25,10,285,2,2,6,['k'],['d'],N,Y,['space'],Y,,,,,,,F,23,
26,0,286,3,3,6,['k'],['d'],N,N,None,Y,,,,,,,F,23,
26,1,287,6,6,6,['k'],['d'],N,Y,['space'],Y,,,,,,,F,23,
26,2,288,6,6,6,['d'],['d'],Y,Y,['space'],Y,,,,,,,F,23,
26,3,289,2,2,6,['k'],['k'],Y,Y,['space'],Y,,,,,,,F,23,
26,4,290,10,10,6,['d'],['k'],N,N,None,Y,,,,,,,F,23,
26,5,291,9,9,6,['d'],['k'],N,Y,['space'],Y,,,,,,,F,23,
26,6,292,1,1,6,['k'],['d'],N,Y,['space'],Y,,,,,,,F,23,
26,7,293,0,0,6,['d'],['k'],N,N,None,Y,,,,,,,F,23,
26,8,294,2,2,6,['k'],['k'],Y,Y,None,N,,,,,,,F,23,
26,9,295,7,7,6,['k'],['k'],Y,Y,['space'],Y,,,,,,,F,23,
26,10,296,5,5,6,['k'],['d'],N,N,None,Y,,,,,,,F,23,
27,0,297,5,5,6,['d'],['d'],Y,N,None,Y,,,,,,,F,23,
27,1,298,8,8,6,['d'],['k'],N,N,None,Y,,,,,,,F,23,
27,2,299,0,0,6,['k'],['k'],Y,N,None,Y,30,43,25,,,,F,23,
27,3,300,2,2,7,['d'],['k'],N,,,,,,,,,,F,23,
27,4,301,3,3,7,['d'],['d'],Y,,,,,,,,,,F,23,
27,5,302,2,2,7,['k'],['k'],Y,N,None,Y,,,,,,,F,23,
27,6,303,1,1,7,['k'],['k'],Y,N,None,Y,,,,,,,F,23,
27,7,304,3,3,7,['d'],['d'],Y,Y,['space'],Y,,,,,,,F,23,
27,8,305,0,0,7,['k'],['d'],N,N,None,Y,,,,,,,F,23,
27,9,306,1,1,7,['d'],['d'],Y,N,None,Y,,,,,,,F,23,
27,10,307,8,8,7,['d'],['k'],N,Y,['space'],Y,,,,,,,F,23,
28,0,308,5,5,7,['k'],['k'],Y,N,None,Y,,,,,,,F,23,
28,1,309,4,4,7,['d'],['d'],Y,N,None,Y,,,,,,,F,23,
28,2,310,1,1,7,['k'],['k'],Y,Y,None,N,,,,,,,F,23,
28,3,311,1,1,7,['d'],['k'],N,N,None,Y,,,,,,,F,23,
28,4,312,9,9,7,['k'],['d'],N,Y,None,N,,,,,,,F,23,
28,5,313,2,2,7,['d'],['k'],N,N,None,Y,,,,,,,F,23,
28,6,314,8,8,7,['d'],['d'],Y,N,['d'],N,,,,,,,F,23,
28,7,315,0,0,7,['k'],['d'],N,Y,None,N,,,,,,,F,23,
28,8,316,1,1,7,['d'],['d'],Y,Y,None,N,,,,,,,F,23,
28,9,317,3,3,7,['k'],['d'],N,Y,['space'],Y,,,,,,,F,23,
28,10,318,4,4,7,['d'],['k'],N,Y,None,N,,,,,,,F,23,
29,0,319,5,5,7,['k'],['d'],N,Y,None,N,,,,,,,F,23,
29,1,320,4,4,7,['k'],['d'],N,Y,None,N,,,,,,,F,23,
29,2,321,4,4,7,['d'],['k'],N,Y,None,N,,,,,,,F,23,
29,3,322,10,10,7,['d'],['k'],N,N,None,Y,,,,,,,F,23,
29,4,323,3,3,7,['k'],['k'],Y,N,None,Y,,,,,,,F,23,
29,5,324,7,7,7,['k'],['d'],N,Y,None,N,,,,,,,F,23,
29,6,325,3,3,7,['d'],['d'],Y,Y,None,N,,,,,,,F,23,
29,7,326,10,10,7,['d'],['d'],Y,Y,['space'],Y,,,,,,,F,23,
29,8,327,10,10,7,['d'],['k'],N,Y,['space'],Y,,,,,,,F,23,
29,9,328,1,1,7,['d'],['d'],Y,Y,['space'],Y,,,,,,,F,23,
29,10,329,5,5,7,['k'],['d'],N,Y,['space'],Y,,,,,,,F,23,
30,0,330,5,5,7,['d'],['d'],Y,Y,['space'],Y,,,,,,,F,23,
30,1,331,9,9,7,['k'],['k'],Y,N,None,Y,,,,,,,F,23,
30,2,332,9,9,7,['d'],['k'],N,Y,['space'],Y,,,,,,,F,23,
30,3,333,5,5,7,['k'],['k'],Y,Y,['space'],Y,,,,,,,F,23,
30,4,334,8,8,7,['d'],['d'],Y,Y,['space'],Y,,,,,,,F,23,
30,5,335,1,1,7,['k'],['k'],Y,Y,['space'],Y,,,,,,,F,23,
30,6,336,8,8,7,['k'],['d'],N,Y,['space'],Y,,,,,,,F,23,
30,7,337,1,1,7,['d'],['d'],Y,N,None,Y,,,,,,,F,23,
30,8,338,10,10,7,['k'],['k'],Y,N,None,Y,,,,,,,F,23,
30,9,339,10,10,7,['d'],['d'],Y,Y,None,N,,,,,,,F,23,
30,10,340,10,10,7,['d'],['d'],Y,Y,None,N,,,,,,,F,23,
31,0,341,9,9,7,['k'],['k'],Y,N,None,Y,,,,,,,F,23,
31,1,342,9,9,7,['d'],['d'],Y,N,None,Y,,,,,,,F,23,
31,2,343,9,9,7,['k'],['d'],N,N,None,Y,,,,,,,F,23,
31,3,344,10,10,7,['d'],['d'],Y,N,None,Y,,,,,,,F,23,
31,4,345,10,10,7,['d'],['d'],Y,N,None,Y,,,,,,,F,23,
31,5,346,7,7,7,['k'],['d'],N,N,None,Y,,,,,,,F,23,
31,6,347,6,6,7,['d'],['k'],N,N,None,Y,,,,,,,F,23,
31,7,348,6,6,7,['k'],['d'],N,N,None,Y,,,,,,,F,23,
31,8,349,7,7,7,['d'],['k'],N,N,None,Y,27,35,25,,,,F,23,
31,9,350,8,8,8,['k'],['k'],Y,,,,,,,,,,F,23,
31,10,351,2,2,8,['k'],['d'],N,,,,,,,,,,F,23,
32,0,352,7,7,8,['k'],['d'],N,N,None,Y,,,,,,,F,23,
32,1,353,0,0,8,['d'],['k'],N,Y,None,N,,,,,,,F,23,
32,2,354,5,5,8,['d'],['d'],Y,Y,['space'],Y,,,,,,,F,23,
32,3,355,10,10,8,['k'],['d'],N,Y,['space'],Y,,,,,,,F,23,
32,4,356,1,1,8,['k'],['k'],Y,Y,['space'],Y,,,,,,,F,23,
32,5,357,1,1,8,['k'],['k'],Y,N,None,Y,,,,,,,F,23,
32,6,358,6,6,8,['k'],['d'],N,Y,['space'],Y,,,,,,,F,23,
32,7,359,6,6,8,['d'],['d'],Y,Y,['space'],Y,,,,,,,F,23,
32,8,360,8,8,8,['k'],['k'],Y,N,None,Y,,,,,,,F,23,
32,9,361,2,2,8,['d'],['d'],Y,N,None,Y,,,,,,,F,23,
32,10,362,6,6,8,['k'],['k'],Y,N,None,Y,,,,,,,F,23,
33,0,363,6,6,8,['k'],['d'],N,N,None,Y,,,,,,,F,23,
33,1,364,2,2,8,['k'],['k'],Y,N,None,Y,,,,,,,F,23,
33,2,365,5,5,8,['d'],['k'],N,N,None,Y,,,,,,,F,23,
33,3,366,7,7,8,['k'],['k'],Y,N,None,Y,,,,,,,F,23,
33,4,367,9,9,8,['d'],['d'],Y,N,None,Y,,,,,,,F,23,
33,5,368,7,7,8,['k'],['k'],Y,Y,None,N,,,,,,,F,23,
33,6,369,1,1,8,['d'],['k'],N,N,None,Y,,,,,,,F,23,
33,7,370,9,9,8,['k'],['d'],N,Y,['space'],Y,,,,,,,F,23,
33,8,371,1,1,8,['k'],['d'],N,Y,['space'],Y,,,,,,,F,23,
33,9,372,10,10,8,['k'],['k'],Y,Y,['space'],Y,,,,,,,F,23,
33,10,373,6,6,8,['k'],['d'],N,N,None,Y,,,,,,,F,23,
34,0,374,4,4,8,['k'],['k'],Y,N,None,Y,,,,,,,F,23,
34,1,375,6,6,8,['d'],['d'],Y,N,None,Y,,,,,,,F,23,
34,2,376,8,8,8,['k'],['d'],N,Y,None,N,,,,,,,F,23,
34,3,377,4,4,8,['k'],['k'],Y,Y,None,N,,,,,,,F,23,
34,4,378,6,6,8,['k'],['d'],N,N,None,Y,,,,,,,F,23,
34,5,379,4,4,8,['k'],['k'],Y,Y,['k'],N,,,,,,,F,23,
34,6,380,7,7,8,['d'],['d'],Y,Y,['space'],Y,,,,,,,F,23,
34,7,381,5,5,8,['k'],['k'],Y,Y,['space'],Y,,,,,,,F,23,
34,8,382,0,0,8,['d'],['k'],N,N,['space'],N,,,,,,,F,23,
34,9,383,2,2,8,['k'],['k'],Y,N,['k'],N,,,,,,,F,23,
34,10,384,5,5,8,['d'],['d'],Y,Y,['d'],N,,,,,,,F,23,
35,0,385,7,7,8,['k'],['k'],Y,Y,None,N,,,,,,,F,23,
35,1,386,1,1,8,['d'],['k'],N,N,None,Y,,,,,,,F,23,
35,2,387,8,8,8,['k'],['k'],Y,Y,['space'],Y,,,,,,,F,23,
35,3,388,6,6,8,['d'],['k'],N,N,['d'],N,,,,,,,F,23,
35,4,389,9,9,8,['k'],['k'],Y,Y,['space'],Y,,,,,,,F,23,
35,5,390,0,0,8,['d'],['d'],Y,Y,['space'],Y,,,,,,,F,23,
35,6,391,10,10,8,['k'],['k'],Y,Y,['space'],Y,,,,,,,F,23,
35,7,392,3,3,8,['d'],['d'],Y,Y,['space'],Y,,,,,,,F,23,
35,8,393,0,0,8,['k'],['k'],Y,N,None,Y,,,,,,,F,23,
35,9,394,10,10,8,['d'],['k'],N,Y,['space'],Y,,,,,,,F,23,
35,10,395,4,4,8,['d'],['d'],Y,N,None,Y,,,,,,,F,23,
36,0,396,2,2,8,['k'],['d'],N,Y,['space'],Y,,,,,,,F,23,
36,1,397,1,1,8,['d'],['d'],Y,Y,['space'],Y,,,,,,,F,23,
36,2,398,4,4,8,['k'],['d'],N,N,None,Y,,,,,,,F,23,
36,3,399,9,9,8,['d'],['k'],N,N,None,Y,30,38,25,,,,F,23,
36,4,400,9,9,9,['d'],['d'],Y,,,,,,,,,,F,23,
36,5,401,7,7,9,['k'],['k'],Y,,,,,,,,,,F,23,
36,6,402,10,10,9,['d'],['k'],N,N,None,Y,,,,,,,F,23,
36,7,403,0,0,9,['k'],['d'],N,Y,['space'],Y,,,,,,,F,23,
36,8,404,3,3,9,['d'],['d'],Y,N,None,Y,,,,,,,F,23,
36,9,405,7,7,9,['k'],['d'],N,N,None,Y,,,,,,,F,23,
36,10,406,9,9,9,['d'],['d'],Y,Y,None,N,,,,,,,F,23,
37,0,407,7,7,9,['k'],['d'],N,Y,['space'],Y,,,,,,,F,23,
37,1,408,5,5,9,['d'],['d'],Y,Y,['space'],Y,,,,,,,F,23,
37,2,409,2,2,9,['d'],['k'],N,Y,['space'],Y,,,,,,,F,23,
37,3,410,9,9,9,['d'],['k'],N,Y,['space'],Y,,,,,,,F,23,
37,4,411,3,3,9,['k'],['d'],N,N,['space'],N,,,,,,,F,23,
37,5,412,2,2,9,['k'],['k'],Y,N,None,Y,,,,,,,F,23,
37,6,413,10,10,9,['d'],['d'],Y,N,None,Y,,,,,,,F,23,
37,7,414,10,10,9,['k'],['k'],Y,N,['space'],N,,,,,,,F,23,
37,8,415,9,9,9,['d'],['k'],N,N,None,Y,,,,,,,F,23,
37,9,416,2,2,9,['d'],['k'],N,N,None,Y,,,,,,,F,23,
37,10,417,1,1,9,['k'],['d'],N,N,None,Y,,,,,,,F,23,
38,0,418,1,1,9,['d'],['d'],Y,N,None,Y,,,,,,,F,23,
38,1,419,4,4,9,['d'],['k'],N,Y,None,N,,,,,,,F,23,
38,2,420,9,9,9,['k'],['k'],Y,N,['k'],N,,,,,,,F,23,
38,3,421,5,5,9,['d'],['d'],Y,N,None,Y,,,,,,,F,23,
38,4,422,8,8,9,['k'],['k'],Y,N,None,Y,,,,,,,F,23,
38,5,423,4,4,9,['d'],['d'],Y,N,None,Y,,,,,,,F,23,
38,6,424,4,4,9,['d'],['d'],Y,Y,None,N,,,,,,,F,23,
38,7,425,4,4,9,['k'],['d'],N,Y,None,N,,,,,,,F,23,
38,8,426,5,5,9,['k'],['d'],N,N,None,Y,,,,,,,F,23,
38,9,427,1,1,9,['d'],['d'],Y,Y,['space'],Y,,,,,,,F,23,
38,10,428,7,7,9,['k'],['k'],Y,N,None,Y,,,,,,,F,23,
39,0,429,0,0,9,['d'],['k'],N,N,None,Y,,,,,,,F,23,
39,1,430,4,4,9,['k'],['k'],Y,Y,['space'],Y,,,,,,,F,23,
39,2,431,7,7,9,['d'],['k'],N,Y,None,N,,,,,,,F,23,
39,3,432,5,5,9,['k'],['k'],Y,Y,['space'],Y,,,,,,,F,23,
39,4,433,7,7,9,['k'],['k'],Y,N,None,Y,,,,,,,F,23,
39,5,434,10,10,9,['d'],['k'],N,N,None,Y,,,,,,,F,23,
39,6,435,5,5,9,['d'],['k'],N,N,None,Y,,,,,,,F,23,
39,7,436,7,7,9,['k'],['k'],Y,N,['k'],N,,,,,,,F,23,
39,8,437,8,8,9,['k'],['d'],N,Y,['space'],Y,,,,,,,F,23,
39,9,438,1,1,9,['k'],['d'],N,Y,['space'],Y,,,,,,,F,23,
39,10,439,1,1,9,['d'],['d'],Y,Y,['space'],Y,,,,,,,F,23,
40,0,440,1,1,9,['k'],['k'],Y,Y,['space'],Y,,,,,,,F,23,
40,1,441,8,8,9,['d'],['k'],N,Y,['space'],Y,,,,,,,F,23,
40,2,442,0,0,9,['k'],['d'],N,N,None,Y,,,,,,,F,23,
40,3,443,2,2,9,['d'],['d'],Y,N,None,Y,,,,,,,F,23,
40,4,444,0,0,9,['k'],['d'],N,N,None,Y,,,,,,,F,23,
40,5,445,3,3,9,['d'],['k'],N,N,None,Y,,,,,,,F,23,
40,6,446,3,3,9,['k'],['k'],Y,Y,None,N,,,,,,,F,23,
40,7,447,9,9,9,['d'],['k'],N,N,None,Y,,,,,,,F,23,
40,8,448,4,4,9,['k'],['k'],Y,Y,None,N,,,,,,,F,23,
40,9,449,1,1,9,['d'],['d'],Y,Y,None,N,26,36,21,,,,F,23,
40,10,450,10,10,10,['k'],['k'],Y,,,,,,,,,,F,23,
41,0,451,6,6,10,['d'],['k'],N,,,,,,,,,,F,23,
41,1,452,7,7,10,['k'],['d'],N,N,['k'],N,,,,,,,F,23,
41,2,453,5,5,10,['d'],['k'],N,N,['d'],N,,,,,,,F,23,
41,3,454,10,10,10,['d'],['d'],Y,N,None,Y,,,,,,,F,23,
41,4,455,10,10,10,['d'],['k'],N,Y,None,N,,,,,,,F,23,
41,5,456,9,9,10,['k'],['d'],N,N,['k'],N,,,,,,,F,23,
41,6,457,3,3,10,['d'],['d'],Y,Y,['space'],Y,,,,,,,F,23,
41,7,458,6,6,10,['k'],['k'],Y,N,None,Y,,,,,,,F,23,
41,8,459,1,1,10,['d'],['k'],N,N,None,Y,,,,,,,F,23,
41,9,460,8,8,10,['k'],['k'],Y,N,None,Y,,,,,,,F,23,
41,10,461,9,9,10,['d'],['d'],Y,N,['space'],N,,,,,,,F,23,
42,0,462,7,7,10,['k'],['k'],Y,N,None,Y,,,,,,,F,23,
42,1,463,8,8,10,['d'],['k'],N,N,None,Y,,,,,,,F,23,
42,2,464,3,3,10,['k'],['k'],Y,Y,None,N,,,,,,,F,23,
42,3,465,6,6,10,['d'],['k'],N,Y,None,N,,,,,,,F,23,
42,4,466,0,0,10,['k'],['k'],Y,N,None,Y,,,,,,,F,23,
42,5,467,8,8,10,['d'],['k'],N,N,['d'],N,,,,,,,F,23,
42,6,468,5,5,10,['k'],['d'],N,Y,None,N,,,,,,,F,23,
42,7,469,3,3,10,['d'],['d'],Y,Y,None,N,,,,,,,F,23,
42,8,470,10,10,10,['k'],['d'],N,N,None,Y,,,,,,,F,23,
42,9,471,0,0,10,['d'],['d'],Y,N,None,Y,,,,,,,F,23,
42,10,472,4,4,10,['d'],['k'],N,N,None,Y,,,,,,,F,23,
43,0,473,0,0,10,['k'],['d'],N,Y,None,N,,,,,,,F,23,
43,1,474,7,7,10,['d'],['d'],Y,Y,None,N,,,,,,,F,23,
43,2,475,2,2,10,['k'],['d'],N,Y,None,N,,,,,,,F,23,
43,3,476,1,1,10,['d'],['k'],N,Y,None,N,,,,,,,F,23,
43,4,477,0,0,10,['k'],['k'],Y,Y,None,N,,,,,,,F,23,
43,5,478,1,1,10,['d'],['k'],N,Y,None,N,,,,,,,F,23,
43,6,479,8,8,10,['k'],['k'],Y,N,None,Y,,,,,,,F,23,
43,7,480,2,2,10,['k'],['k'],Y,Y,None,N,,,,,,,F,23,
43,8,481,7,7,10,['d'],['k'],N,Y,None,N,,,,,,,F,23,
43,9,482,7,7,10,['k'],['d'],N,N,['k'],N,,,,,,,F,23,
43,10,483,8,8,10,['k'],['k'],Y,Y,None,N,,,,,,,F,23,
44,0,484,6,6,10,['k'],['k'],Y,N,None,Y,,,,,,,F,23,
44,1,485,5,5,10,['d'],['k'],N,Y,None,N,,,,,,,F,23,
44,2,486,10,10,10,['k'],['d'],N,N,None,Y,,,,,,,F,23,
44,3,487,0,0,10,['d'],['d'],Y,Y,None,N,,,,,,,F,23,
44,4,488,1,1,10,['d'],['d'],Y,Y,None,N,,,,,,,F,23,
44,5,489,3,3,10,['k'],['k'],Y,N,None,Y,,,,,,,F,23,
44,6,490,8,8,10,['d'],['k'],N,Y,None,N,,,,,,,F,23,
44,7,491,8,8,10,['k'],['k'],Y,N,None,Y,,,,,,,F,23,
44,8,492,7,7,10,['k'],['k'],Y,Y,None,N,,,,,,,F,23,
44,9,493,6,6,10,['k'],['k'],Y,N,None,Y,,,,,,,F,23,
44,10,494,1,1,10,['k'],['k'],Y,N,None,Y,,,,,,,F,23,
45,0,495,0,0,10,['d'],['d'],Y,Y,None,N,,,,,,,F,23,
45,1,496,9,9,10,['k'],['k'],Y,Y,None,N,,,,,,,F,23,
45,2,497,9,9,10,['k'],['d'],N,Y,None,N,,,,,,,F,23,
45,3,498,0,0,10,['k'],['d'],N,N,None,Y,,,,,,,F,23,
45,4,499,6,6,10,['d'],['d'],Y,Y,None,N,27,19,24,,,,F,23,
45,5,500,9,9,11,['d'],['k'],Y,,,,,,,Y,Y,Y,F,23,
45,6,501,3,3,11,['k'],['d'],Y,,,,,,,,Y,Y,F,23,
45,7,502,5,5,11,['d'],['d'],N,Y,None,N,,,,,Y,Y,F,23,
45,8,503,3,3,11,['k'],['d'],Y,Y,None,N,,,,,Y,Y,F,23,
45,9,504,4,4,11,['d'],['k'],Y,N,None,Y,,,,,Y,Y,F,23,
45,10,505,2,2,11,['k'],['d'],Y,N,None,Y,,,,,Y,Y,F,23,
46,0,506,7,7,11,['d'],['d'],N,N,None,Y,,,,,Y,Y,F,23,
46,1,507,9,9,11,['k'],['k'],N,Y,None,N,,,,,Y,Y,F,23,
46,2,508,0,0,11,['d'],['k'],Y,Y,None,N,,,,,Y,Y,F,23,
46,3,509,7,7,11,['k'],['k'],N,N,None,Y,,,,,Y,Y,F,23,
46,4,510,3,3,11,['d'],['k'],Y,Y,None,N,,,,,Y,Y,F,23,
46,5,511,1,1,11,['k'],['k'],N,N,None,Y,,,,,Y,Y,F,23,
46,6,512,10,10,11,['d'],['d'],N,N,None,Y,,,,,Y,Y,F,23,
46,7,513,5,5,11,['k'],['k'],N,N,None,Y,,,,,Y,Y,F,23,
46,8,514,0,0,11,['d'],['k'],Y,N,None,Y,,,,,Y,Y,F,23,
46,9,515,10,10,11,['k'],['k'],N,N,None,Y,,,,,Y,Y,F,23,
46,10,516,7,7,11,['d'],['d'],N,N,None,Y,,,,,Y,Y,F,23,
47,0,517,3,3,11,['k'],['d'],Y,Y,['k'],N,,,,,Y,Y,F,23,
47,1,518,4,4,11,['d'],['k'],Y,Y,None,N,,,,,Y,Y,F,23,
47,2,519,8,8,11,['k'],['d'],Y,N,None,Y,,,,,Y,Y,F,23,
47,3,520,5,5,11,['d'],['d'],N,Y,None,N,,,,,Y,Y,F,23,
47,4,521,6,6,11,['k'],['d'],Y,N,None,Y,,,,,Y,Y,F,23,
47,5,522,2,2,11,['k'],['d'],Y,Y,None,N,,,,,Y,Y,F,23,
47,6,523,3,3,11,['k'],['k'],N,Y,None,N,,,,,Y,Y,F,23,
47,7,524,8,8,11,['d'],['d'],N,N,None,Y,,,,,Y,Y,F,23,
47,8,525,3,3,11,['k'],['k'],N,N,None,Y,,,,,Y,Y,F,23,
47,9,526,0,0,11,['k'],['k'],N,N,None,Y,,,,,Y,Y,F,23,
47,10,527,0,0,11,['d'],['k'],Y,N,None,Y,,,,,Y,Y,F,23,
48,0,528,0,0,11,['k'],['d'],Y,N,None,Y,,,,,Y,Y,F,23,
48,1,529,1,1,11,None,,Timed out,N,None,Y,,,,,Y,Y,F,23,
48,2,530,8,8,11,['d'],['k'],Y,Y,['d'],N,,,,,Y,Y,F,23,
48,3,531,7,7,11,['k'],['d'],Y,Y,None,N,,,,,Y,Y,F,23,
48,4,532,0,0,11,['d'],['k'],Y,N,None,Y,,,,,Y,Y,F,23,
48,5,533,3,3,11,['k'],['d'],Y,N,None,Y,,,,,Y,Y,F,23,
48,6,534,5,5,11,['d'],['d'],N,Y,None,N,,,,,Y,Y,F,23,
48,7,535,4,4,11,['k'],['k'],N,Y,None,N,,,,,Y,Y,F,23,
48,8,536,6,6,11,['d'],['k'],Y,N,None,Y,,,,,Y,Y,F,23,
48,9,537,6,6,11,['k'],['d'],Y,Y,None,N,,,,,Y,Y,F,23,
48,10,538,7,7,11,['d'],['k'],Y,N,None,Y,,,,,Y,Y,F,23,
49,0,539,6,6,11,['k'],['d'],Y,Y,None,N,,,,,Y,Y,F,23,
49,1,540,5,5,11,['d'],['d'],N,N,None,Y,,,,,Y,Y,F,23,
49,2,541,5,5,11,['k'],['d'],Y,Y,None,N,,,,,Y,Y,F,23,
49,3,542,9,9,11,['d'],['d'],N,Y,None,N,,,,,Y,Y,F,23,
49,4,543,3,3,11,['k'],['k'],N,Y,None,N,,,,,Y,Y,F,23,
49,5,544,6,6,11,['d'],['k'],Y,N,None,Y,,,,,Y,Y,F,23,
49,6,545,0,0,11,['k'],['d'],Y,Y,None,N,,,,,Y,Y,F,23,
49,7,546,1,1,11,['d'],['d'],N,Y,None,N,,,,,Y,Y,F,23,
49,8,547,1,1,11,['d'],['k'],Y,Y,['d'],N,,,,,Y,Y,F,23,
49,9,548,8,8,11,['k'],['d'],Y,Y,None,N,,,,,Y,Y,F,23,
49,10,549,10,10,11,['k'],['k'],N,Y,None,N,28,24,24,,Y,Y,F,23,
50,0,550,10,10,12,['d'],['d'],N,,,,,,,,Y,Y,F,23,
50,1,551,6,6,12,['k'],['d'],Y,,,,,,,,Y,Y,F,23,
50,2,552,7,7,12,['d'],['d'],N,Y,None,N,,,,,Y,Y,F,23,
50,3,553,6,6,12,['k'],['k'],N,Y,['k'],N,,,,,Y,Y,F,23,
50,4,554,2,2,12,['k'],['d'],Y,Y,None,N,,,,,Y,Y,F,23,
50,5,555,5,5,12,['k'],['k'],N,N,None,Y,,,,,Y,Y,F,23,
50,6,556,10,10,12,['d'],['k'],Y,N,None,Y,,,,,Y,Y,F,23,
50,7,557,3,3,12,['k'],['k'],N,Y,None,N,,,,,Y,Y,F,23,
50,8,558,5,5,12,['d'],['d'],N,Y,None,N,,,,,Y,Y,F,23,
50,9,559,3,3,12,['k'],['d'],Y,Y,None,N,,,,,Y,Y,F,23,
50,10,560,0,0,12,['k'],['k'],N,Y,None,N,,,,,Y,Y,F,23,
51,0,561,4,4,12,['d'],['k'],Y,Y,None,N,,,,,Y,Y,F,23,
51,1,562,3,3,12,['k'],['d'],Y,Y,None,N,,,,,Y,Y,F,23,
51,2,563,4,4,12,['d'],['k'],Y,N,None,Y,,,,,Y,Y,F,23,
51,3,564,9,9,12,['k'],['d'],Y,Y,None,N,,,,,Y,Y,F,23,
51,4,565,4,4,12,['d'],['k'],Y,Y,None,N,,,,,Y,Y,F,23,
51,5,566,3,3,12,['k'],['d'],Y,Y,None,N,,,,,Y,Y,F,23,
51,6,567,2,2,12,['d'],['k'],Y,Y,None,N,,,,,Y,Y,F,23,
51,7,568,9,9,12,['k'],['k'],N,N,None,Y,,,,,Y,Y,F,23,
51,8,569,2,2,12,['d'],['k'],Y,N,None,Y,,,,,Y,Y,F,23,
51,9,570,6,6,12,['k'],['d'],Y,Y,None,N,,,,,Y,Y,F,23,
51,10,571,7,7,12,['d'],['k'],Y,Y,None,N,,,,,Y,Y,F,23,
52,0,572,2,2,12,['k'],['k'],N,N,None,Y,,,,,Y,Y,F,23,
52,1,573,9,9,12,['d'],['k'],Y,Y,None,N,,,,,Y,Y,F,23,
52,2,574,7,7,12,None,,Timed out,Y,None,N,,,,,Y,Y,F,23,
52,3,575,5,5,12,['k'],['k'],N,N,None,Y,,,,,Y,Y,F,23,
52,4,576,1,1,12,['d'],['k'],Y,N,None,Y,,,,,Y,Y,F,23,
52,5,577,6,6,12,['d'],['d'],N,Y,None,N,,,,,Y,Y,F,23,
52,6,578,1,1,12,['d'],['d'],N,N,None,Y,,,,,Y,Y,F,23,
52,7,579,7,7,12,['d'],['d'],N,Y,None,N,,,,,Y,Y,F,23,
52,8,580,4,4,12,['k'],['k'],N,Y,['k'],N,,,,,Y,Y,F,23,
52,9,581,9,9,12,['d'],['k'],Y,Y,None,N,,,,,Y,Y,F,23,
52,10,582,9,9,12,['d'],['d'],N,N,['k'],N,,,,,Y,Y,F,23,
53,0,583,0,0,12,['k'],['k'],N,N,None,Y,,,,,Y,Y,F,23,
53,1,584,6,6,12,['d'],['k'],Y,N,None,Y,,,,,Y,Y,F,23,
53,2,585,9,9,12,['k'],['d'],Y,Y,None,N,,,,,Y,Y,F,23,
53,3,586,5,5,12,['d'],['d'],N,N,None,Y,,,,,Y,Y,F,23,
53,4,587,2,2,12,['d'],['k'],Y,Y,None,N,,,,,Y,Y,F,23,
53,5,588,2,2,12,['d'],['k'],Y,N,None,Y,,,,,Y,Y,F,23,
53,6,589,5,5,12,['k'],['d'],Y,Y,None,N,,,,,Y,Y,F,23,
53,7,590,6,6,12,['k'],['d'],Y,N,None,Y,,,,,Y,Y,F,23,
53,8,591,0,0,12,['d'],['d'],N,Y,None,N,,,,,Y,Y,F,23,
53,9,592,2,2,12,['k'],['d'],Y,N,None,Y,,,,,Y,Y,F,23,
53,10,593,3,3,12,['k'],['k'],N,N,None,Y,,,,,Y,Y,F,23,
54,0,594,9,9,12,['d'],['k'],Y,N,None,Y,,,,,Y,Y,F,23,
54,1,595,0,0,12,['k'],['k'],N,N,None,Y,,,,,Y,Y,F,23,
54,2,596,1,1,12,['d'],['k'],Y,N,None,Y,,,,,Y,Y,F,23,
54,3,597,7,7,12,['d'],['d'],N,N,None,Y,,,,,Y,Y,F,23,
54,4,598,3,3,12,['k'],['d'],Y,N,None,Y,,,,,Y,Y,F,23,
54,5,599,10,10,12,['d'],['d'],N,N,None,Y,27,22,25,,Y,Y,F,23,
