.thisRepN,.thisTrialN,.thisN,.thisIndex,.thisTrial,Block Number,Key pressed,Category,Correct?,Int Match?,Int Response,Int Correct?,Line Accuracy,Interference Accuracy,Matching Interferences,New instruction shown?,Buttons switched?,Fast?,gender,age,
0,0,0,6,6,1,['k'],['k'],Y,,,,,,,,,,,,
0,1,1,1,1,1,['d'],['d'],Y,,,,,,,,,,,,
0,2,2,0,0,1,['d'],['k'],N,N,None,Y,,,,,,,,,
0,3,3,2,2,1,['d'],['d'],Y,Y,None,N,,,,,,,,,
0,4,4,8,8,1,['d'],['d'],Y,Y,['space'],Y,,,,,,,,,
0,5,5,0,0,1,['k'],['k'],Y,Y,['space'],Y,,,,,,,,,
0,6,6,8,8,1,['k'],['d'],N,Y,None,N,,,,,,,,,
0,7,7,3,3,1,['k'],['k'],Y,N,None,Y,,,,,,,,,
0,8,8,4,4,1,['k'],['k'],Y,N,None,Y,,,,,,,,,
0,9,9,7,7,1,['d'],['d'],Y,Y,['space'],Y,,,,,,,,,
0,10,10,8,8,1,['k'],['d'],N,N,None,Y,,,,,,,,,
1,0,11,2,2,1,['k'],['k'],Y,N,None,Y,,,,,,,,,
1,1,12,3,3,1,['d'],['k'],N,N,None,Y,,,,,,,,,
1,2,13,10,10,1,['d'],['d'],Y,Y,['space'],Y,,,,,,,,,
1,3,14,5,5,1,['k'],['k'],Y,Y,['space'],Y,,,,,,,,,
1,4,15,3,3,1,['d'],['k'],N,Y,['d'],N,,,,,,,,,
1,5,16,1,1,1,['d'],['d'],Y,Y,None,N,,,,,,,,,
1,6,17,9,9,1,['d'],['k'],N,Y,['space'],Y,,,,,,,,,
1,7,18,4,4,1,['k'],['k'],Y,N,None,Y,,,,,,,,,
1,8,19,0,0,1,['d'],['k'],N,N,None,Y,,,,,,,,,
1,9,20,9,9,1,['k'],['k'],Y,Y,['space'],Y,,,,,,,,,
1,10,21,4,4,1,['k'],['d'],N,N,['space'],N,,,,,,,,,
2,0,22,2,2,1,['k'],['d'],N,Y,['space'],Y,,,,,,,,,
2,1,23,8,8,1,['d'],['d'],Y,N,None,Y,,,,,,,,,
2,2,24,6,6,1,['k'],['k'],Y,N,None,Y,,,,,,,,,
2,3,25,3,3,1,['d'],['k'],N,N,None,Y,,,,,,,,,
2,4,26,6,6,1,['k'],['k'],Y,Y,None,N,,,,,,,,,
2,5,27,8,8,1,['k'],['k'],Y,N,None,Y,,,,,,,,,
2,6,28,4,4,1,['d'],['k'],N,N,None,Y,,,,,,,,,
2,7,29,2,2,1,['k'],['d'],N,Y,None,N,,,,,,,,,
2,8,30,0,0,1,['d'],['k'],N,N,None,Y,,,,,,,,,
2,9,31,9,9,1,['d'],['d'],Y,Y,None,N,,,,,,,,,
2,10,32,3,3,1,['d'],['k'],N,N,None,Y,,,,,,,,,
3,0,33,10,10,1,['k'],['k'],Y,N,None,Y,,,,,,,,,
3,1,34,7,7,1,['k'],['k'],Y,Y,['space'],Y,,,,,,,,,
3,2,35,9,9,1,['k'],['d'],N,Y,['space'],Y,,,,,,,,,
3,3,36,2,2,1,['k'],['k'],Y,N,None,Y,,,,,,,,,
3,4,37,3,3,1,['k'],['d'],N,N,None,Y,,,,,,,,,
3,5,38,5,5,1,['k'],['d'],N,N,None,Y,,,,,,,,,
3,6,39,0,0,1,['k'],['d'],N,N,None,Y,,,,,,,,,
3,7,40,9,9,1,['k'],['d'],N,Y,None,N,,,,,,,,,
3,8,41,10,10,1,['k'],['k'],Y,N,None,Y,,,,,,,,,
3,9,42,10,10,1,['k'],['d'],N,Y,['space'],Y,,,,,,,,,
3,10,43,0,0,1,['k'],['d'],N,Y,None,N,,,,,,,,,
4,0,44,4,4,1,['k'],['d'],N,N,None,Y,,,,,,,,,
4,1,45,8,8,1,['d'],['d'],Y,N,None,Y,,,,,,,,,
4,2,46,4,4,1,['d'],['k'],N,Y,['space'],Y,,,,,,,,,
4,3,47,8,8,1,['k'],['d'],N,Y,None,N,,,,,,,,,
4,4,48,1,1,1,['d'],['d'],Y,N,None,Y,,,,,,,,,
4,5,49,0,0,1,['d'],['k'],N,N,None,Y,25,37,22,,,,,,
4,6,50,9,9,2,['k'],['k'],Y,,,,,,,,,,,,
4,7,51,7,7,2,['d'],['k'],N,,,,,,,,,,,,
4,8,52,4,4,2,['k'],['d'],N,N,None,Y,,,,,,,,,
4,9,53,8,8,2,['k'],['d'],N,Y,['space'],Y,,,,,,,,,
4,10,54,9,9,2,['d'],['k'],N,N,None,Y,,,,,,,,,
5,0,55,3,3,2,['k'],['d'],N,Y,None,N,,,,,,,,,
5,1,56,2,2,2,['d'],['k'],N,Y,None,N,,,,,,,,,
5,2,57,6,6,2,['k'],['k'],Y,N,None,Y,,,,,,,,,
5,3,58,4,4,2,['d'],['d'],Y,N,None,Y,,,,,,,,,
5,4,59,3,3,2,['d'],['k'],N,N,None,Y,,,,,,,,,
5,5,60,4,4,2,['k'],['k'],Y,Y,None,N,,,,,,,,,
5,6,61,6,6,2,['d'],['d'],Y,Y,['space'],Y,,,,,,,,,
5,7,62,8,8,2,['k'],['d'],N,N,None,Y,,,,,,,,,
5,8,63,7,7,2,['d'],['k'],N,N,None,Y,,,,,,,,,
5,9,64,3,3,2,['k'],['d'],N,Y,['space'],Y,,,,,,,,,
5,10,65,10,10,2,['k'],['k'],Y,N,None,Y,,,,,,,,,
6,0,66,8,8,2,['d'],['k'],N,Y,['space'],Y,,,,,,,,,
6,1,67,6,6,2,['k'],['k'],Y,Y,None,N,,,,,,,,,
6,2,68,10,10,2,['d'],['d'],Y,Y,None,N,,,,,,,,,
6,3,69,1,1,2,['k'],['k'],Y,Y,None,N,,,,,,,,,
6,4,70,0,0,2,['d'],['k'],N,Y,None,N,,,,,,,,,
6,5,71,8,8,2,['k'],['k'],Y,N,None,Y,,,,,,,,,
6,6,72,1,1,2,['k'],['k'],Y,N,None,Y,,,,,,,,,
6,7,73,0,0,2,['d'],['d'],Y,N,None,Y,,,,,,,,,
6,8,74,3,3,2,['d'],['k'],N,Y,['space'],Y,,,,,,,,,
6,9,75,9,9,2,['d'],['d'],Y,Y,['space'],Y,,,,,,,,,
6,10,76,7,7,2,['k'],['d'],N,Y,['space'],Y,,,,,,,,,
7,0,77,3,3,2,['k'],['d'],N,Y,None,N,,,,,,,,,
7,1,78,5,5,2,['d'],['k'],N,N,None,Y,,,,,,,,,
7,2,79,0,0,2,['k'],['d'],N,N,None,Y,,,,,,,,,
7,3,80,5,5,2,['k'],['k'],Y,N,None,Y,,,,,,,,,
7,4,81,1,1,2,['k'],['d'],N,Y,None,N,,,,,,,,,
7,5,82,2,2,2,['k'],['k'],Y,Y,None,N,,,,,,,,,
7,6,83,9,9,2,['d'],['d'],Y,Y,['space'],Y,,,,,,,,,
7,7,84,0,0,2,['d'],['d'],Y,Y,None,N,,,,,,,,,
7,8,85,7,7,2,['d'],['d'],Y,N,None,Y,,,,,,,,,
7,9,86,1,1,2,['k'],['k'],Y,N,None,Y,,,,,,,,,
7,10,87,2,2,2,['k'],['k'],Y,Y,None,N,,,,,,,,,
8,0,88,9,9,2,['d'],['d'],Y,N,None,Y,,,,,,,,,
8,1,89,7,7,2,['d'],['d'],Y,Y,['space'],Y,,,,,,,,,
8,2,90,5,5,2,['k'],['k'],Y,Y,None,N,,,,,,,,,
8,3,91,1,1,2,['d'],['d'],Y,N,None,Y,,,,,,,,,
8,4,92,10,10,2,['k'],['k'],Y,N,None,Y,,,,,,,,,
8,5,93,10,10,2,['k'],['k'],Y,N,None,Y,,,,,,,,,
8,6,94,8,8,2,['d'],['d'],Y,Y,['space'],Y,,,,,,,,,
8,7,95,1,1,2,['d'],['d'],Y,N,None,Y,,,,,,,,,
8,8,96,2,2,2,['k'],['k'],Y,Y,None,N,,,,,,,,,
8,9,97,8,8,2,['k'],['k'],Y,Y,None,N,,,,,,,,,
8,10,98,8,8,2,['k'],['k'],Y,N,None,Y,,,,,,,,,
9,0,99,6,6,2,['d'],['d'],Y,N,None,Y,32,33,25,,,,,,
9,1,100,8,8,3,['d'],['d'],Y,,,,,,,,,,,,
9,2,101,6,6,3,['d'],['d'],Y,,,,,,,,,,,,
9,3,102,8,8,3,['k'],['k'],Y,N,None,Y,,,,,,,,,
9,4,103,3,3,3,['k'],['k'],Y,Y,['space'],Y,,,,,,,,,
9,5,104,1,1,3,['d'],['d'],Y,Y,['space'],Y,,,,,,,,,
9,6,105,3,3,3,['k'],['k'],Y,N,None,Y,,,,,,,,,
9,7,106,6,6,3,['k'],['k'],Y,Y,['space'],Y,,,,,,,,,
9,8,107,0,0,3,['k'],['k'],Y,Y,None,N,,,,,,,,,
9,9,108,2,2,3,['d'],['d'],Y,Y,['space'],Y,,,,,,,,,
9,10,109,1,1,3,['k'],['k'],Y,Y,['space'],Y,,,,,,,,,
10,0,110,3,3,3,['d'],['d'],Y,N,None,Y,,,,,,,,,
10,1,111,1,1,3,['d'],['d'],Y,Y,['space'],Y,,,,,,,,,
10,2,112,5,5,3,['k'],['k'],Y,N,None,Y,,,,,,,,,
10,3,113,3,3,3,['d'],['d'],Y,Y,['space'],Y,,,,,,,,,
10,4,114,8,8,3,['k'],['k'],Y,Y,['space'],Y,,,,,,,,,
10,5,115,3,3,3,['k'],['k'],Y,N,None,Y,,,,,,,,,
10,6,116,8,8,3,['d'],['d'],Y,Y,['space'],Y,,,,,,,,,
10,7,117,8,8,3,['d'],['d'],Y,N,None,Y,,,,,,,,,
10,8,118,10,10,3,['d'],['d'],Y,Y,['space'],Y,,,,,,,,,
10,9,119,1,1,3,['k'],['k'],Y,Y,['space'],Y,,,,,,,,,
10,10,120,7,7,3,['d'],['d'],Y,Y,None,N,,,,,,,,,
11,0,121,3,3,3,['k'],['k'],Y,N,None,Y,,,,,,,,,
11,1,122,6,6,3,['k'],['k'],Y,Y,['space'],Y,,,,,,,,,
11,2,123,0,0,3,['k'],['k'],Y,Y,['space'],Y,,,,,,,,,
11,3,124,8,8,3,['d'],['d'],Y,N,None,Y,,,,,,,,,
11,4,125,9,9,3,['k'],['k'],Y,Y,['space'],Y,,,,,,,,,
11,5,126,5,5,3,['k'],['k'],Y,Y,['space'],Y,,,,,,,,,
11,6,127,1,1,3,['d'],['k'],N,Y,['space'],Y,,,,,,,,,
11,7,128,10,10,3,['k'],['k'],Y,N,None,Y,,,,,,,,,
11,8,129,9,9,3,['d'],['d'],Y,N,None,Y,,,,,,,,,
11,9,130,7,7,3,['d'],['d'],Y,N,None,Y,,,,,,,,,
11,10,131,9,9,3,['d'],['d'],Y,Y,None,N,,,,,,,,,
12,0,132,5,5,3,['d'],['d'],Y,N,None,Y,,,,,,,,,
12,1,133,10,10,3,['k'],['k'],Y,N,None,Y,,,,,,,,,
12,2,134,1,1,3,['k'],['d'],N,Y,['space'],Y,,,,,,,,,
12,3,135,9,9,3,['d'],['d'],Y,N,None,Y,,,,,,,,,
12,4,136,1,1,3,['k'],['d'],N,N,None,Y,,,,,,,,,
12,5,137,9,9,3,['k'],['k'],Y,N,None,Y,,,,,,,,,
12,6,138,9,9,3,['d'],['d'],Y,Y,['space'],Y,,,,,,,,,
12,7,139,3,3,3,['d'],['d'],Y,N,None,Y,,,,,,,,,
12,8,140,1,1,3,['k'],['k'],Y,Y,['space'],Y,,,,,,,,,
12,9,141,0,0,3,['k'],['k'],Y,N,None,Y,,,,,,,,,
12,10,142,6,6,3,['k'],['k'],Y,Y,['space'],Y,,,,,,,,,
13,0,143,2,2,3,['k'],['k'],Y,Y,['space'],Y,,,,,,,,,
13,1,144,0,0,3,['k'],['k'],Y,N,None,Y,,,,,,,,,
13,2,145,8,8,3,['k'],['k'],Y,N,None,Y,,,,,,,,,
13,3,146,5,5,3,['d'],['k'],N,Y,None,N,,,,,,,,,
13,4,147,0,0,3,['d'],['d'],Y,N,['space'],N,,,,,,,,,
13,5,148,6,6,3,['k'],['k'],Y,N,None,Y,,,,,,,,,
13,6,149,9,9,3,['k'],['k'],Y,N,None,Y,46,43,25,,,,,,
13,7,150,10,10,4,['k'],['k'],Y,,,,,,,,,,,,
13,8,151,2,2,4,['d'],['d'],Y,,,,,,,,,,,,
13,9,152,10,10,4,['d'],['d'],Y,N,None,Y,,,,,,,,,
13,10,153,3,3,4,['d'],['d'],Y,N,None,Y,,,,,,,,,
14,0,154,1,1,4,['d'],['d'],Y,N,None,Y,,,,,,,,,
14,1,155,10,10,4,['d'],['d'],Y,Y,['space'],Y,,,,,,,,,
14,2,156,5,5,4,['d'],['d'],Y,N,None,Y,,,,,,,,,
14,3,157,8,8,4,['k'],['k'],Y,Y,None,N,,,,,,,,,
14,4,158,9,9,4,['d'],['d'],Y,N,None,Y,,,,,,,,,
14,5,159,5,5,4,['k'],['k'],Y,N,None,Y,,,,,,,,,
14,6,160,1,1,4,['d'],['d'],Y,N,None,Y,,,,,,,,,
14,7,161,5,5,4,['d'],['d'],Y,Y,['space'],Y,,,,,,,,,
14,8,162,10,10,4,['d'],['d'],Y,N,None,Y,,,,,,,,,
14,9,163,8,8,4,['k'],['d'],N,N,None,Y,,,,,,,,,
14,10,164,2,2,4,['d'],['d'],Y,Y,['space'],Y,,,,,,,,,
15,0,165,1,1,4,['k'],['d'],N,N,None,Y,,,,,,,,,
15,1,166,6,6,4,['k'],['k'],Y,Y,['space'],Y,,,,,,,,,
15,2,167,10,10,4,['d'],['d'],Y,Y,['space'],Y,,,,,,,,,
15,3,168,8,8,4,['d'],['d'],Y,N,None,Y,,,,,,,,,
15,4,169,1,1,4,['d'],['d'],Y,Y,['space'],Y,,,,,,,,,
15,5,170,6,6,4,['d'],['k'],N,Y,['space'],Y,,,,,,,,,
15,6,171,4,4,4,['k'],['k'],Y,N,None,Y,,,,,,,,,
15,7,172,0,0,4,['k'],['k'],Y,N,None,Y,,,,,,,,,
15,8,173,3,3,4,['d'],['d'],Y,N,None,Y,,,,,,,,,
15,9,174,7,7,4,['k'],['k'],Y,N,None,Y,,,,,,,,,
15,10,175,3,3,4,['d'],['d'],Y,Y,['space'],Y,,,,,,,,,
16,0,176,0,0,4,['k'],['k'],Y,Y,['space'],Y,,,,,,,,,
16,1,177,8,8,4,['k'],['k'],Y,Y,['space'],Y,,,,,,,,,
16,2,178,5,5,4,['d'],['k'],N,N,None,Y,,,,,,,,,
16,3,179,0,0,4,['k'],['k'],Y,Y,['space'],Y,,,,,,,,,
16,4,180,5,5,4,['d'],['d'],Y,Y,['space'],Y,,,,,,,,,
16,5,181,5,5,4,['k'],['k'],Y,N,None,Y,,,,,,,,,
16,6,182,8,8,4,['d'],['d'],Y,N,None,Y,,,,,,,,,
16,7,183,2,2,4,['d'],['d'],Y,N,None,Y,,,,,,,,,
16,8,184,0,0,4,['k'],['k'],Y,N,None,Y,,,,,,,,,
16,9,185,5,5,4,['k'],['k'],Y,Y,None,N,,,,,,,,,
16,10,186,10,10,4,['d'],['d'],Y,Y,['space'],Y,,,,,,,,,
17,0,187,4,4,4,['k'],['k'],Y,N,None,Y,,,,,,,,,
17,1,188,2,2,4,['k'],['k'],Y,N,None,Y,,,,,,,,,
17,2,189,3,3,4,['d'],['d'],Y,N,None,Y,,,,,,,,,
17,3,190,3,3,4,['d'],['d'],Y,N,None,Y,,,,,,,,,
17,4,191,2,2,4,['d'],['d'],Y,Y,['space'],Y,,,,,,,,,
17,5,192,7,7,4,['d'],['d'],Y,Y,['space'],Y,,,,,,,,,
17,6,193,10,10,4,['k'],['k'],Y,N,None,Y,,,,,,,,,
17,7,194,9,9,4,['d'],['d'],Y,Y,['space'],Y,,,,,,,,,
17,8,195,8,8,4,['k'],['d'],N,N,None,Y,,,,,,,,,
17,9,196,7,7,4,['d'],['d'],Y,Y,None,N,,,,,,,,,
17,10,197,1,1,4,['d'],['d'],Y,Y,['space'],Y,,,,,,,,,
18,0,198,3,3,4,['d'],['d'],Y,N,None,Y,,,,,,,,,
18,1,199,5,5,4,['k'],['k'],Y,Y,None,N,45,44,21,,,,,,
18,2,200,4,4,5,['k'],['k'],Y,,,,,,,,,,,,
18,3,201,5,5,5,['d'],['k'],N,,,,,,,,,,,,
18,4,202,7,7,5,['d'],['d'],Y,N,None,Y,,,,,,,,,
18,5,203,4,4,5,['k'],['k'],Y,N,None,Y,,,,,,,,,
18,6,204,2,2,5,['d'],['d'],Y,Y,None,N,,,,,,,,,
18,7,205,4,4,5,['d'],['d'],Y,N,None,Y,,,,,,,,,
18,8,206,3,3,5,['k'],['k'],Y,N,None,Y,,,,,,,,,
18,9,207,9,9,5,['d'],['d'],Y,Y,['space'],Y,,,,,,,,,
18,10,208,1,1,5,['d'],['d'],Y,Y,['space'],Y,,,,,,,,,
19,0,209,10,10,5,['d'],['d'],Y,Y,['space'],Y,,,,,,,,,
19,1,210,8,8,5,['d'],['d'],Y,N,None,Y,,,,,,,,,
19,2,211,6,6,5,['d'],['d'],Y,Y,['space'],Y,,,,,,,,,
19,3,212,2,2,5,['d'],['d'],Y,N,None,Y,,,,,,,,,
19,4,213,10,10,5,['k'],['k'],Y,Y,['space'],Y,,,,,,,,,
19,5,214,8,8,5,['k'],['k'],Y,N,None,Y,,,,,,,,,
19,6,215,8,8,5,['k'],['k'],Y,Y,None,N,,,,,,,,,
19,7,216,3,3,5,['d'],['d'],Y,Y,['space'],Y,,,,,,,,,
19,8,217,7,7,5,['k'],['k'],Y,N,None,Y,,,,,,,,,
19,9,218,0,0,5,['k'],['k'],Y,N,None,Y,,,,,,,,,
19,10,219,2,2,5,['d'],['d'],Y,Y,['space'],Y,,,,,,,,,
20,0,220,6,6,5,['k'],['k'],Y,N,None,Y,,,,,,,,,
20,1,221,2,2,5,['d'],['d'],Y,Y,['space'],Y,,,,,,,,,
20,2,222,5,5,5,['d'],['d'],Y,N,None,Y,,,,,,,,,
20,3,223,0,0,5,['k'],['k'],Y,N,None,Y,,,,,,,,,
20,4,224,8,8,5,['k'],['k'],Y,Y,['space'],Y,,,,,,,,,
20,5,225,10,10,5,['k'],['k'],Y,Y,['space'],Y,,,,,,,,,
20,6,226,1,1,5,['d'],['d'],Y,N,None,Y,,,,,,,,,
20,7,227,10,10,5,['d'],['d'],Y,Y,['space'],Y,,,,,,,,,
20,8,228,6,6,5,['d'],['d'],Y,N,None,Y,,,,,,,,,
20,9,229,6,6,5,['d'],['d'],Y,N,['space'],N,,,,,,,,,
20,10,230,7,7,5,['d'],['d'],Y,Y,['space'],Y,,,,,,,,,
21,0,231,3,3,5,['d'],['d'],Y,Y,['d'],N,,,,,,,,,
21,1,232,2,2,5,['k'],['k'],Y,Y,['space'],Y,,,,,,,,,
21,2,233,10,10,5,['d'],['d'],Y,Y,['space'],Y,,,,,,,,,
21,3,234,9,9,5,['d'],['d'],Y,N,None,Y,,,,,,,,,
21,4,235,2,2,5,['k'],['k'],Y,N,None,Y,,,,,,,,,
21,5,236,7,7,5,['k'],['k'],Y,N,None,Y,,,,,,,,,
21,6,237,3,3,5,['k'],['k'],Y,Y,['space'],Y,,,,,,,,,
21,7,238,0,0,5,['k'],['k'],Y,Y,['space'],Y,,,,,,,,,
21,8,239,10,10,5,['k'],['k'],Y,N,None,Y,,,,,,,,,
21,9,240,10,10,5,['k'],['d'],N,Y,['space'],Y,,,,,,,,,
21,10,241,5,5,5,['d'],['d'],Y,Y,['space'],Y,,,,,,,,,
22,0,242,3,3,5,['d'],['d'],Y,Y,None,N,,,,,,,,,
22,1,243,6,6,5,['k'],['k'],Y,Y,None,N,,,,,,,,,
22,2,244,7,7,5,['d'],['d'],Y,Y,['space'],Y,,,,,,,,,
22,3,245,10,10,5,['k'],['k'],Y,Y,['space'],Y,,,,,,,,,
22,4,246,4,4,5,['d'],['k'],N,N,None,Y,,,,,,,,,
22,5,247,4,4,5,['k'],['k'],Y,N,None,Y,,,,,,,,,
22,6,248,6,6,5,['k'],['k'],Y,N,None,Y,,,,,,,,,
22,7,249,0,0,5,['k'],['k'],Y,N,None,Y,47,42,25,,,,,,
22,8,250,5,5,6,['k'],['k'],Y,,,,,,,,,,,,
22,9,251,0,0,6,['d'],['d'],Y,,,,,,,,,,,,
22,10,252,6,6,6,['d'],['d'],Y,N,None,Y,,,,,,,,,
23,0,253,7,7,6,['d'],['d'],Y,Y,['space'],Y,,,,,,,,,
23,1,254,4,4,6,['k'],['k'],Y,N,None,Y,,,,,,,,,
23,2,255,6,6,6,['k'],['k'],Y,Y,['space'],Y,,,,,,,,,
23,3,256,4,4,6,['k'],['k'],Y,N,None,Y,,,,,,,,,
23,4,257,6,6,6,['k'],['k'],Y,N,None,Y,,,,,,,,,
23,5,258,9,9,6,['d'],['d'],Y,Y,['space'],Y,,,,,,,,,
23,6,259,5,5,6,['d'],['d'],Y,Y,['space'],Y,,,,,,,,,
23,7,260,9,9,6,['d'],['d'],Y,N,None,Y,,,,,,,,,
23,8,261,2,2,6,['k'],['k'],Y,N,None,Y,,,,,,,,,
23,9,262,1,1,6,['k'],['k'],Y,N,None,Y,,,,,,,,,
23,10,263,6,6,6,['d'],['d'],Y,Y,['space'],Y,,,,,,,,,
24,0,264,0,0,6,['d'],['d'],Y,N,None,Y,,,,,,,,,
24,1,265,10,10,6,['d'],['d'],Y,Y,['space'],Y,,,,,,,,,
24,2,266,3,3,6,['d'],['k'],N,N,None,Y,,,,,,,,,
24,3,267,7,7,6,['k'],['k'],Y,N,None,Y,,,,,,,,,
24,4,268,2,2,6,['k'],['k'],Y,Y,['space'],Y,,,,,,,,,
24,5,269,3,3,6,['k'],['k'],Y,Y,None,N,,,,,,,,,
24,6,270,1,1,6,['d'],['d'],Y,Y,['space'],Y,,,,,,,,,
24,7,271,6,6,6,['k'],['k'],Y,N,None,Y,,,,,,,,,
24,8,272,9,9,6,['d'],['d'],Y,N,None,Y,,,,,,,,,
24,9,273,9,9,6,['k'],['k'],Y,N,None,Y,,,,,,,,,
24,10,274,5,5,6,['d'],['d'],Y,N,None,Y,,,,,,,,,
25,0,275,4,4,6,['d'],['d'],Y,Y,None,N,,,,,,,,,
25,1,276,6,6,6,['d'],['d'],Y,N,None,Y,,,,,,,,,
25,2,277,4,4,6,['d'],['d'],Y,N,None,Y,,,,,,,,,
25,3,278,10,10,6,['k'],['k'],Y,Y,['space'],Y,,,,,,,,,
25,4,279,4,4,6,['k'],['k'],Y,N,None,Y,,,,,,,,,
25,5,280,0,0,6,['d'],['d'],Y,N,None,Y,,,,,,,,,
25,6,281,8,8,6,['d'],['d'],Y,N,None,Y,,,,,,,,,
25,7,282,1,1,6,['k'],['k'],Y,Y,['space'],Y,,,,,,,,,
25,8,283,7,7,6,['d'],['d'],Y,N,None,Y,,,,,,,,,
25,9,284,10,10,6,['d'],['d'],Y,N,None,Y,,,,,,,,,
25,10,285,1,1,6,['d'],['d'],Y,N,None,Y,,,,,,,,,
26,0,286,5,5,6,['k'],['k'],Y,Y,['space'],Y,,,,,,,,,
26,1,287,2,2,6,['k'],['k'],Y,Y,['space'],Y,,,,,,,,,
26,2,288,4,4,6,['d'],['d'],Y,Y,['space'],Y,,,,,,,,,
26,3,289,1,1,6,['d'],['d'],Y,Y,['space'],Y,,,,,,,,,
26,4,290,3,3,6,['k'],['k'],Y,N,None,Y,,,,,,,,,
26,5,291,7,7,6,['d'],['d'],Y,Y,['space'],Y,,,,,,,,,
26,6,292,9,9,6,['d'],['d'],Y,Y,['space'],Y,,,,,,,,,
26,7,293,1,1,6,['k'],['k'],Y,N,None,Y,,,,,,,,,
26,8,294,4,4,6,['k'],['k'],Y,N,None,Y,,,,,,,,,
26,9,295,9,9,6,['d'],['d'],Y,Y,['space'],Y,,,,,,,,,
26,10,296,5,5,6,['k'],['d'],N,N,None,Y,,,,,,,,,
27,0,297,8,8,6,['d'],['d'],Y,N,None,Y,,,,,,,,,
27,1,298,10,10,6,['d'],['d'],Y,Y,None,N,,,,,,,,,
27,2,299,2,2,6,['k'],['k'],Y,Y,None,N,48,44,21,,,,,,
27,3,300,9,9,7,['k'],['k'],Y,,,,,,,,,,,,
27,4,301,4,4,7,['k'],['k'],Y,,,,,,,,,,,,
27,5,302,3,3,7,['d'],['d'],Y,N,None,Y,,,,,,,,,
27,6,303,2,2,7,['k'],['k'],Y,N,None,Y,,,,,,,,,
27,7,304,7,7,7,['d'],['d'],Y,Y,['space'],Y,,,,,,,,,
27,8,305,5,5,7,['k'],['k'],Y,N,None,Y,,,,,,,,,
27,9,306,5,5,7,['d'],['d'],Y,Y,['space'],Y,,,,,,,,,
27,10,307,1,1,7,['d'],['d'],Y,N,None,Y,,,,,,,,,
28,0,308,10,10,7,['k'],['k'],Y,N,None,Y,,,,,,,,,
28,1,309,1,1,7,['k'],['k'],Y,N,None,Y,,,,,,,,,
28,2,310,4,4,7,['k'],['k'],Y,Y,['space'],Y,,,,,,,,,
28,3,311,5,5,7,['k'],['k'],Y,N,None,Y,,,,,,,,,
28,4,312,9,9,7,['d'],['d'],Y,N,None,Y,,,,,,,,,
28,5,313,2,2,7,['d'],['d'],Y,N,None,Y,,,,,,,,,
28,6,314,9,9,7,['k'],['k'],Y,N,None,Y,,,,,,,,,
28,7,315,2,2,7,['k'],['k'],Y,Y,None,N,,,,,,,,,
28,8,316,10,10,7,['d'],['d'],Y,Y,['space'],Y,,,,,,,,,
28,9,317,6,6,7,['d'],['d'],Y,Y,['space'],Y,,,,,,,,,
28,10,318,1,1,7,['k'],['k'],Y,N,None,Y,,,,,,,,,
29,0,319,0,0,7,['d'],['d'],Y,Y,['space'],Y,,,,,,,,,
29,1,320,6,6,7,['d'],['d'],Y,N,None,Y,,,,,,,,,
29,2,321,7,7,7,['d'],['d'],Y,N,None,Y,,,,,,,,,
29,3,322,0,0,7,['k'],['k'],Y,N,None,Y,,,,,,,,,
29,4,323,4,4,7,['d'],['d'],Y,Y,['space'],Y,,,,,,,,,
29,5,324,0,0,7,['d'],['d'],Y,Y,['space'],Y,,,,,,,,,
29,6,325,7,7,7,['d'],['d'],Y,N,None,Y,,,,,,,,,
29,7,326,0,0,7,['k'],['k'],Y,Y,['space'],Y,,,,,,,,,
29,8,327,4,4,7,['d'],['d'],Y,N,None,Y,,,,,,,,,
29,9,328,3,3,7,['d'],['d'],Y,N,None,Y,,,,,,,,,
29,10,329,9,9,7,['d'],['d'],Y,N,None,Y,,,,,,,,,
30,0,330,4,4,7,['k'],['k'],Y,N,None,Y,,,,,,,,,
30,1,331,5,5,7,['d'],['d'],Y,Y,['space'],Y,,,,,,,,,
30,2,332,6,6,7,['k'],['d'],N,N,['space'],N,,,,,,,,,
30,3,333,10,10,7,['k'],['k'],Y,N,None,Y,,,,,,,,,
30,4,334,5,5,7,['k'],['k'],Y,Y,['space'],Y,,,,,,,,,
30,5,335,2,2,7,['d'],['d'],Y,N,None,Y,,,,,,,,,
30,6,336,9,9,7,['d'],['d'],Y,N,None,Y,,,,,,,,,
30,7,337,1,1,7,['k'],['k'],Y,Y,None,N,,,,,,,,,
30,8,338,3,3,7,['d'],['d'],Y,N,None,Y,,,,,,,,,
30,9,339,6,6,7,['d'],['d'],Y,N,None,Y,,,,,,,,,
30,10,340,7,7,7,['d'],['d'],Y,N,None,Y,,,,,,,,,
31,0,341,6,6,7,['d'],['d'],Y,N,None,Y,,,,,,,,,
31,1,342,5,5,7,['k'],['k'],Y,N,None,Y,,,,,,,,,
31,2,343,8,8,7,['k'],['k'],Y,Y,['space'],Y,,,,,,,,,
31,3,344,9,9,7,['d'],['d'],Y,Y,None,N,,,,,,,,,
31,4,345,0,0,7,['k'],['k'],Y,N,None,Y,,,,,,,,,
31,5,346,2,2,7,['d'],['d'],Y,Y,['space'],Y,,,,,,,,,
31,6,347,1,1,7,['k'],['k'],Y,Y,['space'],Y,,,,,,,,,
31,7,348,8,8,7,['k'],['k'],Y,N,None,Y,,,,,,,,,
31,8,349,7,7,7,['d'],['d'],Y,Y,['space'],Y,49,44,18,,,,,,
31,9,350,6,6,8,['d'],['d'],Y,,,,,,,,,,,,
31,10,351,8,8,8,['k'],['k'],Y,,,,,,,,,,,,
32,0,352,6,6,8,['k'],['k'],Y,Y,['space'],Y,,,,,,,,,
32,1,353,0,0,8,['k'],['k'],Y,N,None,Y,,,,,,,,,
32,2,354,3,3,8,['d'],['d'],Y,N,None,Y,,,,,,,,,
32,3,355,7,7,8,['d'],['d'],Y,Y,['space'],Y,,,,,,,,,
32,4,356,1,1,8,['d'],['d'],Y,N,None,Y,,,,,,,,,
32,5,357,0,0,8,['k'],['k'],Y,Y,None,N,,,,,,,,,
32,6,358,10,10,8,['d'],['d'],Y,Y,None,N,,,,,,,,,
32,7,359,6,6,8,['d'],['d'],Y,N,None,Y,,,,,,,,,
32,8,360,10,10,8,['k'],['k'],Y,N,None,Y,,,,,,,,,
32,9,361,7,7,8,['d'],['d'],Y,Y,['space'],Y,,,,,,,,,
32,10,362,8,8,8,['d'],['k'],N,Y,['space'],Y,,,,,,,,,
33,0,363,9,9,8,['k'],['k'],Y,Y,['space'],Y,,,,,,,,,
33,1,364,9,9,8,['d'],['d'],Y,N,None,Y,,,,,,,,,
33,2,365,10,10,8,['k'],['k'],Y,N,None,Y,,,,,,,,,
33,3,366,7,7,8,['k'],['k'],Y,Y,None,N,,,,,,,,,
33,4,367,6,6,8,['k'],['k'],Y,N,None,Y,,,,,,,,,
33,5,368,3,3,8,['k'],['k'],Y,N,None,Y,,,,,,,,,
33,6,369,4,4,8,['k'],['k'],Y,Y,None,N,,,,,,,,,
33,7,370,7,7,8,['d'],['d'],Y,N,None,Y,,,,,,,,,
33,8,371,6,6,8,['d'],['d'],Y,Y,['space'],Y,,,,,,,,,
33,9,372,0,0,8,['d'],['d'],Y,Y,['space'],Y,,,,,,,,,
33,10,373,4,4,8,['k'],['k'],Y,N,None,Y,,,,,,,,,
34,0,374,6,6,8,['k'],['k'],Y,N,None,Y,,,,,,,,,
34,1,375,1,1,8,['d'],['d'],Y,N,None,Y,,,,,,,,,
34,2,376,3,3,8,['k'],['k'],Y,N,None,Y,,,,,,,,,
34,3,377,8,8,8,['k'],['k'],Y,N,None,Y,,,,,,,,,
34,4,378,10,10,8,['k'],['k'],Y,N,None,Y,,,,,,,,,
34,5,379,7,7,8,['d'],['d'],Y,Y,None,N,,,,,,,,,
34,6,380,10,10,8,['k'],['k'],Y,Y,['space'],Y,,,,,,,,,
34,7,381,10,10,8,['k'],['k'],Y,Y,['space'],Y,,,,,,,,,
34,8,382,7,7,8,['d'],['d'],Y,N,None,Y,,,,,,,,,
34,9,383,5,5,8,['d'],['d'],Y,N,None,Y,,,,,,,,,
34,10,384,2,2,8,['d'],['d'],Y,N,['space'],N,,,,,,,,,
35,0,385,4,4,8,['k'],['k'],Y,Y,['space'],Y,,,,,,,,,
35,1,386,5,5,8,['d'],['d'],Y,N,None,Y,,,,,,,,,
35,2,387,4,4,8,['k'],['k'],Y,Y,['space'],Y,,,,,,,,,
35,3,388,4,4,8,['k'],['k'],Y,N,None,Y,,,,,,,,,
35,4,389,0,0,8,['d'],['d'],Y,Y,['space'],Y,,,,,,,,,
35,5,390,9,9,8,['k'],['k'],Y,N,None,Y,,,,,,,,,
35,6,391,4,4,8,['d'],['d'],Y,N,None,Y,,,,,,,,,
35,7,392,6,6,8,['d'],['d'],Y,N,None,Y,,,,,,,,,
35,8,393,8,8,8,['d'],['d'],Y,N,None,Y,,,,,,,,,
35,9,394,8,8,8,['k'],['k'],Y,Y,None,N,,,,,,,,,
35,10,395,4,4,8,['d'],['d'],Y,N,None,Y,,,,,,,,,
36,0,396,2,2,8,['k'],['k'],Y,Y,['space'],Y,,,,,,,,,
36,1,397,8,8,8,['k'],['k'],Y,N,None,Y,,,,,,,,,
36,2,398,5,5,8,['d'],['d'],Y,Y,['space'],Y,,,,,,,,,
36,3,399,1,1,8,['d'],['d'],Y,Y,None,N,49,40,21,,,,,,
36,4,400,3,3,9,['d'],['d'],Y,,,,,,,,,,,,
36,5,401,10,10,9,['d'],['d'],Y,,,,,,,,,,,,
36,6,402,8,8,9,['d'],['d'],Y,N,None,Y,,,,,,,,,
36,7,403,1,1,9,['k'],['k'],Y,N,None,Y,,,,,,,,,
36,8,404,10,10,9,['k'],['k'],Y,N,None,Y,,,,,,,,,
36,9,405,8,8,9,['k'],['k'],Y,Y,['space'],Y,,,,,,,,,
36,10,406,7,7,9,['k'],['k'],Y,Y,None,N,,,,,,,,,
37,0,407,0,0,9,['d'],['d'],Y,Y,['space'],Y,,,,,,,,,
37,1,408,0,0,9,['k'],['k'],Y,Y,['space'],Y,,,,,,,,,
37,2,409,8,8,9,['d'],['d'],Y,N,None,Y,,,,,,,,,
37,3,410,5,5,9,['d'],['d'],Y,Y,['space'],Y,,,,,,,,,
37,4,411,8,8,9,['k'],['k'],Y,N,None,Y,,,,,,,,,
37,5,412,6,6,9,['d'],['k'],N,Y,['space'],Y,,,,,,,,,
37,6,413,0,0,9,['d'],['d'],Y,N,None,Y,,,,,,,,,
37,7,414,5,5,9,['k'],['k'],Y,Y,['space'],Y,,,,,,,,,
37,8,415,6,6,9,['k'],['k'],Y,N,None,Y,,,,,,,,,
37,9,416,1,1,9,['d'],['d'],Y,Y,['space'],Y,,,,,,,,,
37,10,417,6,6,9,['k'],['k'],Y,N,None,Y,,,,,,,,,
38,0,418,8,8,9,['k'],['k'],Y,Y,['space'],Y,,,,,,,,,
38,1,419,1,1,9,['d'],['d'],Y,N,None,Y,,,,,,,,,
38,2,420,8,8,9,['k'],['k'],Y,Y,['space'],Y,,,,,,,,,
38,3,421,3,3,9,['d'],['d'],Y,N,None,Y,,,,,,,,,
38,4,422,2,2,9,['d'],['d'],Y,N,None,Y,,,,,,,,,
38,5,423,3,3,9,['k'],['k'],Y,N,None,Y,,,,,,,,,
38,6,424,7,7,9,['k'],['k'],Y,Y,['space'],Y,,,,,,,,,
38,7,425,5,5,9,['d'],['k'],N,Y,['space'],Y,,,,,,,,,
38,8,426,5,5,9,['d'],['d'],Y,N,None,Y,,,,,,,,,
38,9,427,4,4,9,['k'],['k'],Y,Y,['space'],Y,,,,,,,,,
38,10,428,4,4,9,['d'],['d'],Y,Y,None,N,,,,,,,,,
39,0,429,1,1,9,['k'],['k'],Y,N,None,Y,,,,,,,,,
39,1,430,8,8,9,['d'],['d'],Y,Y,None,N,,,,,,,,,
39,2,431,5,5,9,['d'],['d'],Y,N,None,Y,,,,,,,,,
39,3,432,0,0,9,['k'],['k'],Y,Y,['space'],Y,,,,,,,,,
39,4,433,4,4,9,['d'],['d'],Y,N,None,Y,,,,,,,,,
39,5,434,9,9,9,['k'],['k'],Y,N,None,Y,,,,,,,,,
39,6,435,2,2,9,['k'],['k'],Y,Y,None,N,,,,,,,,,
39,7,436,1,1,9,['k'],['k'],Y,Y,['space'],Y,,,,,,,,,
39,8,437,10,10,9,['k'],['k'],Y,Y,['space'],Y,,,,,,,,,
39,9,438,10,10,9,['k'],['k'],Y,N,None,Y,,,,,,,,,
39,10,439,4,4,9,['d'],['k'],N,Y,['space'],Y,,,,,,,,,
40,0,440,4,4,9,['d'],['d'],Y,N,None,Y,,,,,,,,,
40,1,441,7,7,9,['d'],['d'],Y,N,None,Y,,,,,,,,,
40,2,442,4,4,9,['d'],['d'],Y,Y,['space'],Y,,,,,,,,,
40,3,443,6,6,9,['d'],['d'],Y,N,None,Y,,,,,,,,,
40,4,444,0,0,9,['k'],['k'],Y,Y,None,N,,,,,,,,,
40,5,445,3,3,9,['d'],['d'],Y,Y,None,N,,,,,,,,,
40,6,446,7,7,9,['d'],['d'],Y,N,None,Y,,,,,,,,,
40,7,447,9,9,9,['d'],['d'],Y,Y,None,N,,,,,,,,,
40,8,448,7,7,9,['k'],['k'],Y,Y,None,N,,,,,,,,,
40,9,449,9,9,9,['d'],['d'],Y,N,None,Y,47,40,25,,,,,,
40,10,450,7,7,10,['k'],['k'],Y,,,,,,,,,,,,
41,0,451,2,2,10,['k'],['k'],Y,,,,,,,,,,,,
41,1,452,3,3,10,['d'],['d'],Y,N,None,Y,,,,,,,,,
41,2,453,8,8,10,['d'],['d'],Y,N,None,Y,,,,,,,,,
41,3,454,0,0,10,['d'],['d'],Y,N,None,Y,,,,,,,,,
41,4,455,7,7,10,['k'],['k'],Y,N,None,Y,,,,,,,,,
41,5,456,1,1,10,['d'],['d'],Y,N,None,Y,,,,,,,,,
41,6,457,9,9,10,['k'],['k'],Y,N,None,Y,,,,,,,,,
41,7,458,2,2,10,['d'],['d'],Y,N,None,Y,,,,,,,,,
41,8,459,5,5,10,['k'],['k'],Y,N,None,Y,,,,,,,,,
41,9,460,0,0,10,['k'],['k'],Y,Y,['space'],Y,,,,,,,,,
41,10,461,0,0,10,['k'],['d'],N,N,None,Y,,,,,,,,,
42,0,462,6,6,10,['k'],['k'],Y,Y,['space'],Y,,,,,,,,,
42,1,463,2,2,10,['d'],['d'],Y,Y,['space'],Y,,,,,,,,,
42,2,464,5,5,10,['d'],['d'],Y,N,None,Y,,,,,,,,,
42,3,465,7,7,10,['d'],['d'],Y,Y,['space'],Y,,,,,,,,,
42,4,466,0,0,10,['k'],['k'],Y,Y,['space'],Y,,,,,,,,,
42,5,467,6,6,10,['k'],['d'],N,N,None,Y,,,,,,,,,
42,6,468,0,0,10,['d'],['d'],Y,N,None,Y,,,,,,,,,
42,7,469,5,5,10,['k'],['k'],Y,Y,['space'],Y,,,,,,,,,
42,8,470,2,2,10,['k'],['k'],Y,Y,None,N,,,,,,,,,
42,9,471,6,6,10,['d'],['d'],Y,Y,['space'],Y,,,,,,,,,
42,10,472,3,3,10,['k'],['k'],Y,Y,['space'],Y,,,,,,,,,
43,0,473,1,1,10,['k'],['k'],Y,N,None,Y,,,,,,,,,
43,1,474,4,4,10,['k'],['k'],Y,N,None,Y,,,,,,,,,
43,2,475,2,2,10,['k'],['k'],Y,N,None,Y,,,,,,,,,
43,3,476,9,9,10,['d'],['d'],Y,Y,['space'],Y,,,,,,,,,
43,4,477,4,4,10,['d'],['d'],Y,Y,['space'],Y,,,,,,,,,
43,5,478,7,7,10,['k'],['k'],Y,Y,['space'],Y,,,,,,,,,
43,6,479,5,5,10,['d'],['d'],Y,N,None,Y,,,,,,,,,
43,7,480,6,6,10,['k'],['k'],Y,Y,None,N,,,,,,,,,
43,8,481,6,6,10,['d'],['d'],Y,N,None,Y,,,,,,,,,
43,9,482,5,5,10,['k'],['k'],Y,Y,['space'],Y,,,,,,,,,
43,10,483,7,7,10,['k'],['k'],Y,N,None,Y,,,,,,,,,
44,0,484,5,5,10,['d'],['k'],N,N,None,Y,,,,,,,,,
44,1,485,3,3,10,['d'],['d'],Y,N,None,Y,,,,,,,,,
44,2,486,0,0,10,['k'],['k'],Y,N,None,Y,,,,,,,,,
44,3,487,1,1,10,['k'],['k'],Y,N,None,Y,,,,,,,,,
44,4,488,8,8,10,['d'],['d'],Y,Y,['space'],Y,,,,,,,,,
44,5,489,5,5,10,['d'],['d'],Y,Y,['space'],Y,,,,,,,,,
44,6,490,3,3,10,['k'],['d'],N,N,None,Y,,,,,,,,,
44,7,491,2,2,10,['k'],['k'],Y,Y,['space'],Y,,,,,,,,,
44,8,492,9,9,10,['k'],['k'],Y,Y,None,N,,,,,,,,,
44,9,493,8,8,10,['k'],['k'],Y,N,None,Y,,,,,,,,,
44,10,494,7,7,10,['d'],['k'],N,N,None,Y,,,,,,,,,
45,0,495,9,9,10,['d'],['d'],Y,Y,['space'],Y,,,,,,,,,
45,1,496,10,10,10,['d'],['d'],Y,Y,None,N,,,,,,,,,
45,2,497,10,10,10,['d'],['d'],Y,N,None,Y,,,,,,,,,
45,3,498,2,2,10,['d'],['d'],Y,Y,['space'],Y,,,,,,,,,
45,4,499,2,2,10,['k'],['k'],Y,Y,['space'],Y,45,44,22,,,,,,
45,5,500,2,2,11,['d'],['k'],Y,,,,,,,Y,Y,Y,,,
45,6,501,7,7,11,['d'],['k'],Y,,,,,,,,Y,Y,,,
45,7,502,5,5,11,['k'],['k'],N,Y,['space'],Y,,,,,Y,Y,,,
45,8,503,4,4,11,['d'],['k'],Y,N,None,Y,,,,,Y,Y,,,
45,9,504,9,9,11,['k'],['d'],Y,Y,['space'],Y,,,,,Y,Y,,,
45,10,505,6,6,11,['d'],['d'],N,Y,['space'],Y,,,,,Y,Y,,,
46,0,506,5,5,11,['d'],['k'],Y,Y,None,N,,,,,Y,Y,,,
46,1,507,0,0,11,['k'],['d'],Y,N,None,Y,,,,,Y,Y,,,
46,2,508,4,4,11,['k'],['d'],Y,Y,None,N,,,,,Y,Y,,,
46,3,509,2,2,11,None,,Timed out,N,['space'],N,,,,,Y,Y,,,
46,4,510,2,2,11,['d'],['k'],Y,Y,['space'],Y,,,,,Y,Y,,,
46,5,511,10,10,11,['d'],['k'],Y,N,None,Y,,,,,Y,Y,,,
46,6,512,7,7,11,['d'],['k'],Y,Y,['space'],Y,,,,,Y,Y,,,
46,7,513,9,9,11,['d'],['k'],Y,Y,['space'],Y,,,,,Y,Y,,,
46,8,514,2,2,11,['d'],['k'],Y,N,None,Y,,,,,Y,Y,,,
46,9,515,4,4,11,['d'],['k'],Y,Y,['space'],Y,,,,,Y,Y,,,
46,10,516,7,7,11,['d'],['k'],Y,Y,['space'],Y,,,,,Y,Y,,,
47,0,517,3,3,11,['d'],['d'],N,Y,['space'],Y,,,,,Y,Y,,,
47,1,518,0,0,11,['k'],['d'],Y,N,None,Y,,,,,Y,Y,,,
47,2,519,9,9,11,['d'],['k'],Y,N,None,Y,,,,,Y,Y,,,
47,3,520,10,10,11,['k'],['d'],Y,Y,['space'],Y,,,,,Y,Y,,,
47,4,521,1,1,11,['d'],['k'],Y,Y,['space'],Y,,,,,Y,Y,,,
47,5,522,6,6,11,['d'],['k'],Y,Y,['space'],Y,,,,,Y,Y,,,
47,6,523,10,10,11,['d'],['k'],Y,N,None,Y,,,,,Y,Y,,,
47,7,524,4,4,11,['k'],['d'],Y,N,None,Y,,,,,Y,Y,,,
47,8,525,6,6,11,['k'],['d'],Y,N,None,Y,,,,,Y,Y,,,
47,9,526,7,7,11,['d'],['k'],Y,N,None,Y,,,,,Y,Y,,,
47,10,527,2,2,11,['k'],['d'],Y,Y,['space'],Y,,,,,Y,Y,,,
48,0,528,4,4,11,['k'],['d'],Y,N,None,Y,,,,,Y,Y,,,
48,1,529,6,6,11,['d'],['d'],N,Y,None,N,,,,,Y,Y,,,
48,2,530,0,0,11,['k'],['d'],Y,N,None,Y,,,,,Y,Y,,,
48,3,531,1,1,11,['d'],['k'],Y,Y,['space'],Y,,,,,Y,Y,,,
48,4,532,10,10,11,['k'],['d'],Y,N,None,Y,,,,,Y,Y,,,
48,5,533,2,2,11,['k'],['d'],Y,N,None,Y,,,,,Y,Y,,,
48,6,534,3,3,11,['d'],['k'],Y,N,None,Y,,,,,Y,Y,,,
48,7,535,6,6,11,['k'],['d'],Y,Y,['space'],Y,,,,,Y,Y,,,
48,8,536,9,9,11,['k'],['d'],Y,Y,['space'],Y,,,,,Y,Y,,,
48,9,537,5,5,11,['d'],['k'],Y,N,None,Y,,,,,Y,Y,,,
48,10,538,7,7,11,['k'],['d'],Y,N,None,Y,,,,,Y,Y,,,
49,0,539,10,10,11,['d'],['k'],Y,N,None,Y,,,,,Y,Y,,,
49,1,540,3,3,11,['k'],['d'],Y,N,None,Y,,,,,Y,Y,,,
49,2,541,9,9,11,['d'],['k'],Y,Y,['space'],Y,,,,,Y,Y,,,
49,3,542,1,1,11,['d'],['k'],Y,N,None,Y,,,,,Y,Y,,,
49,4,543,7,7,11,['d'],['k'],Y,Y,['space'],Y,,,,,Y,Y,,,
49,5,544,7,7,11,['k'],['d'],Y,N,None,Y,,,,,Y,Y,,,
49,6,545,3,3,11,['k'],['d'],Y,N,None,Y,,,,,Y,Y,,,
49,7,546,8,8,11,['k'],['d'],Y,N,None,Y,,,,,Y,Y,,,
49,8,547,3,3,11,['k'],['d'],Y,Y,['space'],Y,,,,,Y,Y,,,
49,9,548,8,8,11,['k'],['d'],Y,N,None,Y,,,,,Y,Y,,,
49,10,549,2,2,11,['k'],['d'],Y,N,None,Y,45,44,22,,Y,Y,,,
50,0,550,5,5,12,['k'],['d'],Y,,,,,,,,Y,Y,,,
50,1,551,5,5,12,['d'],['k'],Y,,,,,,,,Y,Y,,,
50,2,552,1,1,12,['d'],['k'],Y,N,None,Y,,,,,Y,Y,,,
50,3,553,4,4,12,['d'],['k'],Y,Y,['space'],Y,,,,,Y,Y,,,
50,4,554,2,2,12,['k'],['d'],Y,N,None,Y,,,,,Y,Y,,,
50,5,555,9,9,12,['d'],['k'],Y,N,None,Y,,,,,Y,Y,,,
50,6,556,9,9,12,['k'],['d'],Y,N,None,Y,,,,,Y,Y,,,
50,7,557,4,4,12,['d'],['k'],Y,Y,['space'],Y,,,,,Y,Y,,,
50,8,558,10,10,12,['k'],['d'],Y,Y,['space'],Y,,,,,Y,Y,,,
50,9,559,4,4,12,['d'],['k'],Y,N,None,Y,,,,,Y,Y,,,
50,10,560,0,0,12,['k'],['d'],Y,N,None,Y,,,,,Y,Y,,,
51,0,561,6,6,12,['k'],['d'],Y,Y,['space'],Y,,,,,Y,Y,,,
51,1,562,6,6,12,['d'],['k'],Y,Y,['space'],Y,,,,,Y,Y,,,
51,2,563,5,5,12,['k'],['k'],N,Y,['space'],Y,,,,,Y,Y,,,
51,3,564,0,0,12,['d'],['k'],Y,Y,['space'],Y,,,,,Y,Y,,,
51,4,565,2,2,12,['k'],['d'],Y,N,None,Y,,,,,Y,Y,,,
51,5,566,9,9,12,['k'],['d'],Y,N,None,Y,,,,,Y,Y,,,
51,6,567,1,1,12,None,,Timed out,Y,['space'],Y,,,,,Y,Y,,,
51,7,568,9,9,12,['d'],['k'],Y,Y,['space'],Y,,,,,Y,Y,,,
51,8,569,2,2,12,['d'],['k'],Y,Y,None,N,,,,,Y,Y,,,
51,9,570,0,0,12,['d'],['k'],Y,N,None,Y,,,,,Y,Y,,,
51,10,571,9,9,12,['d'],['k'],Y,N,['space'],N,,,,,Y,Y,,,
52,0,572,3,3,12,['d'],['k'],Y,Y,None,N,,,,,Y,Y,,,
52,1,573,9,9,12,['d'],['d'],N,N,None,Y,,,,,Y,Y,,,
52,2,574,7,7,12,['k'],['d'],Y,N,None,Y,,,,,Y,Y,,,
52,3,575,10,10,12,['d'],['k'],Y,N,None,Y,,,,,Y,Y,,,
52,4,576,10,10,12,['k'],['d'],Y,N,None,Y,,,,,Y,Y,,,
52,5,577,5,5,12,['d'],['k'],Y,N,None,Y,,,,,Y,Y,,,
52,6,578,1,1,12,['d'],['k'],Y,N,None,Y,,,,,Y,Y,,,
52,7,579,1,1,12,['k'],['d'],Y,N,None,Y,,,,,Y,Y,,,
52,8,580,7,7,12,['k'],['d'],Y,N,None,Y,,,,,Y,Y,,,
52,9,581,0,0,12,['k'],['d'],Y,N,None,Y,,,,,Y,Y,,,
52,10,582,7,7,12,['d'],['k'],Y,N,None,Y,,,,,Y,Y,,,
53,0,583,5,5,12,['k'],['d'],Y,N,None,Y,,,,,Y,Y,,,
53,1,584,9,9,12,['d'],['k'],Y,Y,None,N,,,,,Y,Y,,,
53,2,585,4,4,12,['k'],['d'],Y,Y,None,N,,,,,Y,Y,,,
53,3,586,8,8,12,['d'],['k'],Y,Y,['space'],Y,,,,,Y,Y,,,
53,4,587,3,3,12,['k'],['d'],Y,N,None,Y,,,,,Y,Y,,,
53,5,588,3,3,12,['d'],['k'],Y,Y,['space'],Y,,,,,Y,Y,,,
53,6,589,7,7,12,['d'],['k'],Y,Y,['space'],Y,,,,,Y,Y,,,
53,7,590,4,4,12,['k'],['d'],Y,N,None,Y,,,,,Y,Y,,,
53,8,591,10,10,12,['d'],['d'],N,Y,['space'],Y,,,,,Y,Y,,,
53,9,592,0,0,12,['d'],['k'],Y,N,None,Y,,,,,Y,Y,,,
53,10,593,10,10,12,['d'],['k'],Y,Y,['space'],Y,,,,,Y,Y,,,
54,0,594,7,7,12,['d'],['k'],Y,Y,['space'],Y,,,,,Y,Y,,,
54,1,595,6,6,12,['k'],['d'],Y,Y,['space'],Y,,,,,Y,Y,,,
54,2,596,3,3,12,['k'],['d'],Y,Y,['space'],Y,,,,,Y,Y,,,
54,3,597,4,4,12,['d'],['k'],Y,Y,['space'],Y,,,,,Y,Y,,,
54,4,598,2,2,12,['k'],['d'],Y,N,None,Y,,,,,Y,Y,,,
54,5,599,4,4,12,['d'],['k'],Y,N,None,Y,46,43,22,,Y,Y,,,
