.thisRepN,.thisTrialN,.thisN,.thisIndex,.thisTrial,Block Number,Key pressed,Category,Correct?,Int Match?,Int Response,Int Correct?,Line Accuracy,Interference Accuracy,Matching Interferences,New instruction shown?,Buttons switched?,Fast?,gender,age,
0,0,0,2,2,1,['d'],['d'],Y,,,,,,,,,,F,21,
0,1,1,8,8,1,['d'],['k'],N,,,,,,,,,,F,21,
0,2,2,6,6,1,['k'],['k'],Y,N,None,Y,,,,,,,F,21,
0,3,3,10,10,1,['d'],['d'],Y,Y,['space'],Y,,,,,,,F,21,
0,4,4,6,6,1,['k'],['d'],N,Y,None,N,,,,,,,F,21,
0,5,5,9,9,1,['d'],['d'],Y,Y,None,N,,,,,,,F,21,
0,6,6,0,0,1,['k'],['k'],Y,Y,['space'],Y,,,,,,,F,21,
0,7,7,6,6,1,['d'],['k'],N,Y,None,N,,,,,,,F,21,
0,8,8,2,2,1,['k'],['k'],Y,Y,None,N,,,,,,,F,21,
0,9,9,10,10,1,['d'],['d'],Y,N,None,Y,,,,,,,F,21,
0,10,10,7,7,1,['k'],['k'],Y,Y,None,N,,,,,,,F,21,
1,0,11,10,10,1,['k'],['d'],N,N,None,Y,,,,,,,F,21,
1,1,12,0,0,1,['d'],['d'],Y,N,None,Y,,,,,,,F,21,
1,2,13,2,2,1,['d'],['d'],Y,Y,None,N,,,,,,,F,21,
1,3,14,9,9,1,['k'],['d'],N,Y,None,N,,,,,,,F,21,
1,4,15,1,1,1,['k'],['k'],Y,Y,None,N,,,,,,,F,21,
1,5,16,8,8,1,['d'],['d'],Y,Y,None,N,,,,,,,F,21,
1,6,17,8,8,1,['k'],['d'],N,Y,None,N,,,,,,,F,21,
1,7,18,8,8,1,['d'],['d'],Y,N,None,Y,,,,,,,F,21,
1,8,19,3,3,1,['k'],['d'],N,N,None,Y,,,,,,,F,21,
1,9,20,0,0,1,['d'],['d'],Y,Y,None,N,,,,,,,F,21,
1,10,21,8,8,1,['k'],['d'],N,Y,['space'],Y,,,,,,,F,21,
2,0,22,10,10,1,['d'],['d'],Y,Y,None,N,,,,,,,F,21,
2,1,23,6,6,1,['k'],['d'],N,Y,None,N,,,,,,,F,21,
2,2,24,0,0,1,['d'],['k'],N,N,None,Y,,,,,,,F,21,
2,3,25,2,2,1,['k'],['d'],N,Y,None,N,,,,,,,F,21,
2,4,26,5,5,1,['d'],['d'],Y,N,None,Y,,,,,,,F,21,
2,5,27,6,6,1,['k'],['d'],N,N,None,Y,,,,,,,F,21,
2,6,28,2,2,1,['d'],['k'],N,Y,None,N,,,,,,,F,21,
2,7,29,8,8,1,['k'],['d'],N,N,None,Y,,,,,,,F,21,
2,8,30,1,1,1,['d'],['k'],N,N,None,Y,,,,,,,F,21,
2,9,31,7,7,1,['k'],['d'],N,N,None,Y,,,,,,,F,21,
2,10,32,5,5,1,['d'],['d'],Y,Y,None,N,,,,,,,F,21,
3,0,33,3,3,1,['k'],['k'],Y,Y,['space'],Y,,,,,,,F,21,
3,1,34,4,4,1,['k'],['k'],Y,Y,None,N,,,,,,,F,21,
3,2,35,9,9,1,['d'],['d'],Y,Y,None,N,,,,,,,F,21,
3,3,36,6,6,1,['d'],['k'],N,Y,['space'],Y,,,,,,,F,21,
3,4,37,0,0,1,['k'],['d'],N,Y,None,N,,,,,,,F,21,
3,5,38,0,0,1,['d'],['d'],Y,Y,None,N,,,,,,,F,21,
3,6,39,9,9,1,['d'],['d'],Y,N,None,Y,,,,,,,F,21,
3,7,40,7,7,1,['d'],['d'],Y,N,['space'],N,,,,,,,F,21,
3,8,41,7,7,1,['k'],['d'],N,N,None,Y,,,,,,,F,21,
3,9,42,5,5,1,['d'],['d'],Y,N,None,Y,,,,,,,F,21,
3,10,43,3,3,1,['k'],['k'],Y,N,None,Y,,,,,,,F,21,
4,0,44,10,10,1,['k'],['d'],N,N,None,Y,,,,,,,F,21,
4,1,45,3,3,1,['d'],['k'],N,N,None,Y,,,,,,,F,21,
4,2,46,2,2,1,['d'],['k'],N,N,None,Y,,,,,,,F,21,
4,3,47,3,3,1,['k'],['d'],N,N,None,Y,,,,,,,F,21,
4,4,48,0,0,1,['d'],['d'],Y,N,None,Y,,,,,,,F,21,
4,5,49,3,3,1,['k'],['d'],N,N,None,Y,26,27,25,,,,F,21,
4,6,50,4,4,2,['d'],['k'],N,,,,,,,,,,F,21,
4,7,51,3,3,2,['k'],['d'],N,,,,,,,,,,F,21,
4,8,52,10,10,2,['k'],['k'],Y,Y,['space'],Y,,,,,,,F,21,
4,9,53,5,5,2,['k'],['k'],Y,Y,['space'],Y,,,,,,,F,21,
4,10,54,7,7,2,['d'],['k'],N,Y,['space'],Y,,,,,,,F,21,
5,0,55,10,10,2,['k'],['d'],N,N,None,Y,,,,,,,F,21,
5,1,56,8,8,2,['d'],['k'],N,N,None,Y,,,,,,,F,21,
5,2,57,1,1,2,['k'],['k'],Y,Y,['space'],Y,,,,,,,F,21,
5,3,58,6,6,2,['k'],['d'],N,N,None,Y,,,,,,,F,21,
5,4,59,1,1,2,['d'],['d'],Y,N,None,Y,,,,,,,F,21,
5,5,60,8,8,2,['d'],['k'],N,Y,['space'],Y,,,,,,,F,21,
5,6,61,9,9,2,['k'],['d'],N,N,None,Y,,,,,,,F,21,
5,7,62,2,2,2,['k'],['d'],N,N,None,Y,,,,,,,F,21,
5,8,63,6,6,2,['d'],['d'],Y,Y,['space'],Y,,,,,,,F,21,
5,9,64,7,7,2,['k'],['k'],Y,Y,None,N,,,,,,,F,21,
5,10,65,2,2,2,['k'],['k'],Y,Y,['space'],Y,,,,,,,F,21,
6,0,66,0,0,2,['d'],['k'],N,N,None,Y,,,,,,,F,21,
6,1,67,0,0,2,['k'],['d'],N,N,None,Y,,,,,,,F,21,
6,2,68,4,4,2,['d'],['k'],N,N,None,Y,,,,,,,F,21,
6,3,69,9,9,2,['k'],['d'],N,Y,['space'],Y,,,,,,,F,21,
6,4,70,3,3,2,['k'],['d'],N,N,None,Y,,,,,,,F,21,
6,5,71,3,3,2,['d'],['k'],N,N,None,Y,,,,,,,F,21,
6,6,72,2,2,2,['d'],['d'],Y,Y,['space'],Y,,,,,,,F,21,
6,7,73,1,1,2,['k'],['k'],Y,Y,['space'],Y,,,,,,,F,21,
6,8,74,3,3,2,['d'],['d'],Y,N,None,Y,,,,,,,F,21,
6,9,75,1,1,2,['k'],['k'],Y,Y,['space'],Y,,,,,,,F,21,
6,10,76,9,9,2,['d'],['d'],Y,Y,['space'],Y,,,,,,,F,21,
7,0,77,9,9,2,['k'],['k'],Y,N,None,Y,,,,,,,F,21,
7,1,78,4,4,2,['d'],['k'],N,Y,['space'],Y,,,,,,,F,21,
7,2,79,7,7,2,['k'],['k'],Y,N,None,Y,,,,,,,F,21,
7,3,80,6,6,2,['d'],['d'],Y,Y,['space'],Y,,,,,,,F,21,
7,4,81,2,2,2,['d'],['k'],N,N,None,Y,,,,,,,F,21,
7,5,82,10,10,2,['k'],['d'],N,Y,['space'],Y,,,,,,,F,21,
7,6,83,3,3,2,['d'],['k'],N,N,None,Y,,,,,,,F,21,
7,7,84,4,4,2,['k'],['d'],N,N,None,Y,,,,,,,F,21,
7,8,85,3,3,2,['d'],['k'],N,N,None,Y,,,,,,,F,21,
7,9,86,9,9,2,['d'],['k'],N,Y,['space'],Y,,,,,,,F,21,
7,10,87,10,10,2,['k'],['d'],N,Y,None,N,,,,,,,F,21,
8,0,88,3,3,2,['d'],['d'],Y,Y,['space'],Y,,,,,,,F,21,
8,1,89,9,9,2,['k'],['d'],N,N,None,Y,,,,,,,F,21,
8,2,90,9,9,2,['d'],['d'],Y,Y,['space'],Y,,,,,,,F,21,
8,3,91,10,10,2,['k'],['k'],Y,N,None,Y,,,,,,,F,21,
8,4,92,1,1,2,['d'],['d'],Y,N,None,Y,,,,,,,F,21,
8,5,93,7,7,2,['k'],['d'],N,Y,['space'],Y,,,,,,,F,21,
8,6,94,8,8,2,['d'],['d'],Y,N,None,Y,,,,,,,F,21,
8,7,95,3,3,2,['k'],['k'],Y,N,None,Y,,,,,,,F,21,
8,8,96,10,10,2,['d'],['d'],Y,Y,['space'],Y,,,,,,,F,21,
8,9,97,6,6,2,['k'],['d'],N,Y,['space'],Y,,,,,,,F,21,
8,10,98,9,9,2,['d'],['d'],Y,N,None,Y,,,,,,,F,21,
9,0,99,9,9,2,['d'],['d'],Y,N,None,Y,24,46,23,,,,F,21,
9,1,100,3,3,3,['d'],['k'],N,,,,,,,,,,F,21,
9,2,101,10,10,3,['k'],['d'],N,,,,,,,,,,F,21,
9,3,102,0,0,3,['d'],['d'],Y,Y,['space'],Y,,,,,,,F,21,
9,4,103,9,9,3,['k'],['d'],N,N,None,Y,,,,,,,F,21,
9,5,104,5,5,3,['d'],['d'],Y,Y,None,N,,,,,,,F,21,
9,6,105,7,7,3,['k'],['d'],N,Y,['k'],N,,,,,,,F,21,
9,7,106,6,6,3,['d'],['k'],N,Y,['space'],Y,,,,,,,F,21,
9,8,107,10,10,3,['k'],['d'],N,N,None,Y,,,,,,,F,21,
9,9,108,3,3,3,['d'],['d'],Y,N,None,Y,,,,,,,F,21,
9,10,109,0,0,3,['k'],['d'],N,N,None,Y,,,,,,,F,21,
10,0,110,8,8,3,['d'],['d'],Y,Y,None,N,,,,,,,F,21,
10,1,111,1,1,3,['k'],['d'],N,N,None,Y,,,,,,,F,21,
10,2,112,4,4,3,['d'],['k'],N,Y,['space'],Y,,,,,,,F,21,
10,3,113,6,6,3,['d'],['d'],Y,N,None,Y,,,,,,,F,21,
10,4,114,3,3,3,['d'],['d'],Y,Y,['space'],Y,,,,,,,F,21,
10,5,115,3,3,3,['k'],['k'],Y,Y,['space'],Y,,,,,,,F,21,
10,6,116,2,2,3,['d'],['k'],N,N,None,Y,,,,,,,F,21,
10,7,117,0,0,3,['k'],['d'],N,N,['space'],N,,,,,,,F,21,
10,8,118,3,3,3,['d'],['d'],Y,Y,['space'],Y,,,,,,,F,21,
10,9,119,6,6,3,['k'],['d'],N,N,None,Y,,,,,,,F,21,
10,10,120,8,8,3,['d'],['k'],N,N,None,Y,,,,,,,F,21,
11,0,121,10,10,3,['d'],['k'],N,Y,['space'],Y,,,,,,,F,21,
11,1,122,6,6,3,['k'],['k'],Y,Y,['space'],Y,,,,,,,F,21,
11,2,123,6,6,3,['d'],['d'],Y,N,None,Y,,,,,,,F,21,
11,3,124,0,0,3,['d'],['d'],Y,Y,['space'],Y,,,,,,,F,21,
11,4,125,2,2,3,['k'],['k'],Y,Y,['space'],Y,,,,,,,F,21,
11,5,126,3,3,3,['d'],['k'],N,Y,['space'],Y,,,,,,,F,21,
11,6,127,4,4,3,['k'],['d'],N,Y,['space'],Y,,,,,,,F,21,
11,7,128,0,0,3,['d'],['k'],N,N,None,Y,,,,,,,F,21,
11,8,129,6,6,3,['k'],['k'],Y,N,None,Y,,,,,,,F,21,
11,9,130,5,5,3,['k'],['k'],Y,Y,['space'],Y,,,,,,,F,21,
11,10,131,4,4,3,['d'],['k'],N,N,None,Y,,,,,,,F,21,
12,0,132,10,10,3,['k'],['k'],Y,N,None,Y,,,,,,,F,21,
12,1,133,8,8,3,['d'],['k'],N,N,['space'],N,,,,,,,F,21,
12,2,134,8,8,3,None,,Timed out,Y,['space'],Y,,,,,,,F,21,
12,3,135,4,4,3,['d'],['k'],N,Y,['space'],Y,,,,,,,F,21,
12,4,136,10,10,3,['d'],['k'],N,N,None,Y,,,,,,,F,21,
12,5,137,8,8,3,['k'],['k'],Y,Y,['space'],Y,,,,,,,F,21,
12,6,138,6,6,3,['d'],['d'],Y,N,None,Y,,,,,,,F,21,
12,7,139,8,8,3,['d'],['k'],N,Y,['space'],Y,,,,,,,F,21,
12,8,140,3,3,3,['k'],['d'],N,N,None,Y,,,,,,,F,21,
12,9,141,1,1,3,['d'],['d'],Y,N,None,Y,,,,,,,F,21,
12,10,142,9,9,3,['k'],['d'],N,N,None,Y,,,,,,,F,21,
13,0,143,5,5,3,['d'],['k'],N,N,None,Y,,,,,,,F,21,
13,1,144,9,9,3,['d'],['d'],Y,Y,['space'],Y,,,,,,,F,21,
13,2,145,1,1,3,['k'],['k'],Y,N,None,Y,,,,,,,F,21,
13,3,146,4,4,3,['d'],['k'],N,N,None,Y,,,,,,,F,21,
13,4,147,2,2,3,['k'],['d'],N,N,None,Y,,,,,,,F,21,
13,5,148,0,0,3,['d'],['d'],Y,N,None,Y,,,,,,,F,21,
13,6,149,9,9,3,['d'],['d'],Y,Y,None,N,22,42,22,,,,F,21,
13,7,150,2,2,4,['k'],['d'],N,,,,,,,,,,F,21,
13,8,151,0,0,4,['d'],['d'],Y,,,,,,,,,,F,21,
13,9,152,3,3,4,['k'],['d'],N,Y,['space'],Y,,,,,,,F,21,
13,10,153,4,4,4,['d'],['d'],Y,Y,['space'],Y,,,,,,,F,21,
14,0,154,1,1,4,['k'],['d'],N,Y,['space'],Y,,,,,,,F,21,
14,1,155,2,2,4,['d'],['d'],Y,Y,['space'],Y,,,,,,,F,21,
14,2,156,2,2,4,['k'],['k'],Y,N,None,Y,,,,,,,F,21,
14,3,157,10,10,4,['d'],['k'],N,Y,['space'],Y,,,,,,,F,21,
14,4,158,3,3,4,['d'],['k'],N,N,None,Y,,,,,,,F,21,
14,5,159,0,0,4,['d'],['d'],Y,Y,['k'],N,,,,,,,F,21,
14,6,160,3,3,4,['k'],['k'],Y,Y,['space'],Y,,,,,,,F,21,
14,7,161,6,6,4,['k'],['d'],N,Y,['space'],Y,,,,,,,F,21,
14,8,162,3,3,4,['d'],['d'],Y,Y,['space'],Y,,,,,,,F,21,
14,9,163,0,0,4,['d'],['d'],Y,N,None,Y,,,,,,,F,21,
14,10,164,9,9,4,['d'],['d'],Y,Y,None,N,,,,,,,F,21,
15,0,165,0,0,4,['d'],['k'],N,Y,['space'],Y,,,,,,,F,21,
15,1,166,1,1,4,['k'],['k'],Y,Y,None,N,,,,,,,F,21,
15,2,167,10,10,4,['d'],['d'],Y,Y,None,N,,,,,,,F,21,
15,3,168,5,5,4,['k'],['d'],N,N,None,Y,,,,,,,F,21,
15,4,169,1,1,4,['d'],['d'],Y,Y,['space'],Y,,,,,,,F,21,
15,5,170,5,5,4,['d'],['d'],Y,Y,None,N,,,,,,,F,21,
15,6,171,8,8,4,['k'],['k'],Y,N,None,Y,,,,,,,F,21,
15,7,172,4,4,4,['k'],['k'],Y,Y,['space'],Y,,,,,,,F,21,
15,8,173,2,2,4,['d'],['k'],N,N,None,Y,,,,,,,F,21,
15,9,174,7,7,4,['d'],['d'],Y,Y,['space'],Y,,,,,,,F,21,
15,10,175,5,5,4,['d'],['k'],N,Y,['space'],Y,,,,,,,F,21,
16,0,176,8,8,4,['k'],['k'],Y,Y,['space'],Y,,,,,,,F,21,
16,1,177,7,7,4,None,,Timed out,Y,None,N,,,,,,,F,21,
16,2,178,5,5,4,['d'],['k'],N,N,None,Y,,,,,,,F,21,
16,3,179,3,3,4,['k'],['k'],Y,Y,None,N,,,,,,,F,21,
16,4,180,1,1,4,['d'],['k'],N,Y,None,N,,,,,,,F,21,
16,5,181,4,4,4,['k'],['d'],N,Y,None,N,,,,,,,F,21,
16,6,182,9,9,4,['d'],['d'],Y,N,None,Y,,,,,,,F,21,
16,7,183,8,8,4,['k'],['d'],N,N,None,Y,,,,,,,F,21,
16,8,184,4,4,4,['d'],['d'],Y,Y,None,N,,,,,,,F,21,
16,9,185,8,8,4,['d'],['k'],N,N,None,Y,,,,,,,F,21,
16,10,186,3,3,4,['d'],['k'],N,N,None,Y,,,,,,,F,21,
17,0,187,1,1,4,None,,Timed out,N,None,Y,,,,,,,F,21,
17,1,188,5,5,4,['d'],['d'],Y,Y,None,N,,,,,,,F,21,
17,2,189,8,8,4,['k'],['k'],Y,N,None,Y,,,,,,,F,21,
17,3,190,5,5,4,['d'],['d'],Y,N,None,Y,,,,,,,F,21,
17,4,191,8,8,4,['k'],['k'],Y,N,None,Y,,,,,,,F,21,
17,5,192,10,10,4,['d'],['d'],Y,N,None,Y,,,,,,,F,21,
17,6,193,0,0,4,['d'],['k'],N,N,None,Y,,,,,,,F,21,
17,7,194,7,7,4,None,,Timed out,N,None,Y,,,,,,,F,21,
17,8,195,5,5,4,['d'],['d'],Y,N,None,Y,,,,,,,F,21,
17,9,196,0,0,4,['k'],['d'],N,N,None,Y,,,,,,,F,21,
17,10,197,3,3,4,['d'],['d'],Y,N,None,Y,,,,,,,F,21,
18,0,198,7,7,4,['k'],['k'],Y,N,None,Y,,,,,,,F,21,
18,1,199,2,2,4,['d'],['k'],N,N,None,Y,28,37,25,,,,F,21,
18,2,200,9,9,5,['d'],['k'],N,,,,,,,,,,F,21,
18,3,201,7,7,5,['k'],['k'],Y,,,,,,,,,,F,21,
18,4,202,10,10,5,['k'],['d'],N,Y,None,N,,,,,,,F,21,
18,5,203,1,1,5,['d'],['k'],N,N,None,Y,,,,,,,F,21,
18,6,204,9,9,5,['k'],['d'],N,N,None,Y,,,,,,,F,21,
18,7,205,0,0,5,['d'],['k'],N,N,None,Y,,,,,,,F,21,
18,8,206,3,3,5,['k'],['d'],N,N,None,Y,,,,,,,F,21,
18,9,207,10,10,5,['d'],['d'],Y,Y,['space'],Y,,,,,,,F,21,
18,10,208,0,0,5,['d'],['k'],N,N,None,Y,,,,,,,F,21,
19,0,209,2,2,5,['k'],['d'],N,N,['space'],N,,,,,,,F,21,
19,1,210,9,9,5,['d'],['k'],N,Y,['space'],Y,,,,,,,F,21,
19,2,211,2,2,5,['k'],['d'],N,N,None,Y,,,,,,,F,21,
19,3,212,9,9,5,['k'],['k'],Y,N,None,Y,,,,,,,F,21,
19,4,213,3,3,5,['d'],['k'],N,Y,None,N,,,,,,,F,21,
19,5,214,8,8,5,['d'],['k'],N,N,None,Y,,,,,,,F,21,
19,6,215,8,8,5,['k'],['k'],Y,Y,None,N,,,,,,,F,21,
19,7,216,4,4,5,['k'],['k'],Y,Y,None,N,,,,,,,F,21,
19,8,217,7,7,5,['d'],['k'],N,Y,['space'],Y,,,,,,,F,21,
19,9,218,8,8,5,['k'],['d'],N,Y,['k'],N,,,,,,,F,21,
19,10,219,10,10,5,['d'],['k'],N,N,None,Y,,,,,,,F,21,
20,0,220,9,9,5,['k'],['k'],Y,Y,None,N,,,,,,,F,21,
20,1,221,8,8,5,['d'],['k'],N,N,['space'],N,,,,,,,F,21,
20,2,222,6,6,5,['d'],['d'],Y,N,None,Y,,,,,,,F,21,
20,3,223,0,0,5,"['d', 'k']",['k'],N,Y,['space'],Y,,,,,,,F,21,
20,4,224,0,0,5,['k'],['d'],N,Y,None,N,,,,,,,F,21,
20,5,225,4,4,5,['d'],['d'],Y,Y,None,N,,,,,,,F,21,
20,6,226,9,9,5,['d'],['k'],N,Y,['space'],Y,,,,,,,F,21,
20,7,227,9,9,5,None,,Timed out,Y,None,N,,,,,,,F,21,
20,8,228,1,1,5,['k'],['d'],N,Y,None,N,,,,,,,F,21,
20,9,229,2,2,5,['d'],['k'],N,N,None,Y,,,,,,,F,21,
20,10,230,4,4,5,['d'],['k'],N,N,None,Y,,,,,,,F,21,
21,0,231,5,5,5,['k'],['d'],N,N,None,Y,,,,,,,F,21,
21,1,232,2,2,5,['d'],['k'],N,N,None,Y,,,,,,,F,21,
21,2,233,9,9,5,['k'],['k'],Y,N,None,Y,,,,,,,F,21,
21,3,234,5,5,5,['k'],['d'],N,Y,['space'],Y,,,,,,,F,21,
21,4,235,4,4,5,['d'],['d'],Y,Y,['space'],Y,,,,,,,F,21,
21,5,236,1,1,5,['k'],['k'],Y,N,None,Y,,,,,,,F,21,
21,6,237,4,4,5,['d'],['k'],N,Y,None,N,,,,,,,F,21,
21,7,238,9,9,5,['d'],['k'],N,Y,['space'],Y,,,,,,,F,21,
21,8,239,5,5,5,['d'],['k'],N,Y,['k'],N,,,,,,,F,21,
21,9,240,1,1,5,None,,Timed out,Y,['space'],Y,,,,,,,F,21,
21,10,241,10,10,5,['d'],['d'],Y,Y,None,N,,,,,,,F,21,
22,0,242,2,2,5,['d'],['k'],N,N,None,Y,,,,,,,F,21,
22,1,243,10,10,5,['k'],['k'],Y,N,None,Y,,,,,,,F,21,
22,2,244,6,6,5,['d'],['k'],N,Y,None,N,,,,,,,F,21,
22,3,245,8,8,5,['d'],['d'],Y,N,None,Y,,,,,,,F,21,
22,4,246,5,5,5,['d'],['k'],N,Y,['space'],Y,,,,,,,F,21,
22,5,247,10,10,5,['d'],['d'],Y,Y,None,N,,,,,,,F,21,
22,6,248,2,2,5,['d'],['d'],Y,N,None,Y,,,,,,,F,21,
22,7,249,1,1,5,['d'],['k'],N,N,None,Y,16,31,25,,,,F,21,
22,8,250,1,1,6,['d'],['d'],Y,,,,,,,,,,F,21,
22,9,251,10,10,6,['k'],['d'],N,,,,,,,,,,F,21,
22,10,252,4,4,6,['k'],['k'],Y,Y,['space'],Y,,,,,,,F,21,
23,0,253,9,9,6,['d'],['d'],Y,N,None,Y,,,,,,,F,21,
23,1,254,7,7,6,['d'],['k'],N,Y,None,N,,,,,,,F,21,
23,2,255,5,5,6,['k'],['d'],N,Y,['space'],Y,,,,,,,F,21,
23,3,256,5,5,6,['d'],['k'],N,Y,['space'],Y,,,,,,,F,21,
23,4,257,2,2,6,['k'],['d'],N,N,None,Y,,,,,,,F,21,
23,5,258,4,4,6,['k'],['d'],N,N,None,Y,,,,,,,F,21,
23,6,259,2,2,6,['d'],['k'],N,N,None,Y,,,,,,,F,21,
23,7,260,2,2,6,['k'],['d'],N,N,None,Y,,,,,,,F,21,
23,8,261,6,6,6,['d'],['d'],Y,N,None,Y,,,,,,,F,21,
23,9,262,7,7,6,['k'],['k'],Y,Y,None,N,,,,,,,F,21,
23,10,263,4,4,6,['d'],['d'],Y,N,None,Y,,,,,,,F,21,
24,0,264,6,6,6,['k'],['d'],N,N,None,Y,,,,,,,F,21,
24,1,265,10,10,6,['d'],['d'],Y,N,None,Y,,,,,,,F,21,
24,2,266,9,9,6,['k'],['d'],N,Y,['space'],Y,,,,,,,F,21,
24,3,267,10,10,6,['d'],['d'],Y,Y,['space'],Y,,,,,,,F,21,
24,4,268,8,8,6,['k'],['d'],N,N,None,Y,,,,,,,F,21,
24,5,269,6,6,6,['k'],['k'],Y,Y,['space'],Y,,,,,,,F,21,
24,6,270,5,5,6,['k'],['d'],N,N,None,Y,,,,,,,F,21,
24,7,271,0,0,6,['d'],['k'],N,Y,None,N,,,,,,,F,21,
24,8,272,5,5,6,['k'],['d'],N,N,None,Y,,,,,,,F,21,
24,9,273,2,2,6,['d'],['k'],N,N,None,Y,,,,,,,F,21,
24,10,274,7,7,6,['k'],['k'],Y,Y,['space'],Y,,,,,,,F,21,
25,0,275,8,8,6,['k'],['d'],N,Y,['space'],Y,,,,,,,F,21,
25,1,276,0,0,6,['d'],['d'],Y,Y,['space'],Y,,,,,,,F,21,
25,2,277,9,9,6,['k'],['k'],Y,Y,['space'],Y,,,,,,,F,21,
25,3,278,6,6,6,['k'],['k'],Y,Y,['space'],Y,,,,,,,F,21,
25,4,279,7,7,6,['d'],['d'],Y,Y,['space'],Y,,,,,,,F,21,
25,5,280,1,1,6,['k'],['k'],Y,Y,['space'],Y,,,,,,,F,21,
25,6,281,4,4,6,['k'],['k'],Y,N,None,Y,,,,,,,F,21,
25,7,282,0,0,6,['d'],['k'],N,Y,['space'],Y,,,,,,,F,21,
25,8,283,6,6,6,['k'],['d'],N,N,None,Y,,,,,,,F,21,
25,9,284,8,8,6,['d'],['k'],N,N,None,Y,,,,,,,F,21,
25,10,285,10,10,6,['k'],['k'],Y,N,None,Y,,,,,,,F,21,
26,0,286,5,5,6,['d'],['k'],N,Y,None,N,,,,,,,F,21,
26,1,287,5,5,6,['k'],['d'],N,N,None,Y,,,,,,,F,21,
26,2,288,10,10,6,['d'],['d'],Y,N,None,Y,,,,,,,F,21,
26,3,289,5,5,6,['k'],['k'],Y,N,None,Y,,,,,,,F,21,
26,4,290,0,0,6,['d'],['k'],N,N,None,Y,,,,,,,F,21,
26,5,291,4,4,6,['k'],['d'],N,N,None,Y,,,,,,,F,21,
26,6,292,0,0,6,['k'],['k'],Y,Y,['space'],Y,,,,,,,F,21,
26,7,293,10,10,6,['d'],['k'],N,N,None,Y,,,,,,,F,21,
26,8,294,4,4,6,['k'],['k'],Y,Y,['space'],Y,,,,,,,F,21,
26,9,295,9,9,6,['d'],['d'],Y,Y,['space'],Y,,,,,,,F,21,
26,10,296,2,2,6,['k'],['k'],Y,N,None,Y,,,,,,,F,21,
27,0,297,10,10,6,['d'],['k'],N,N,None,Y,,,,,,,F,21,
27,1,298,0,0,6,['k'],['d'],N,Y,None,N,,,,,,,F,21,
27,2,299,8,8,6,['d'],['d'],Y,Y,None,N,24,42,23,,,,F,21,
27,3,300,3,3,7,['k'],['d'],N,,,,,,,,,,F,21,
27,4,301,0,0,7,['k'],['k'],Y,,,,,,,,,,F,21,
27,5,302,10,10,7,['d'],['k'],N,Y,['space'],Y,,,,,,,F,21,
27,6,303,10,10,7,['k'],['d'],N,N,None,Y,,,,,,,F,21,
27,7,304,8,8,7,['d'],['d'],Y,Y,['space'],Y,,,,,,,F,21,
27,8,305,5,5,7,['k'],['k'],Y,N,None,Y,,,,,,,F,21,
27,9,306,3,3,7,['k'],['k'],Y,Y,['space'],Y,,,,,,,F,21,
27,10,307,4,4,7,['k'],['d'],N,Y,['space'],Y,,,,,,,F,21,
28,0,308,10,10,7,['d'],['k'],N,N,None,Y,,,,,,,F,21,
28,1,309,1,1,7,['k'],['k'],Y,Y,['space'],Y,,,,,,,F,21,
28,2,310,4,4,7,['k'],['d'],N,N,None,Y,,,,,,,F,21,
28,3,311,5,5,7,['d'],['d'],Y,Y,['space'],Y,,,,,,,F,21,
28,4,312,1,1,7,['k'],['d'],N,N,None,Y,,,,,,,F,21,
28,5,313,2,2,7,['k'],['k'],Y,Y,['space'],Y,,,,,,,F,21,
28,6,314,9,9,7,['k'],['k'],Y,N,None,Y,,,,,,,F,21,
28,7,315,2,2,7,['d'],['d'],Y,Y,['space'],Y,,,,,,,F,21,
28,8,316,9,9,7,['k'],['d'],N,Y,None,N,,,,,,,F,21,
28,9,317,2,2,7,['d'],['k'],N,N,None,Y,,,,,,,F,21,
28,10,318,5,5,7,['d'],['k'],N,N,None,Y,,,,,,,F,21,
29,0,319,10,10,7,['k'],['d'],N,N,None,Y,,,,,,,F,21,
29,1,320,9,9,7,['k'],['k'],Y,N,None,Y,,,,,,,F,21,
29,2,321,8,8,7,['k'],['d'],N,Y,['space'],Y,,,,,,,F,21,
29,3,322,0,0,7,['k'],['d'],N,N,None,Y,,,,,,,F,21,
29,4,323,1,1,7,['d'],['d'],Y,Y,['space'],Y,,,,,,,F,21,
29,5,324,8,8,7,['k'],['d'],N,N,None,Y,,,,,,,F,21,
29,6,325,10,10,7,['d'],['k'],N,N,None,Y,,,,,,,F,21,
29,7,326,9,9,7,['d'],['k'],N,Y,['space'],Y,,,,,,,F,21,
29,8,327,1,1,7,['k'],['k'],Y,Y,['space'],Y,,,,,,,F,21,
29,9,328,3,3,7,['d'],['d'],Y,Y,None,N,,,,,,,F,21,
29,10,329,7,7,7,['k'],['k'],Y,N,None,Y,,,,,,,F,21,
30,0,330,5,5,7,['d'],['k'],N,Y,['space'],Y,,,,,,,F,21,
30,1,331,7,7,7,['k'],['d'],N,Y,['space'],Y,,,,,,,F,21,
30,2,332,7,7,7,['d'],['k'],N,Y,['space'],Y,,,,,,,F,21,
30,3,333,0,0,7,['k'],['d'],N,N,None,Y,,,,,,,F,21,
30,4,334,0,0,7,['d'],['d'],Y,Y,['space'],Y,,,,,,,F,21,
30,5,335,4,4,7,['k'],['d'],N,N,None,Y,,,,,,,F,21,
30,6,336,1,1,7,['k'],['k'],Y,N,None,Y,,,,,,,F,21,
30,7,337,6,6,7,['k'],['d'],N,Y,['space'],Y,,,,,,,F,21,
30,8,338,0,0,7,['k'],['d'],N,N,None,Y,,,,,,,F,21,
30,9,339,1,1,7,['k'],['k'],Y,Y,None,N,,,,,,,F,21,
30,10,340,2,2,7,['d'],['k'],N,Y,['space'],Y,,,,,,,F,21,
31,0,341,2,2,7,['k'],['k'],Y,N,None,Y,,,,,,,F,21,
31,1,342,7,7,7,['k'],['k'],Y,Y,['space'],Y,,,,,,,F,21,
31,2,343,3,3,7,['d'],['d'],Y,Y,['space'],Y,,,,,,,F,21,
31,3,344,9,9,7,['k'],['k'],Y,Y,['space'],Y,,,,,,,F,21,
31,4,345,4,4,7,['d'],['d'],Y,N,None,Y,,,,,,,F,21,
31,5,346,2,2,7,['k'],['k'],Y,N,None,Y,,,,,,,F,21,
31,6,347,0,0,7,['d'],['k'],N,Y,['space'],Y,,,,,,,F,21,
31,7,348,5,5,7,['k'],['d'],N,N,None,Y,,,,,,,F,21,
31,8,349,6,6,7,['k'],['k'],Y,N,None,Y,24,45,25,,,,F,21,
31,9,350,10,10,8,['k'],['d'],N,,,,,,,,,,F,21,
31,10,351,1,1,8,['d'],['d'],Y,,,,,,,,,,F,21,
32,0,352,5,5,8,['k'],['d'],N,N,None,Y,,,,,,,F,21,
32,1,353,7,7,8,['d'],['k'],N,Y,['space'],Y,,,,,,,F,21,
32,2,354,2,2,8,['k'],['d'],N,Y,['space'],Y,,,,,,,F,21,
32,3,355,8,8,8,['k'],['k'],Y,Y,['space'],Y,,,,,,,F,21,
32,4,356,2,2,8,['k'],['k'],Y,N,None,Y,,,,,,,F,21,
32,5,357,10,10,8,['k'],['k'],Y,N,None,Y,,,,,,,F,21,
32,6,358,1,1,8,['k'],['d'],N,N,None,Y,,,,,,,F,21,
32,7,359,7,7,8,['d'],['k'],N,N,None,Y,,,,,,,F,21,
32,8,360,4,4,8,['k'],['k'],Y,N,None,Y,,,,,,,F,21,
32,9,361,6,6,8,['d'],['k'],N,N,None,Y,,,,,,,F,21,
32,10,362,9,9,8,['k'],['k'],Y,Y,None,N,,,,,,,F,21,
33,0,363,7,7,8,['d'],['d'],Y,N,None,Y,,,,,,,F,21,
33,1,364,4,4,8,['k'],['k'],Y,N,None,Y,,,,,,,F,21,
33,2,365,3,3,8,['d'],['k'],N,N,['space'],N,,,,,,,F,21,
33,3,366,6,6,8,['k'],['k'],Y,N,None,Y,,,,,,,F,21,
33,4,367,3,3,8,['d'],['d'],Y,Y,None,N,,,,,,,F,21,
33,5,368,10,10,8,['k'],['d'],N,Y,None,N,,,,,,,F,21,
33,6,369,2,2,8,['d'],['d'],Y,N,['space'],N,,,,,,,F,21,
33,7,370,4,4,8,['k'],['k'],Y,N,None,Y,,,,,,,F,21,
33,8,371,2,2,8,['k'],['k'],Y,Y,['space'],Y,,,,,,,F,21,
33,9,372,6,6,8,['d'],['k'],N,Y,['space'],Y,,,,,,,F,21,
33,10,373,2,2,8,['k'],['d'],N,Y,['space'],Y,,,,,,,F,21,
34,0,374,4,4,8,['d'],['k'],N,Y,['space'],Y,,,,,,,F,21,
34,1,375,5,5,8,['k'],['k'],Y,Y,['space'],Y,,,,,,,F,21,
34,2,376,1,1,8,['d'],['d'],Y,Y,['space'],Y,,,,,,,F,21,
34,3,377,8,8,8,['k'],['d'],N,Y,['space'],Y,,,,,,,F,21,
34,4,378,9,9,8,['d'],['k'],N,Y,['space'],Y,,,,,,,F,21,
34,5,379,0,0,8,['k'],['d'],N,N,None,Y,,,,,,,F,21,
34,6,380,1,1,8,['k'],['k'],Y,N,None,Y,,,,,,,F,21,
34,7,381,0,0,8,['k'],['k'],Y,N,None,Y,,,,,,,F,21,
34,8,382,1,1,8,['d'],['k'],N,Y,None,N,,,,,,,F,21,
34,9,383,8,8,8,['k'],['d'],N,N,None,Y,,,,,,,F,21,
34,10,384,8,8,8,['d'],['d'],Y,Y,['space'],Y,,,,,,,F,21,
35,0,385,7,7,8,['k'],['k'],Y,Y,['space'],Y,,,,,,,F,21,
35,1,386,10,10,8,['d'],['d'],Y,Y,['space'],Y,,,,,,,F,21,
35,2,387,8,8,8,['k'],['k'],Y,Y,['space'],Y,,,,,,,F,21,
35,3,388,0,0,8,['d'],['k'],N,N,None,Y,,,,,,,F,21,
35,4,389,3,3,8,['k'],['d'],N,Y,['space'],Y,,,,,,,F,21,
35,5,390,7,7,8,['k'],['k'],Y,Y,['space'],Y,,,,,,,F,21,
35,6,391,5,5,8,['d'],['k'],N,Y,None,N,,,,,,,F,21,
35,7,392,1,1,8,['k'],['k'],Y,Y,None,N,,,,,,,F,21,
35,8,393,3,3,8,['d'],['k'],N,N,None,Y,,,,,,,F,21,
35,9,394,6,6,8,['k'],['k'],Y,Y,None,N,,,,,,,F,21,
35,10,395,10,10,8,['d'],['k'],N,Y,None,N,,,,,,,F,21,
36,0,396,6,6,8,['k'],['k'],Y,N,None,Y,,,,,,,F,21,
36,1,397,1,1,8,['d'],['d'],Y,N,None,Y,,,,,,,F,21,
36,2,398,6,6,8,['k'],['d'],N,N,None,Y,,,,,,,F,21,
36,3,399,0,0,8,['d'],['d'],Y,N,None,Y,27,38,25,,,,F,21,
36,4,400,10,10,9,['d'],['k'],N,,,,,,,,,,F,21,
36,5,401,10,10,9,['k'],['d'],N,,,,,,,,,,F,21,
36,6,402,5,5,9,['d'],['k'],N,N,None,Y,,,,,,,F,21,
36,7,403,8,8,9,['k'],['d'],N,N,None,Y,,,,,,,F,21,
36,8,404,7,7,9,['d'],['d'],Y,N,None,Y,,,,,,,F,21,
36,9,405,4,4,9,['k'],['k'],Y,Y,['space'],Y,,,,,,,F,21,
36,10,406,8,8,9,['d'],['d'],Y,N,None,Y,,,,,,,F,21,
37,0,407,4,4,9,['k'],['k'],Y,Y,['space'],Y,,,,,,,F,21,
37,1,408,4,4,9,['d'],['d'],Y,Y,['space'],Y,,,,,,,F,21,
37,2,409,10,10,9,['k'],['d'],N,Y,['space'],Y,,,,,,,F,21,
37,3,410,5,5,9,['k'],['k'],Y,N,None,Y,,,,,,,F,21,
37,4,411,4,4,9,['d'],['k'],N,N,None,Y,,,,,,,F,21,
37,5,412,10,10,9,['k'],['k'],Y,Y,['space'],Y,,,,,,,F,21,
37,6,413,6,6,9,['d'],['k'],N,Y,None,N,,,,,,,F,21,
37,7,414,3,3,9,['d'],['d'],Y,N,None,Y,,,,,,,F,21,
37,8,415,5,5,9,['k'],['d'],N,N,['space'],N,,,,,,,F,21,
37,9,416,1,1,9,['k'],['d'],N,N,None,Y,,,,,,,F,21,
37,10,417,5,5,9,['k'],['d'],N,N,None,Y,,,,,,,F,21,
38,0,418,3,3,9,['d'],['d'],Y,Y,['space'],Y,,,,,,,F,21,
38,1,419,3,3,9,['d'],['k'],N,N,None,Y,,,,,,,F,21,
38,2,420,4,4,9,['k'],['d'],N,N,None,Y,,,,,,,F,21,
38,3,421,5,5,9,['d'],['k'],N,Y,['space'],Y,,,,,,,F,21,
38,4,422,3,3,9,['k'],['k'],Y,N,None,Y,,,,,,,F,21,
38,5,423,3,3,9,['k'],['d'],N,Y,['space'],Y,,,,,,,F,21,
38,6,424,4,4,9,['d'],['d'],Y,Y,None,N,,,,,,,F,21,
38,7,425,2,2,9,['k'],['k'],Y,N,None,Y,,,,,,,F,21,
38,8,426,8,8,9,['k'],['k'],Y,N,None,Y,,,,,,,F,21,
38,9,427,6,6,9,None,,Timed out,N,None,Y,,,,,,,F,21,
38,10,428,6,6,9,['k'],['d'],N,N,['space'],N,,,,,,,F,21,
39,0,429,1,1,9,['d'],['k'],N,N,None,Y,,,,,,,F,21,
39,1,430,9,9,9,['k'],['d'],N,Y,None,N,,,,,,,F,21,
39,2,431,4,4,9,['d'],['k'],N,N,None,Y,,,,,,,F,21,
39,3,432,5,5,9,['k'],['d'],N,N,None,Y,,,,,,,F,21,
39,4,433,1,1,9,['d'],['k'],N,Y,['space'],Y,,,,,,,F,21,
39,5,434,6,6,9,['d'],['d'],Y,Y,['space'],Y,,,,,,,F,21,
39,6,435,8,8,9,['k'],['k'],Y,N,None,Y,,,,,,,F,21,
39,7,436,6,6,9,['d'],['k'],N,Y,['space'],Y,,,,,,,F,21,
39,8,437,9,9,9,['k'],['k'],Y,N,None,Y,,,,,,,F,21,
39,9,438,7,7,9,['k'],['d'],N,N,None,Y,,,,,,,F,21,
39,10,439,7,7,9,['d'],['k'],N,Y,['space'],Y,,,,,,,F,21,
40,0,440,3,3,9,['k'],['k'],Y,N,None,Y,,,,,,,F,21,
40,1,441,3,3,9,['k'],['k'],Y,Y,['space'],Y,,,,,,,F,21,
40,2,442,3,3,9,['d'],['k'],N,Y,None,N,,,,,,,F,21,
40,3,443,7,7,9,['k'],['d'],N,Y,None,N,,,,,,,F,21,
40,4,444,3,3,9,['d'],['k'],N,N,None,Y,,,,,,,F,21,
40,5,445,6,6,9,['k'],['k'],Y,Y,['space'],Y,,,,,,,F,21,
40,6,446,4,4,9,['d'],['k'],N,N,None,Y,,,,,,,F,21,
40,7,447,9,9,9,['k'],['d'],N,N,['k'],N,,,,,,,F,21,
40,8,448,6,6,9,['k'],['k'],Y,Y,['space'],Y,,,,,,,F,21,
40,9,449,9,9,9,['k'],['k'],Y,N,None,Y,21,40,20,,,,F,21,
40,10,450,2,2,10,['d'],['k'],N,,,,,,,,,,F,21,
41,0,451,7,7,10,['k'],['k'],Y,,,,,,,,,,F,21,
41,1,452,3,3,10,['k'],['d'],N,Y,['space'],Y,,,,,,,F,21,
41,2,453,1,1,10,['d'],['d'],Y,N,None,Y,,,,,,,F,21,
41,3,454,7,7,10,['k'],['d'],N,Y,['k'],N,,,,,,,F,21,
41,4,455,9,9,10,['d'],['d'],Y,N,None,Y,,,,,,,F,21,
41,5,456,4,4,10,['k'],['k'],Y,N,None,Y,,,,,,,F,21,
41,6,457,9,9,10,['d'],['d'],Y,Y,None,N,,,,,,,F,21,
41,7,458,4,4,10,['k'],['d'],N,N,None,Y,,,,,,,F,21,
41,8,459,1,1,10,['d'],['k'],N,Y,['space'],Y,,,,,,,F,21,
41,9,460,9,9,10,['k'],['d'],N,N,None,Y,,,,,,,F,21,
41,10,461,0,0,10,['k'],['d'],N,Y,None,N,,,,,,,F,21,
42,0,462,6,6,10,['d'],['d'],Y,Y,['space'],Y,,,,,,,F,21,
42,1,463,5,5,10,['k'],['d'],N,Y,None,N,,,,,,,F,21,
42,2,464,2,2,10,['k'],['k'],Y,Y,['space'],Y,,,,,,,F,21,
42,3,465,2,2,10,['d'],['k'],N,N,None,Y,,,,,,,F,21,
42,4,466,9,9,10,['k'],['k'],Y,N,None,Y,,,,,,,F,21,
42,5,467,5,5,10,['d'],['k'],N,Y,None,N,,,,,,,F,21,
42,6,468,1,1,10,['k'],['k'],Y,Y,['space'],Y,,,,,,,F,21,
42,7,469,2,2,10,['k'],['k'],Y,N,None,Y,,,,,,,F,21,
42,8,470,5,5,10,['d'],['d'],Y,N,None,Y,,,,,,,F,21,
42,9,471,10,10,10,['k'],['k'],Y,N,None,Y,,,,,,,F,21,
42,10,472,6,6,10,['d'],['k'],N,Y,None,N,,,,,,,F,21,
43,0,473,1,1,10,['k'],['d'],N,Y,None,N,,,,,,,F,21,
43,1,474,10,10,10,['d'],['k'],N,Y,['space'],Y,,,,,,,F,21,
43,2,475,6,6,10,['k'],['k'],Y,Y,['space'],Y,,,,,,,F,21,
43,3,476,0,0,10,['d'],['k'],N,N,None,Y,,,,,,,F,21,
43,4,477,10,10,10,['k'],['k'],Y,Y,['space'],Y,,,,,,,F,21,
43,5,478,1,1,10,['k'],['d'],N,Y,['space'],Y,,,,,,,F,21,
43,6,479,2,2,10,['k'],['k'],Y,N,None,Y,,,,,,,F,21,
43,7,480,3,3,10,['k'],['k'],Y,Y,['k'],N,,,,,,,F,21,
43,8,481,9,9,10,['k'],['k'],Y,Y,['space'],Y,,,,,,,F,21,
43,9,482,7,7,10,['d'],['d'],Y,N,None,Y,,,,,,,F,21,
43,10,483,5,5,10,['d'],['d'],Y,N,['k'],N,,,,,,,F,21,
44,0,484,5,5,10,['k'],['k'],Y,N,None,Y,,,,,,,F,21,
44,1,485,6,6,10,['d'],['d'],Y,N,None,Y,,,,,,,F,21,
44,2,486,1,1,10,['k'],['d'],N,N,None,Y,,,,,,,F,21,
44,3,487,7,7,10,['d'],['k'],N,N,None,Y,,,,,,,F,21,
44,4,488,8,8,10,['k'],['d'],N,N,None,Y,,,,,,,F,21,
44,5,489,7,7,10,['k'],['d'],N,Y,['space'],Y,,,,,,,F,21,
44,6,490,8,8,10,None,,Timed out,Y,['space'],Y,,,,,,,F,21,
44,7,491,6,6,10,['k'],['k'],Y,N,None,Y,,,,,,,F,21,
44,8,492,3,3,10,['d'],['k'],N,Y,['space'],Y,,,,,,,F,21,
44,9,493,1,1,10,['k'],['d'],N,Y,['space'],Y,,,,,,,F,21,
44,10,494,8,8,10,['k'],['k'],Y,Y,['space'],Y,,,,,,,F,21,
45,0,495,4,4,10,['d'],['d'],Y,N,None,Y,,,,,,,F,21,
45,1,496,6,6,10,['k'],['d'],N,Y,['space'],Y,,,,,,,F,21,
45,2,497,8,8,10,['d'],['d'],Y,N,None,Y,,,,,,,F,21,
45,3,498,0,0,10,['k'],['k'],Y,N,None,Y,,,,,,,F,21,
45,4,499,8,8,10,['k'],['k'],Y,N,None,Y,27,39,24,,,,F,21,
45,5,500,5,5,11,['k'],['d'],Y,,,,,,,Y,Y,Y,F,21,
45,6,501,0,0,11,['k'],['k'],N,,,,,,,,Y,Y,F,21,
45,7,502,7,7,11,['d'],['d'],N,Y,['space'],Y,,,,,Y,Y,F,21,
45,8,503,5,5,11,['k'],['k'],N,N,None,Y,,,,,Y,Y,F,21,
45,9,504,2,2,11,None,,Timed out,N,None,Y,,,,,Y,Y,F,21,
45,10,505,8,8,11,['k'],['d'],Y,N,None,Y,,,,,Y,Y,F,21,
46,0,506,3,3,11,['d'],['d'],N,N,None,Y,,,,,Y,Y,F,21,
46,1,507,1,1,11,None,,Timed out,Y,['space'],Y,,,,,Y,Y,F,21,
46,2,508,3,3,11,['k'],['d'],Y,N,None,Y,,,,,Y,Y,F,21,
46,3,509,9,9,11,['d'],['k'],Y,Y,['space'],Y,,,,,Y,Y,F,21,
46,4,510,7,7,11,['k'],['k'],N,Y,['space'],Y,,,,,Y,Y,F,21,
46,5,511,7,7,11,['d'],['d'],N,Y,['space'],Y,,,,,Y,Y,F,21,
46,6,512,4,4,11,['k'],['d'],Y,Y,['space'],Y,,,,,Y,Y,F,21,
46,7,513,3,3,11,['d'],['d'],N,N,None,Y,,,,,Y,Y,F,21,
46,8,514,9,9,11,['k'],['d'],Y,Y,['space'],Y,,,,,Y,Y,F,21,
46,9,515,1,1,11,['d'],['k'],Y,N,None,Y,,,,,Y,Y,F,21,
46,10,516,7,7,11,['k'],['k'],N,N,None,Y,,,,,Y,Y,F,21,
47,0,517,6,6,11,None,,Timed out,Y,['space'],Y,,,,,Y,Y,F,21,
47,1,518,7,7,11,['k'],['k'],N,Y,None,N,,,,,Y,Y,F,21,
47,2,519,0,0,11,['d'],['k'],Y,Y,None,N,,,,,Y,Y,F,21,
47,3,520,10,10,11,['k'],['k'],N,N,None,Y,,,,,Y,Y,F,21,
47,4,521,7,7,11,None,,Timed out,Y,['space'],Y,,,,,Y,Y,F,21,
47,5,522,1,1,11,None,,Timed out,N,None,Y,,,,,Y,Y,F,21,
47,6,523,9,9,11,None,,Timed out,Y,['space'],Y,,,,,Y,Y,F,21,
47,7,524,0,0,11,['d'],['d'],N,Y,None,N,,,,,Y,Y,F,21,
47,8,525,7,7,11,['k'],['k'],N,N,None,Y,,,,,Y,Y,F,21,
47,9,526,0,0,11,['d'],['k'],Y,N,None,Y,,,,,Y,Y,F,21,
47,10,527,10,10,11,['d'],['d'],N,N,None,Y,,,,,Y,Y,F,21,
48,0,528,9,9,11,['d'],['k'],Y,Y,None,N,,,,,Y,Y,F,21,
48,1,529,5,5,11,['d'],['k'],Y,Y,None,N,,,,,Y,Y,F,21,
48,2,530,7,7,11,['k'],['d'],Y,N,None,Y,,,,,Y,Y,F,21,
48,3,531,2,2,11,['d'],['k'],Y,Y,['space'],Y,,,,,Y,Y,F,21,
48,4,532,8,8,11,['k'],['d'],Y,Y,['space'],Y,,,,,Y,Y,F,21,
48,5,533,6,6,11,['d'],['d'],N,N,None,Y,,,,,Y,Y,F,21,
48,6,534,6,6,11,['k'],['d'],Y,Y,['space'],Y,,,,,Y,Y,F,21,
48,7,535,8,8,11,"['d', 'k']",['k'],Y,Y,['space'],Y,,,,,Y,Y,F,21,
48,8,536,7,7,11,['k'],['k'],N,N,None,Y,,,,,Y,Y,F,21,
48,9,537,2,2,11,['d'],['d'],N,N,None,Y,,,,,Y,Y,F,21,
48,10,538,6,6,11,['k'],['d'],Y,Y,['space'],Y,,,,,Y,Y,F,21,
49,0,539,9,9,11,['k'],['d'],Y,Y,None,N,,,,,Y,Y,F,21,
49,1,540,5,5,11,['k'],['k'],N,N,['k'],N,,,,,Y,Y,F,21,
49,2,541,6,6,11,['k'],['k'],N,N,None,Y,,,,,Y,Y,F,21,
49,3,542,4,4,11,['k'],['d'],Y,N,None,Y,,,,,Y,Y,F,21,
49,4,543,5,5,11,['d'],['d'],N,Y,['space'],Y,,,,,Y,Y,F,21,
49,5,544,8,8,11,['d'],['d'],N,N,None,Y,,,,,Y,Y,F,21,
49,6,545,6,6,11,['k'],['k'],N,N,None,Y,,,,,Y,Y,F,21,
49,7,546,8,8,11,['d'],['d'],N,Y,None,N,,,,,Y,Y,F,21,
49,8,547,10,10,11,None,,Timed out,N,None,Y,,,,,Y,Y,F,21,
49,9,548,0,0,11,['d'],['d'],N,N,['space'],N,,,,,Y,Y,F,21,
49,10,549,2,2,11,['k'],['k'],N,N,None,Y,19,39,23,,Y,Y,F,21,
50,0,550,2,2,12,['d'],['k'],Y,,,,,,,,Y,Y,F,21,
50,1,551,8,8,12,['k'],['d'],Y,,,,,,,,Y,Y,F,21,
50,2,552,5,5,12,['d'],['k'],Y,Y,['space'],Y,,,,,Y,Y,F,21,
50,3,553,4,4,12,['k'],['d'],Y,N,['space'],N,,,,,Y,Y,F,21,
50,4,554,1,1,12,['k'],['k'],N,N,None,Y,,,,,Y,Y,F,21,
50,5,555,2,2,12,None,,Timed out,Y,['space'],Y,,,,,Y,Y,F,21,
50,6,556,5,5,12,['d'],['d'],N,N,None,Y,,,,,Y,Y,F,21,
50,7,557,3,3,12,['k'],['d'],Y,N,None,Y,,,,,Y,Y,F,21,
50,8,558,0,0,12,None,,Timed out,Y,None,N,,,,,Y,Y,F,21,
50,9,559,6,6,12,['k'],['k'],N,Y,None,N,,,,,Y,Y,F,21,
50,10,560,4,4,12,['d'],['d'],N,N,None,Y,,,,,Y,Y,F,21,
51,0,561,7,7,12,['k'],['d'],Y,Y,None,N,,,,,Y,Y,F,21,
51,1,562,5,5,12,['d'],['d'],N,Y,None,N,,,,,Y,Y,F,21,
51,2,563,2,2,12,None,,Timed out,N,None,Y,,,,,Y,Y,F,21,
51,3,564,4,4,12,['d'],['k'],Y,Y,['space'],Y,,,,,Y,Y,F,21,
51,4,565,0,0,12,['k'],['k'],N,Y,['space'],Y,,,,,Y,Y,F,21,
51,5,566,8,8,12,['d'],['d'],N,N,None,Y,,,,,Y,Y,F,21,
51,6,567,9,9,12,['k'],['d'],Y,Y,None,N,,,,,Y,Y,F,21,
51,7,568,7,7,12,['k'],['d'],Y,N,None,Y,,,,,Y,Y,F,21,
51,8,569,2,2,12,['d'],['d'],N,Y,['space'],Y,,,,,Y,Y,F,21,
51,9,570,1,1,12,['k'],['d'],Y,Y,['space'],Y,,,,,Y,Y,F,21,
51,10,571,7,7,12,['d'],['d'],N,N,None,Y,,,,,Y,Y,F,21,
52,0,572,7,7,12,['k'],['d'],Y,Y,['space'],Y,,,,,Y,Y,F,21,
52,1,573,4,4,12,['d'],['k'],Y,N,None,Y,,,,,Y,Y,F,21,
52,2,574,4,4,12,['k'],['k'],N,N,None,Y,,,,,Y,Y,F,21,
52,3,575,7,7,12,['d'],['k'],Y,Y,['space'],Y,,,,,Y,Y,F,21,
52,4,576,10,10,12,['k'],['k'],N,N,None,Y,,,,,Y,Y,F,21,
52,5,577,1,1,12,['k'],['k'],N,N,None,Y,,,,,Y,Y,F,21,
52,6,578,5,5,12,['d'],['d'],N,N,None,Y,,,,,Y,Y,F,21,
52,7,579,1,1,12,['k'],['k'],N,Y,['space'],Y,,,,,Y,Y,F,21,
52,8,580,7,7,12,['d'],['d'],N,N,None,Y,,,,,Y,Y,F,21,
52,9,581,4,4,12,['k'],['d'],Y,N,None,Y,,,,,Y,Y,F,21,
52,10,582,6,6,12,['d'],['k'],Y,N,None,Y,,,,,Y,Y,F,21,
53,0,583,0,0,12,['k'],['d'],Y,Y,['space'],Y,,,,,Y,Y,F,21,
53,1,584,10,10,12,['d'],['k'],Y,N,None,Y,,,,,Y,Y,F,21,
53,2,585,4,4,12,['k'],['k'],N,N,None,Y,,,,,Y,Y,F,21,
53,3,586,9,9,12,['d'],['k'],Y,Y,['space'],Y,,,,,Y,Y,F,21,
53,4,587,7,7,12,['k'],['k'],N,Y,['space'],Y,,,,,Y,Y,F,21,
53,5,588,4,4,12,['d'],['k'],Y,N,None,Y,,,,,Y,Y,F,21,
53,6,589,2,2,12,['k'],['d'],Y,N,None,Y,,,,,Y,Y,F,21,
53,7,590,5,5,12,['k'],['d'],Y,Y,['space'],Y,,,,,Y,Y,F,21,
53,8,591,7,7,12,['d'],['k'],Y,Y,['space'],Y,,,,,Y,Y,F,21,
53,9,592,7,7,12,['k'],['d'],Y,Y,['space'],Y,,,,,Y,Y,F,21,
53,10,593,5,5,12,['d'],['d'],N,Y,['space'],Y,,,,,Y,Y,F,21,
54,0,594,10,10,12,['d'],['k'],Y,Y,['space'],Y,,,,,Y,Y,F,21,
54,1,595,0,0,12,['k'],['k'],N,Y,None,N,,,,,Y,Y,F,21,
54,2,596,8,8,12,['d'],['k'],Y,N,None,Y,,,,,Y,Y,F,21,
54,3,597,6,6,12,['k'],['k'],N,Y,['space'],Y,,,,,Y,Y,F,21,
54,4,598,1,1,12,['k'],['k'],N,N,None,Y,,,,,Y,Y,F,21,
54,5,599,0,0,12,['d'],['k'],Y,Y,['space'],Y,26,41,25,,Y,Y,F,21,
