.thisRepN,.thisTrialN,.thisN,.thisIndex,.thisTrial,Block Number,Key pressed,Correct?,Category,Int Match?,Int Response,Int Correct?,Line Accuracy,Interference Accuracy,Matching Interferences,New instruction shown?,Buttons switched?,Fast?,gender,age,
0,0,0,5,5,1,None,Timed out,,,,,,,,,,,F,20,
0,1,1,5,5,1,['k'],Y,['k'],,,,,,,,,,F,20,
0,2,2,4,4,1,['d'],N,['k'],Y,None,N,,,,,,,F,20,
0,3,3,0,0,1,['k'],Y,['k'],N,None,Y,,,,,,,F,20,
0,4,4,2,2,1,['d'],N,['k'],N,None,Y,,,,,,,F,20,
0,5,5,0,0,1,['d'],Y,['d'],Y,None,N,,,,,,,F,20,
0,6,6,10,10,1,['k'],Y,['k'],Y,None,N,,,,,,,F,20,
0,7,7,0,0,1,['d'],N,['k'],N,None,Y,,,,,,,F,20,
0,8,8,1,1,1,['k'],N,['d'],N,None,Y,,,,,,,F,20,
0,9,9,4,4,1,['d'],N,['k'],Y,None,N,,,,,,,F,20,
0,10,10,0,0,1,['k'],N,['d'],N,None,Y,,,,,,,F,20,
1,0,11,4,4,1,['d'],N,['k'],N,None,Y,,,,,,,F,20,
1,1,12,6,6,1,['k'],N,['d'],Y,None,N,,,,,,,F,20,
1,2,13,5,5,1,['k'],Y,['k'],N,None,Y,,,,,,,F,20,
1,3,14,5,5,1,['d'],Y,['d'],N,None,Y,,,,,,,F,20,
1,4,15,2,2,1,['k'],N,['d'],N,None,Y,,,,,,,F,20,
1,5,16,1,1,1,['d'],N,['k'],Y,['space'],Y,,,,,,,F,20,
1,6,17,8,8,1,['k'],Y,['k'],Y,None,N,,,,,,,F,20,
1,7,18,2,2,1,['d'],N,['k'],Y,['space'],Y,,,,,,,F,20,
1,8,19,4,4,1,['d'],Y,['d'],Y,None,N,,,,,,,F,20,
1,9,20,5,5,1,['d'],Y,['d'],Y,None,N,,,,,,,F,20,
1,10,21,10,10,1,['k'],Y,['k'],Y,None,N,,,,,,,F,20,
2,0,22,7,7,1,['d'],Y,['d'],Y,['space'],Y,,,,,,,F,20,
2,1,23,10,10,1,['d'],Y,['d'],N,None,Y,,,,,,,F,20,
2,2,24,1,1,1,['d'],N,['k'],Y,['space'],Y,,,,,,,F,20,
2,3,25,0,0,1,['d'],Y,['d'],N,None,Y,,,,,,,F,20,
2,4,26,10,10,1,['d'],N,['k'],N,['space'],N,,,,,,,F,20,
2,5,27,2,2,1,['k'],N,['d'],N,None,Y,,,,,,,F,20,
2,6,28,8,8,1,['d'],N,['k'],Y,['space'],Y,,,,,,,F,20,
2,7,29,1,1,1,['d'],N,['k'],N,None,Y,,,,,,,F,20,
2,8,30,2,2,1,['k'],N,['d'],N,None,Y,,,,,,,F,20,
2,9,31,3,3,1,['d'],N,['k'],Y,['d'],N,,,,,,,F,20,
2,10,32,6,6,1,['k'],N,['d'],Y,None,N,,,,,,,F,20,
3,0,33,8,8,1,['k'],N,['d'],N,None,Y,,,,,,,F,20,
3,1,34,7,7,1,['d'],N,['k'],Y,['space'],Y,,,,,,,F,20,
3,2,35,5,5,1,['d'],Y,['d'],N,None,Y,,,,,,,F,20,
3,3,36,0,0,1,['k'],Y,['k'],Y,None,N,,,,,,,F,20,
3,4,37,7,7,1,['d'],Y,['d'],Y,None,N,,,,,,,F,20,
3,5,38,1,1,1,['k'],Y,['k'],N,None,Y,,,,,,,F,20,
3,6,39,7,7,1,['d'],N,['k'],Y,['space'],Y,,,,,,,F,20,
3,7,40,9,9,1,['k'],Y,['k'],Y,None,N,,,,,,,F,20,
3,8,41,10,10,1,['d'],N,['k'],N,None,Y,,,,,,,F,20,
3,9,42,1,1,1,['k'],Y,['k'],Y,['space'],Y,,,,,,,F,20,
3,10,43,3,3,1,['d'],Y,['d'],N,None,Y,,,,,,,F,20,
4,0,44,8,8,1,['k'],Y,['k'],N,None,Y,,,,,,,F,20,
4,1,45,8,8,1,['d'],Y,['d'],Y,['space'],Y,,,,,,,F,20,
4,2,46,2,2,1,['k'],N,['d'],N,None,Y,,,,,,,F,20,
4,3,47,5,5,1,['d'],Y,['d'],Y,['space'],Y,,,,,,,F,20,
4,4,48,9,9,1,['d'],Y,['d'],N,None,Y,,,,,,,F,20,
4,5,49,9,9,1,['d'],N,['k'],N,['space'],N,24,32,24,,,,F,20,
4,6,50,2,2,2,['d'],N,['k'],,,,,,,,,,F,20,
4,7,51,6,6,2,['k'],N,['d'],,,,,,,,,,F,20,
4,8,52,10,10,2,['k'],Y,['k'],Y,['space'],Y,,,,,,,F,20,
4,9,53,2,2,2,['d'],Y,['d'],Y,['space'],Y,,,,,,,F,20,
4,10,54,2,2,2,['d'],N,['k'],Y,['space'],Y,,,,,,,F,20,
5,0,55,10,10,2,['k'],N,['d'],N,None,Y,,,,,,,F,20,
5,1,56,10,10,2,['d'],Y,['d'],N,None,Y,,,,,,,F,20,
5,2,57,0,0,2,['k'],Y,['k'],Y,['space'],Y,,,,,,,F,20,
5,3,58,10,10,2,['d'],N,['k'],N,None,Y,,,,,,,F,20,
5,4,59,8,8,2,['d'],Y,['d'],Y,['space'],Y,,,,,,,F,20,
5,5,60,9,9,2,['k'],Y,['k'],N,None,Y,,,,,,,F,20,
5,6,61,4,4,2,['d'],N,['k'],Y,None,N,,,,,,,F,20,
5,7,62,1,1,2,['k'],Y,['k'],N,None,Y,,,,,,,F,20,
5,8,63,5,5,2,['d'],Y,['d'],N,None,Y,,,,,,,F,20,
5,9,64,7,7,2,['k'],N,['d'],Y,['space'],Y,,,,,,,F,20,
5,10,65,7,7,2,['d'],Y,['d'],N,None,Y,,,,,,,F,20,
6,0,66,5,5,2,['d'],N,['k'],N,None,Y,,,,,,,F,20,
6,1,67,6,6,2,['k'],Y,['k'],N,None,Y,,,,,,,F,20,
6,2,68,2,2,2,['d'],N,['k'],N,None,Y,,,,,,,F,20,
6,3,69,1,1,2,['k'],N,['d'],N,None,Y,,,,,,,F,20,
6,4,70,1,1,2,['d'],Y,['d'],N,None,Y,,,,,,,F,20,
6,5,71,0,0,2,['d'],N,['k'],N,None,Y,,,,,,,F,20,
6,6,72,8,8,2,['k'],Y,['k'],Y,['space'],Y,,,,,,,F,20,
6,7,73,8,8,2,['d'],N,['k'],N,None,Y,,,,,,,F,20,
6,8,74,2,2,2,['k'],Y,['k'],Y,['k'],N,,,,,,,F,20,
6,9,75,4,4,2,['d'],N,['k'],Y,None,N,,,,,,,F,20,
6,10,76,4,4,2,['k'],Y,['k'],N,None,Y,,,,,,,F,20,
7,0,77,7,7,2,['d'],N,['k'],N,None,Y,,,,,,,F,20,
7,1,78,3,3,2,['k'],Y,['k'],N,None,Y,,,,,,,F,20,
7,2,79,1,1,2,['d'],N,['k'],Y,['space'],Y,,,,,,,F,20,
7,3,80,0,0,2,['k'],N,['d'],N,None,Y,,,,,,,F,20,
7,4,81,8,8,2,['k'],Y,['k'],N,['d'],N,,,,,,,F,20,
7,5,82,6,6,2,['d'],N,['k'],Y,['space'],Y,,,,,,,F,20,
7,6,83,1,1,2,['k'],N,['d'],N,None,Y,,,,,,,F,20,
7,7,84,1,1,2,['d'],Y,['d'],Y,None,N,,,,,,,F,20,
7,8,85,1,1,2,['k'],Y,['k'],Y,None,N,,,,,,,F,20,
7,9,86,1,1,2,['d'],Y,['d'],Y,None,N,,,,,,,F,20,
7,10,87,10,10,2,['k'],Y,['k'],N,None,Y,,,,,,,F,20,
8,0,88,9,9,2,['d'],Y,['d'],Y,['space'],Y,,,,,,,F,20,
8,1,89,6,6,2,['k'],Y,['k'],N,None,Y,,,,,,,F,20,
8,2,90,0,0,2,['d'],N,['k'],Y,['space'],Y,,,,,,,F,20,
8,3,91,7,7,2,['k'],N,['d'],Y,None,N,,,,,,,F,20,
8,4,92,5,5,2,['k'],Y,['k'],Y,None,N,,,,,,,F,20,
8,5,93,1,1,2,['d'],Y,['d'],Y,['d'],N,,,,,,,F,20,
8,6,94,4,4,2,['k'],N,['d'],Y,None,N,,,,,,,F,20,
8,7,95,3,3,2,['d'],Y,['d'],Y,None,N,,,,,,,F,20,
8,8,96,7,7,2,['k'],N,['d'],Y,None,N,,,,,,,F,20,
8,9,97,2,2,2,['d'],Y,['d'],Y,None,N,,,,,,,F,20,
8,10,98,3,3,2,['k'],N,['d'],Y,None,N,,,,,,,F,20,
9,0,99,6,6,2,['d'],N,['k'],N,['space'],N,26,32,25,,,,F,20,
9,1,100,6,6,3,['k'],N,['d'],,,,,,,,,,F,20,
9,2,101,3,3,3,['k'],N,['d'],,,,,,,,,,F,20,
9,3,102,9,9,3,['d'],Y,['d'],Y,['space'],Y,,,,,,,F,20,
9,4,103,7,7,3,['d'],N,['k'],N,None,Y,,,,,,,F,20,
9,5,104,9,9,3,['k'],Y,['k'],N,None,Y,,,,,,,F,20,
9,6,105,2,2,3,['d'],Y,['d'],N,None,Y,,,,,,,F,20,
9,7,106,7,7,3,['d'],Y,['d'],N,['space'],N,,,,,,,F,20,
9,8,107,8,8,3,['k'],Y,['k'],Y,None,N,,,,,,,F,20,
9,9,108,2,2,3,['d'],N,['k'],Y,['space'],Y,,,,,,,F,20,
9,10,109,1,1,3,['k'],Y,['k'],N,None,Y,,,,,,,F,20,
10,0,110,6,6,3,['d'],N,['k'],Y,['space'],Y,,,,,,,F,20,
10,1,111,3,3,3,['k'],N,['d'],Y,None,N,,,,,,,F,20,
10,2,112,9,9,3,['d'],N,['k'],Y,['space'],Y,,,,,,,F,20,
10,3,113,3,3,3,['k'],Y,['k'],N,None,Y,,,,,,,F,20,
10,4,114,9,9,3,['d'],N,['k'],N,None,Y,,,,,,,F,20,
10,5,115,1,1,3,['k'],Y,['k'],N,None,Y,,,,,,,F,20,
10,6,116,3,3,3,['k'],Y,['k'],Y,None,N,,,,,,,F,20,
10,7,117,6,6,3,['k'],N,['d'],Y,None,N,,,,,,,F,20,
10,8,118,3,3,3,['d'],N,['k'],Y,['space'],Y,,,,,,,F,20,
10,9,119,10,10,3,['k'],Y,['k'],N,None,Y,,,,,,,F,20,
10,10,120,7,7,3,['d'],Y,['d'],N,None,Y,,,,,,,F,20,
11,0,121,6,6,3,['d'],Y,['d'],Y,['k'],N,,,,,,,F,20,
11,1,122,7,7,3,['k'],N,['d'],N,None,Y,,,,,,,F,20,
11,2,123,1,1,3,['d'],N,['k'],Y,['space'],Y,,,,,,,F,20,
11,3,124,2,2,3,['d'],N,['k'],Y,None,N,,,,,,,F,20,
11,4,125,4,4,3,['k'],N,['d'],Y,['space'],Y,,,,,,,F,20,
11,5,126,10,10,3,['d'],N,['k'],N,None,Y,,,,,,,F,20,
11,6,127,8,8,3,['k'],N,['d'],N,None,Y,,,,,,,F,20,
11,7,128,5,5,3,['d'],N,['k'],N,None,Y,,,,,,,F,20,
11,8,129,7,7,3,['d'],Y,['d'],Y,['space'],Y,,,,,,,F,20,
11,9,130,0,0,3,['k'],N,['d'],Y,['space'],Y,,,,,,,F,20,
11,10,131,4,4,3,['d'],N,['k'],Y,['space'],Y,,,,,,,F,20,
12,0,132,5,5,3,['k'],Y,['k'],N,None,Y,,,,,,,F,20,
12,1,133,4,4,3,['k'],N,['d'],Y,None,N,,,,,,,F,20,
12,2,134,8,8,3,['k'],Y,['k'],N,['d'],N,,,,,,,F,20,
12,3,135,7,7,3,['d'],Y,['d'],Y,None,N,,,,,,,F,20,
12,4,136,7,7,3,['d'],Y,['d'],Y,None,N,,,,,,,F,20,
12,5,137,7,7,3,['d'],Y,['d'],Y,None,N,,,,,,,F,20,
12,6,138,6,6,3,['k'],N,['d'],N,None,Y,,,,,,,F,20,
12,7,139,0,0,3,['d'],N,['k'],N,None,Y,,,,,,,F,20,
12,8,140,1,1,3,['k'],Y,['k'],N,None,Y,,,,,,,F,20,
12,9,141,2,2,3,['d'],N,['k'],N,None,Y,,,,,,,F,20,
12,10,142,4,4,3,['k'],N,['d'],Y,['space'],Y,,,,,,,F,20,
13,0,143,2,2,3,['d'],Y,['d'],Y,None,N,,,,,,,F,20,
13,1,144,1,1,3,['k'],Y,['k'],N,None,Y,,,,,,,F,20,
13,2,145,2,2,3,['d'],Y,['d'],Y,['space'],Y,,,,,,,F,20,
13,3,146,5,5,3,['d'],N,['k'],Y,['space'],Y,,,,,,,F,20,
13,4,147,7,7,3,['k'],Y,['k'],Y,['d'],N,,,,,,,F,20,
13,5,148,1,1,3,['k'],Y,['k'],N,None,Y,,,,,,,F,20,
13,6,149,4,4,3,['k'],N,['d'],N,None,Y,24,34,25,,,,F,20,
13,7,150,9,9,4,['d'],N,['k'],,,,,,,,,,F,20,
13,8,151,9,9,4,['k'],N,['d'],,,,,,,,,,F,20,
13,9,152,1,1,4,['d'],Y,['d'],Y,['space'],Y,,,,,,,F,20,
13,10,153,2,2,4,['k'],N,['d'],Y,['space'],Y,,,,,,,F,20,
14,0,154,4,4,4,['d'],N,['k'],Y,['space'],Y,,,,,,,F,20,
14,1,155,8,8,4,['k'],N,['d'],Y,['space'],Y,,,,,,,F,20,
14,2,156,4,4,4,['d'],Y,['d'],N,None,Y,,,,,,,F,20,
14,3,157,6,6,4,['k'],Y,['k'],Y,['space'],Y,,,,,,,F,20,
14,4,158,0,0,4,['d'],N,['k'],Y,['space'],Y,,,,,,,F,20,
14,5,159,8,8,4,['k'],Y,['k'],N,None,Y,,,,,,,F,20,
14,6,160,5,5,4,['k'],Y,['k'],N,None,Y,,,,,,,F,20,
14,7,161,6,6,4,['k'],Y,['k'],Y,None,N,,,,,,,F,20,
14,8,162,8,8,4,['d'],N,['k'],N,['d'],N,,,,,,,F,20,
14,9,163,7,7,4,['k'],N,['d'],N,None,Y,,,,,,,F,20,
14,10,164,0,0,4,['d'],N,['k'],Y,['space'],Y,,,,,,,F,20,
15,0,165,8,8,4,['k'],N,['d'],Y,None,N,,,,,,,F,20,
15,1,166,3,3,4,['d'],Y,['d'],N,None,Y,,,,,,,F,20,
15,2,167,7,7,4,['k'],N,['d'],Y,['space'],Y,,,,,,,F,20,
15,3,168,8,8,4,['d'],Y,['d'],Y,['space'],Y,,,,,,,F,20,
15,4,169,0,0,4,['k'],Y,['k'],Y,['space'],Y,,,,,,,F,20,
15,5,170,2,2,4,['d'],Y,['d'],Y,['space'],Y,,,,,,,F,20,
15,6,171,10,10,4,['k'],Y,['k'],N,None,Y,,,,,,,F,20,
15,7,172,4,4,4,['d'],N,['k'],N,None,Y,,,,,,,F,20,
15,8,173,5,5,4,['k'],Y,['k'],N,None,Y,,,,,,,F,20,
15,9,174,7,7,4,['d'],N,['k'],N,None,Y,,,,,,,F,20,
15,10,175,3,3,4,['k'],N,['d'],N,['k'],N,,,,,,,F,20,
16,0,176,7,7,4,['d'],Y,['d'],N,None,Y,,,,,,,F,20,
16,1,177,3,3,4,['k'],N,['d'],Y,None,N,,,,,,,F,20,
16,2,178,7,7,4,['d'],Y,['d'],Y,['space'],Y,,,,,,,F,20,
16,3,179,4,4,4,['k'],Y,['k'],N,None,Y,,,,,,,F,20,
16,4,180,10,10,4,['d'],Y,['d'],Y,None,N,,,,,,,F,20,
16,5,181,4,4,4,['k'],Y,['k'],Y,None,N,,,,,,,F,20,
16,6,182,5,5,4,['d'],N,['k'],Y,None,N,,,,,,,F,20,
16,7,183,7,7,4,['k'],Y,['k'],N,None,Y,,,,,,,F,20,
16,8,184,0,0,4,['d'],N,['k'],Y,['space'],Y,,,,,,,F,20,
16,9,185,0,0,4,['k'],Y,['k'],Y,['space'],Y,,,,,,,F,20,
16,10,186,7,7,4,['d'],N,['k'],N,None,Y,,,,,,,F,20,
17,0,187,7,7,4,['k'],Y,['k'],Y,None,N,,,,,,,F,20,
17,1,188,6,6,4,['k'],Y,['k'],N,None,Y,,,,,,,F,20,
17,2,189,3,3,4,['k'],Y,['k'],N,None,Y,,,,,,,F,20,
17,3,190,9,9,4,['k'],N,['d'],N,None,Y,,,,,,,F,20,
17,4,191,4,4,4,['d'],Y,['d'],N,None,Y,,,,,,,F,20,
17,5,192,9,9,4,['k'],Y,['k'],Y,['space'],Y,,,,,,,F,20,
17,6,193,6,6,4,['d'],Y,['d'],N,['space'],N,,,,,,,F,20,
17,7,194,0,0,4,['k'],N,['d'],N,None,Y,,,,,,,F,20,
17,8,195,1,1,4,['d'],N,['k'],N,None,Y,,,,,,,F,20,
17,9,196,3,3,4,['k'],N,['d'],N,None,Y,,,,,,,F,20,
17,10,197,8,8,4,['d'],N,['k'],Y,None,N,,,,,,,F,20,
18,0,198,0,0,4,['k'],N,['d'],N,['space'],N,,,,,,,F,20,
18,1,199,0,0,4,['d'],Y,['d'],N,None,Y,26,36,23,,,,F,20,
18,2,200,4,4,5,['k'],N,['d'],,,,,,,,,,F,20,
18,3,201,4,4,5,['d'],Y,['d'],,,,,,,,,,F,20,
18,4,202,10,10,5,['k'],N,['d'],Y,None,N,,,,,,,F,20,
18,5,203,0,0,5,['d'],N,['k'],Y,['space'],Y,,,,,,,F,20,
18,6,204,7,7,5,['k'],N,['d'],N,None,Y,,,,,,,F,20,
18,7,205,10,10,5,['d'],Y,['d'],N,None,Y,,,,,,,F,20,
18,8,206,10,10,5,['k'],Y,['k'],Y,['space'],Y,,,,,,,F,20,
18,9,207,1,1,5,['k'],N,['d'],Y,['space'],Y,,,,,,,F,20,
18,10,208,1,1,5,['k'],N,['d'],Y,None,N,,,,,,,F,20,
19,0,209,8,8,5,['d'],Y,['d'],N,None,Y,,,,,,,F,20,
19,1,210,10,10,5,['k'],N,['d'],N,['space'],N,,,,,,,F,20,
19,2,211,3,3,5,['k'],N,['d'],Y,None,N,,,,,,,F,20,
19,3,212,9,9,5,['k'],Y,['k'],Y,['k'],N,,,,,,,F,20,
19,4,213,1,1,5,['k'],N,['d'],Y,['space'],Y,,,,,,,F,20,
19,5,214,1,1,5,['d'],N,['k'],N,['k'],N,,,,,,,F,20,
19,6,215,8,8,5,['k'],N,['d'],Y,None,N,,,,,,,F,20,
19,7,216,0,0,5,['d'],Y,['d'],Y,None,N,,,,,,,F,20,
19,8,217,5,5,5,['k'],N,['d'],N,['space'],N,,,,,,,F,20,
19,9,218,5,5,5,['d'],N,['k'],N,None,Y,,,,,,,F,20,
19,10,219,2,2,5,['k'],N,['d'],N,None,Y,,,,,,,F,20,
20,0,220,10,10,5,['d'],Y,['d'],N,None,Y,,,,,,,F,20,
20,1,221,9,9,5,['k'],N,['d'],Y,None,N,,,,,,,F,20,
20,2,222,9,9,5,['d'],Y,['d'],N,None,Y,,,,,,,F,20,
20,3,223,0,0,5,['k'],Y,['k'],N,None,Y,,,,,,,F,20,
20,4,224,4,4,5,['d'],N,['k'],N,None,Y,,,,,,,F,20,
20,5,225,1,1,5,['k'],Y,['k'],N,None,Y,,,,,,,F,20,
20,6,226,10,10,5,['d'],Y,['d'],N,['space'],N,,,,,,,F,20,
20,7,227,4,4,5,['k'],N,['d'],N,None,Y,,,,,,,F,20,
20,8,228,6,6,5,['d'],Y,['d'],N,None,Y,,,,,,,F,20,
20,9,229,10,10,5,['k'],N,['d'],N,None,Y,,,,,,,F,20,
20,10,230,8,8,5,['k'],Y,['k'],N,['k'],N,,,,,,,F,20,
21,0,231,4,4,5,['k'],Y,['k'],N,['d'],N,,,,,,,F,20,
21,1,232,10,10,5,['k'],N,['d'],Y,['space'],Y,,,,,,,F,20,
21,2,233,3,3,5,['d'],Y,['d'],Y,None,N,,,,,,,F,20,
21,3,234,3,3,5,['d'],N,['k'],N,None,Y,,,,,,,F,20,
21,4,235,4,4,5,['k'],N,['d'],Y,None,N,,,,,,,F,20,
21,5,236,9,9,5,['k'],N,['d'],N,['d'],N,,,,,,,F,20,
21,6,237,8,8,5,['k'],N,['d'],Y,['space'],Y,,,,,,,F,20,
21,7,238,5,5,5,['d'],N,['k'],Y,None,N,,,,,,,F,20,
21,8,239,7,7,5,['k'],N,['d'],N,None,Y,,,,,,,F,20,
21,9,240,2,2,5,['k'],N,['d'],N,['k'],N,,,,,,,F,20,
21,10,241,6,6,5,['d'],N,['k'],N,['space'],N,,,,,,,F,20,
22,0,242,9,9,5,['k'],Y,['k'],N,['space'],N,,,,,,,F,20,
22,1,243,7,7,5,['d'],Y,['d'],N,None,Y,,,,,,,F,20,
22,2,244,8,8,5,['k'],N,['d'],N,None,Y,,,,,,,F,20,
22,3,245,0,0,5,['k'],N,['d'],N,['d'],N,,,,,,,F,20,
22,4,246,10,10,5,['d'],Y,['d'],N,None,Y,,,,,,,F,20,
22,5,247,4,4,5,['k'],Y,['k'],Y,['space'],Y,,,,,,,F,20,
22,6,248,6,6,5,['d'],N,['k'],Y,['space'],Y,,,,,,,F,20,
22,7,249,3,3,5,['d'],Y,['d'],Y,None,N,20,26,19,,,,F,20,
22,8,250,3,3,6,['k'],Y,['k'],,,,,,,,,,F,20,
22,9,251,2,2,6,['d'],Y,['d'],,,,,,,,,,F,20,
22,10,252,5,5,6,['k'],Y,['k'],Y,['space'],Y,,,,,,,F,20,
23,0,253,4,4,6,['d'],Y,['d'],Y,['space'],Y,,,,,,,F,20,
23,1,254,3,3,6,['k'],Y,['k'],Y,['space'],Y,,,,,,,F,20,
23,2,255,2,2,6,['d'],Y,['d'],Y,['space'],Y,,,,,,,F,20,
23,3,256,3,3,6,['k'],Y,['k'],N,None,Y,,,,,,,F,20,
23,4,257,6,6,6,['k'],Y,['k'],N,None,Y,,,,,,,F,20,
23,5,258,8,8,6,['k'],Y,['k'],Y,['space'],Y,,,,,,,F,20,
23,6,259,0,0,6,['k'],N,['d'],N,['d'],N,,,,,,,F,20,
23,7,260,8,8,6,['d'],Y,['d'],Y,None,N,,,,,,,F,20,
23,8,261,8,8,6,['d'],Y,['d'],N,None,Y,,,,,,,F,20,
23,9,262,9,9,6,['d'],Y,['d'],Y,None,N,,,,,,,F,20,
23,10,263,10,10,6,['k'],N,['d'],Y,None,N,,,,,,,F,20,
24,0,264,0,0,6,['d'],N,['k'],Y,['space'],Y,,,,,,,F,20,
24,1,265,8,8,6,['k'],N,['d'],Y,['space'],Y,,,,,,,F,20,
24,2,266,8,8,6,['d'],Y,['d'],Y,['space'],Y,,,,,,,F,20,
24,3,267,0,0,6,['k'],N,['d'],Y,['space'],Y,,,,,,,F,20,
24,4,268,2,2,6,['k'],Y,['k'],Y,['d'],N,,,,,,,F,20,
24,5,269,10,10,6,['d'],Y,['d'],N,None,Y,,,,,,,F,20,
24,6,270,6,6,6,['k'],N,['d'],N,None,Y,,,,,,,F,20,
24,7,271,6,6,6,['k'],Y,['k'],Y,['d'],N,,,,,,,F,20,
24,8,272,10,10,6,['d'],N,['k'],N,None,Y,,,,,,,F,20,
24,9,273,6,6,6,['k'],Y,['k'],Y,None,N,,,,,,,F,20,
24,10,274,7,7,6,['d'],N,['k'],N,None,Y,,,,,,,F,20,
25,0,275,9,9,6,['k'],Y,['k'],N,None,Y,,,,,,,F,20,
25,1,276,10,10,6,['k'],Y,['k'],Y,None,N,,,,,,,F,20,
25,2,277,6,6,6,['k'],N,['d'],Y,['space'],Y,,,,,,,F,20,
25,3,278,0,0,6,['k'],N,['d'],Y,None,N,,,,,,,F,20,
25,4,279,4,4,6,['d'],Y,['d'],N,None,Y,,,,,,,F,20,
25,5,280,5,5,6,['k'],Y,['k'],N,None,Y,,,,,,,F,20,
25,6,281,3,3,6,['d'],Y,['d'],Y,['space'],Y,,,,,,,F,20,
25,7,282,2,2,6,['k'],N,['d'],N,None,Y,,,,,,,F,20,
25,8,283,3,3,6,['d'],N,['k'],N,None,Y,,,,,,,F,20,
25,9,284,3,3,6,['k'],N,['d'],N,['space'],N,,,,,,,F,20,
25,10,285,7,7,6,['d'],N,['k'],Y,['space'],Y,,,,,,,F,20,
26,0,286,9,9,6,['k'],Y,['k'],N,['space'],N,,,,,,,F,20,
26,1,287,1,1,6,['d'],Y,['d'],N,None,Y,,,,,,,F,20,
26,2,288,10,10,6,['k'],N,['d'],Y,['space'],Y,,,,,,,F,20,
26,3,289,9,9,6,['d'],Y,['d'],N,['space'],N,,,,,,,F,20,
26,4,290,6,6,6,['d'],N,['k'],Y,None,N,,,,,,,F,20,
26,5,291,2,2,6,['k'],Y,['k'],Y,['space'],Y,,,,,,,F,20,
26,6,292,6,6,6,['d'],N,['k'],Y,['space'],Y,,,,,,,F,20,
26,7,293,8,8,6,['d'],Y,['d'],Y,['space'],Y,,,,,,,F,20,
26,8,294,3,3,6,['k'],N,['d'],N,None,Y,,,,,,,F,20,
26,9,295,9,9,6,['d'],Y,['d'],N,None,Y,,,,,,,F,20,
26,10,296,6,6,6,['d'],N,['k'],N,None,Y,,,,,,,F,20,
27,0,297,7,7,6,['k'],N,['d'],N,None,Y,,,,,,,F,20,
27,1,298,5,5,6,['d'],N,['k'],N,None,Y,,,,,,,F,20,
27,2,299,9,9,6,['d'],N,['k'],N,['k'],N,28,34,25,,,,F,20,
27,3,300,2,2,7,['k'],N,['d'],,,,,,,,,,F,20,
27,4,301,7,7,7,['d'],Y,['d'],,,,,,,,,,F,20,
27,5,302,1,1,7,['k'],N,['d'],Y,None,N,,,,,,,F,20,
27,6,303,5,5,7,['d'],Y,['d'],N,None,Y,,,,,,,F,20,
27,7,304,10,10,7,['k'],Y,['k'],Y,None,N,,,,,,,F,20,
27,8,305,5,5,7,['d'],N,['k'],N,['space'],N,,,,,,,F,20,
27,9,306,10,10,7,['k'],N,['d'],Y,None,N,,,,,,,F,20,
27,10,307,2,2,7,['k'],N,['d'],Y,['space'],Y,,,,,,,F,20,
28,0,308,7,7,7,['d'],N,['k'],Y,None,N,,,,,,,F,20,
28,1,309,8,8,7,['k'],N,['d'],N,None,Y,,,,,,,F,20,
28,2,310,6,6,7,['d'],Y,['d'],N,None,Y,,,,,,,F,20,
28,3,311,5,5,7,['d'],Y,['d'],N,['space'],N,,,,,,,F,20,
28,4,312,1,1,7,['d'],N,['k'],Y,['d'],N,,,,,,,F,20,
28,5,313,7,7,7,['k'],Y,['k'],Y,['space'],Y,,,,,,,F,20,
28,6,314,6,6,7,['k'],Y,['k'],N,['space'],N,,,,,,,F,20,
28,7,315,9,9,7,['k'],Y,['k'],N,None,Y,,,,,,,F,20,
28,8,316,1,1,7,['d'],N,['k'],N,None,Y,,,,,,,F,20,
28,9,317,0,0,7,['k'],N,['d'],N,None,Y,,,,,,,F,20,
28,10,318,2,2,7,['k'],N,['d'],Y,['d'],N,,,,,,,F,20,
29,0,319,9,9,7,['d'],N,['k'],N,['space'],N,,,,,,,F,20,
29,1,320,9,9,7,['k'],N,['d'],Y,['k'],N,,,,,,,F,20,
29,2,321,7,7,7,['k'],N,['d'],N,['k'],N,,,,,,,F,20,
29,3,322,1,1,7,['d'],Y,['d'],N,['space'],N,,,,,,,F,20,
29,4,323,4,4,7,['k'],Y,['k'],N,['space'],N,,,,,,,F,20,
29,5,324,7,7,7,['d'],Y,['d'],Y,None,N,,,,,,,F,20,
29,6,325,3,3,7,['k'],Y,['k'],Y,None,N,,,,,,,F,20,
29,7,326,10,10,7,['d'],N,['k'],N,['space'],N,,,,,,,F,20,
29,8,327,7,7,7,['k'],Y,['k'],N,None,Y,,,,,,,F,20,
29,9,328,9,9,7,['k'],Y,['k'],Y,['space'],Y,,,,,,,F,20,
29,10,329,10,10,7,['d'],Y,['d'],N,None,Y,,,,,,,F,20,
30,0,330,5,5,7,['d'],N,['k'],N,None,Y,,,,,,,F,20,
30,1,331,3,3,7,['k'],Y,['k'],N,None,Y,,,,,,,F,20,
30,2,332,9,9,7,['k'],N,['d'],N,None,Y,,,,,,,F,20,
30,3,333,5,5,7,['d'],Y,['d'],N,['space'],N,,,,,,,F,20,
30,4,334,5,5,7,['k'],Y,['k'],N,None,Y,,,,,,,F,20,
30,5,335,7,7,7,['d'],Y,['d'],Y,None,N,,,,,,,F,20,
30,6,336,8,8,7,['k'],N,['d'],N,None,Y,,,,,,,F,20,
30,7,337,5,5,7,['d'],N,['k'],Y,None,N,,,,,,,F,20,
30,8,338,3,3,7,['k'],N,['d'],N,['k'],N,,,,,,,F,20,
30,9,339,10,10,7,['d'],Y,['d'],N,['space'],N,,,,,,,F,20,
30,10,340,0,0,7,['k'],Y,['k'],N,None,Y,,,,,,,F,20,
31,0,341,0,0,7,['k'],Y,['k'],Y,['space'],Y,,,,,,,F,20,
31,1,342,5,5,7,['k'],Y,['k'],N,None,Y,,,,,,,F,20,
31,2,343,4,4,7,['k'],Y,['k'],N,None,Y,,,,,,,F,20,
31,3,344,6,6,7,['d'],Y,['d'],Y,['space'],Y,,,,,,,F,20,
31,4,345,5,5,7,['k'],Y,['k'],N,['space'],N,,,,,,,F,20,
31,5,346,1,1,7,['d'],N,['k'],N,None,Y,,,,,,,F,20,
31,6,347,4,4,7,['k'],Y,['k'],N,None,Y,,,,,,,F,20,
31,7,348,8,8,7,['d'],N,['k'],N,None,Y,,,,,,,F,20,
31,8,349,4,4,7,['k'],Y,['k'],N,None,Y,28,25,16,,,,F,20,
31,9,350,3,3,8,['k'],N,['d'],,,,,,,,,,F,20,
31,10,351,3,3,8,['d'],Y,['d'],,,,,,,,,,F,20,
32,0,352,5,5,8,['d'],N,['k'],Y,['space'],Y,,,,,,,F,20,
32,1,353,2,2,8,['k'],Y,['k'],Y,['space'],Y,,,,,,,F,20,
32,2,354,1,1,8,['d'],N,['k'],N,None,Y,,,,,,,F,20,
32,3,355,7,7,8,['k'],Y,['k'],N,None,Y,,,,,,,F,20,
32,4,356,3,3,8,['d'],Y,['d'],Y,['space'],Y,,,,,,,F,20,
32,5,357,9,9,8,['k'],N,['d'],N,None,Y,,,,,,,F,20,
32,6,358,4,4,8,['d'],N,['k'],Y,['space'],Y,,,,,,,F,20,
32,7,359,8,8,8,['d'],Y,['d'],Y,None,N,,,,,,,F,20,
32,8,360,4,4,8,['k'],Y,['k'],Y,None,N,,,,,,,F,20,
32,9,361,3,3,8,['d'],Y,['d'],Y,None,N,,,,,,,F,20,
32,10,362,8,8,8,['k'],Y,['k'],Y,['space'],Y,,,,,,,F,20,
33,0,363,8,8,8,['d'],N,['k'],Y,['space'],Y,,,,,,,F,20,
33,1,364,10,10,8,['d'],N,['k'],N,None,Y,,,,,,,F,20,
33,2,365,9,9,8,['k'],Y,['k'],N,None,Y,,,,,,,F,20,
33,3,366,4,4,8,['d'],N,['k'],Y,['space'],Y,,,,,,,F,20,
33,4,367,9,9,8,['k'],Y,['k'],Y,None,N,,,,,,,F,20,
33,5,368,6,6,8,['k'],N,['d'],N,None,Y,,,,,,,F,20,
33,6,369,2,2,8,['d'],Y,['d'],Y,['space'],Y,,,,,,,F,20,
33,7,370,6,6,8,['k'],Y,['k'],Y,['k'],N,,,,,,,F,20,
33,8,371,8,8,8,['d'],N,['k'],Y,['space'],Y,,,,,,,F,20,
33,9,372,5,5,8,['k'],Y,['k'],N,['k'],N,,,,,,,F,20,
33,10,373,7,7,8,['d'],Y,['d'],N,None,Y,,,,,,,F,20,
34,0,374,8,8,8,['k'],Y,['k'],N,None,Y,,,,,,,F,20,
34,1,375,5,5,8,['k'],Y,['k'],Y,['space'],Y,,,,,,,F,20,
34,2,376,4,4,8,['d'],Y,['d'],N,None,Y,,,,,,,F,20,
34,3,377,5,5,8,['k'],N,['d'],N,['k'],N,,,,,,,F,20,
34,4,378,3,3,8,['d'],Y,['d'],N,None,Y,,,,,,,F,20,
34,5,379,3,3,8,['k'],N,['d'],N,['space'],N,,,,,,,F,20,
34,6,380,7,7,8,['d'],Y,['d'],Y,['space'],Y,,,,,,,F,20,
34,7,381,0,0,8,['d'],N,['k'],Y,['space'],Y,,,,,,,F,20,
34,8,382,6,6,8,['k'],Y,['k'],Y,['space'],Y,,,,,,,F,20,
34,9,383,2,2,8,['k'],N,['d'],Y,['space'],Y,,,,,,,F,20,
34,10,384,10,10,8,['k'],Y,['k'],N,None,Y,,,,,,,F,20,
35,0,385,4,4,8,['d'],N,['k'],Y,['space'],Y,,,,,,,F,20,
35,1,386,10,10,8,['k'],N,['d'],Y,['space'],Y,,,,,,,F,20,
35,2,387,4,4,8,['k'],Y,['k'],N,['d'],N,,,,,,,F,20,
35,3,388,0,0,8,['k'],Y,['k'],Y,['space'],Y,,,,,,,F,20,
35,4,389,5,5,8,['d'],N,['k'],N,None,Y,,,,,,,F,20,
35,5,390,5,5,8,['k'],N,['d'],N,None,Y,,,,,,,F,20,
35,6,391,4,4,8,['d'],Y,['d'],N,None,Y,,,,,,,F,20,
35,7,392,0,0,8,['d'],Y,['d'],N,None,Y,,,,,,,F,20,
35,8,393,6,6,8,['k'],N,['d'],Y,None,N,,,,,,,F,20,
35,9,394,6,6,8,['d'],N,['k'],Y,None,N,,,,,,,F,20,
35,10,395,5,5,8,['k'],N,['d'],Y,None,N,,,,,,,F,20,
36,0,396,3,3,8,['d'],N,['k'],N,['space'],N,,,,,,,F,20,
36,1,397,6,6,8,['k'],N,['d'],N,None,Y,,,,,,,F,20,
36,2,398,8,8,8,['d'],Y,['d'],N,['space'],N,,,,,,,F,20,
36,3,399,3,3,8,['d'],N,['k'],N,None,Y,26,34,25,,,,F,20,
36,4,400,0,0,9,['d'],Y,['d'],,,,,,,,,,F,20,
36,5,401,9,9,9,['k'],Y,['k'],,,,,,,,,,F,20,
36,6,402,7,7,9,['k'],N,['d'],N,None,Y,,,,,,,F,20,
36,7,403,6,6,9,['d'],N,['k'],N,None,Y,,,,,,,F,20,
36,8,404,9,9,9,['k'],N,['d'],N,None,Y,,,,,,,F,20,
36,9,405,4,4,9,['d'],N,['k'],N,None,Y,,,,,,,F,20,
36,10,406,2,2,9,['k'],N,['d'],Y,['space'],Y,,,,,,,F,20,
37,0,407,2,2,9,['k'],N,['d'],Y,['k'],N,,,,,,,F,20,
37,1,408,1,1,9,['d'],N,['k'],N,None,Y,,,,,,,F,20,
37,2,409,1,1,9,['k'],N,['d'],N,None,Y,,,,,,,F,20,
37,3,410,10,10,9,['d'],N,['k'],N,None,Y,,,,,,,F,20,
37,4,411,9,9,9,['k'],Y,['k'],Y,None,N,,,,,,,F,20,
37,5,412,8,8,9,['k'],N,['d'],Y,['space'],Y,,,,,,,F,20,
37,6,413,10,10,9,['k'],N,['d'],N,['d'],N,,,,,,,F,20,
37,7,414,1,1,9,['k'],N,['d'],N,['k'],N,,,,,,,F,20,
37,8,415,6,6,9,['d'],Y,['d'],Y,None,N,,,,,,,F,20,
37,9,416,5,5,9,['k'],N,['d'],Y,['space'],Y,,,,,,,F,20,
37,10,417,5,5,9,['k'],N,['d'],N,['d'],N,,,,,,,F,20,
38,0,418,0,0,9,['k'],N,['d'],Y,None,N,,,,,,,F,20,
38,1,419,3,3,9,['d'],Y,['d'],N,None,Y,,,,,,,F,20,
38,2,420,1,1,9,['d'],N,['k'],Y,['space'],Y,,,,,,,F,20,
38,3,421,2,2,9,['k'],N,['d'],N,['space'],N,,,,,,,F,20,
38,4,422,8,8,9,['d'],N,['k'],Y,None,N,,,,,,,F,20,
38,5,423,4,4,9,['k'],N,['d'],N,None,Y,,,,,,,F,20,
38,6,424,0,0,9,['d'],Y,['d'],Y,None,N,,,,,,,F,20,
38,7,425,0,0,9,['k'],Y,['k'],N,None,Y,,,,,,,F,20,
38,8,426,2,2,9,['d'],Y,['d'],Y,None,N,,,,,,,F,20,
38,9,427,6,6,9,['k'],N,['d'],N,None,Y,,,,,,,F,20,
38,10,428,2,2,9,['d'],Y,['d'],Y,None,N,,,,,,,F,20,
39,0,429,4,4,9,['k'],Y,['k'],N,['space'],N,,,,,,,F,20,
39,1,430,3,3,9,['k'],Y,['k'],N,['k'],N,,,,,,,F,20,
39,2,431,7,7,9,['d'],N,['k'],N,['d'],N,,,,,,,F,20,
39,3,432,3,3,9,['k'],Y,['k'],N,None,Y,,,,,,,F,20,
39,4,433,5,5,9,['k'],Y,['k'],N,None,Y,,,,,,,F,20,
39,5,434,3,3,9,['d'],N,['k'],N,None,Y,,,,,,,F,20,
39,6,435,10,10,9,['k'],N,['d'],Y,['space'],Y,,,,,,,F,20,
39,7,436,1,1,9,['k'],Y,['k'],Y,None,N,,,,,,,F,20,
39,8,437,9,9,9,['d'],Y,['d'],Y,None,N,,,,,,,F,20,
39,9,438,4,4,9,['k'],Y,['k'],N,['space'],N,,,,,,,F,20,
39,10,439,7,7,9,['k'],Y,['k'],N,None,Y,,,,,,,F,20,
40,0,440,9,9,9,['d'],N,['k'],Y,['k'],N,,,,,,,F,20,
40,1,441,10,10,9,['k'],Y,['k'],Y,['space'],Y,,,,,,,F,20,
40,2,442,10,10,9,['d'],Y,['d'],Y,None,N,,,,,,,F,20,
40,3,443,1,1,9,['d'],N,['k'],N,None,Y,,,,,,,F,20,
40,4,444,7,7,9,['k'],N,['d'],Y,None,N,,,,,,,F,20,
40,5,445,10,10,9,['d'],N,['k'],Y,None,N,,,,,,,F,20,
40,6,446,8,8,9,['k'],N,['d'],N,None,Y,,,,,,,F,20,
40,7,447,6,6,9,['k'],N,['d'],Y,None,N,,,,,,,F,20,
40,8,448,6,6,9,['d'],Y,['d'],N,None,Y,,,,,,,F,20,
40,9,449,1,1,9,['d'],Y,['d'],N,None,Y,21,25,21,,,,F,20,
40,10,450,3,3,10,['k'],Y,['k'],,,,,,,,,,F,20,
41,0,451,1,1,10,['d'],Y,['d'],,,,,,,,,,F,20,
41,1,452,0,0,10,['d'],Y,['d'],N,None,Y,,,,,,,F,20,
41,2,453,5,5,10,['k'],Y,['k'],N,None,Y,,,,,,,F,20,
41,3,454,2,2,10,['d'],Y,['d'],Y,['space'],Y,,,,,,,F,20,
41,4,455,1,1,10,['k'],N,['d'],Y,['space'],Y,,,,,,,F,20,
41,5,456,7,7,10,['d'],Y,['d'],Y,['space'],Y,,,,,,,F,20,
41,6,457,2,2,10,['k'],N,['d'],N,None,Y,,,,,,,F,20,
41,7,458,9,9,10,['d'],N,['k'],Y,['space'],Y,,,,,,,F,20,
41,8,459,0,0,10,['k'],Y,['k'],N,None,Y,,,,,,,F,20,
41,9,460,0,0,10,['k'],Y,['k'],Y,None,N,,,,,,,F,20,
41,10,461,2,2,10,['d'],Y,['d'],Y,None,N,,,,,,,F,20,
42,0,462,6,6,10,['k'],N,['d'],N,None,Y,,,,,,,F,20,
42,1,463,7,7,10,['d'],N,['k'],N,None,Y,,,,,,,F,20,
42,2,464,0,0,10,['k'],Y,['k'],Y,['space'],Y,,,,,,,F,20,
42,3,465,6,6,10,['d'],N,['k'],Y,None,N,,,,,,,F,20,
42,4,466,5,5,10,['k'],N,['d'],N,None,Y,,,,,,,F,20,
42,5,467,3,3,10,['d'],Y,['d'],Y,None,N,,,,,,,F,20,
42,6,468,2,2,10,['k'],N,['d'],Y,None,N,,,,,,,F,20,
42,7,469,5,5,10,['d'],Y,['d'],N,None,Y,,,,,,,F,20,
42,8,470,6,6,10,['k'],N,['d'],N,None,Y,,,,,,,F,20,
42,9,471,4,4,10,['k'],N,['d'],Y,['k'],N,,,,,,,F,20,
42,10,472,0,0,10,['d'],N,['k'],N,['d'],N,,,,,,,F,20,
43,0,473,4,4,10,['d'],N,['k'],N,None,Y,,,,,,,F,20,
43,1,474,1,1,10,['d'],N,['k'],N,None,Y,,,,,,,F,20,
43,2,475,3,3,10,['k'],N,['d'],Y,None,N,,,,,,,F,20,
43,3,476,5,5,10,['d'],N,['k'],N,None,Y,,,,,,,F,20,
43,4,477,10,10,10,['d'],Y,['d'],N,None,Y,,,,,,,F,20,
43,5,478,7,7,10,['d'],N,['k'],Y,['k'],N,,,,,,,F,20,
43,6,479,8,8,10,['k'],Y,['k'],N,['k'],N,,,,,,,F,20,
43,7,480,10,10,10,['k'],N,['d'],Y,['space'],Y,,,,,,,F,20,
43,8,481,2,2,10,['d'],Y,['d'],N,None,Y,,,,,,,F,20,
43,9,482,4,4,10,['d'],Y,['d'],Y,None,N,,,,,,,F,20,
43,10,483,8,8,10,['d'],N,['k'],Y,['space'],Y,,,,,,,F,20,
44,0,484,10,10,10,['d'],Y,['d'],N,None,Y,,,,,,,F,20,
44,1,485,5,5,10,['k'],Y,['k'],Y,None,N,,,,,,,F,20,
44,2,486,0,0,10,['d'],N,['k'],N,None,Y,,,,,,,F,20,
44,3,487,9,9,10,['k'],N,['d'],N,None,Y,,,,,,,F,20,
44,4,488,6,6,10,['d'],Y,['d'],Y,None,N,,,,,,,F,20,
44,5,489,1,1,10,['d'],N,['k'],Y,None,N,,,,,,,F,20,
44,6,490,2,2,10,['d'],Y,['d'],N,['k'],N,,,,,,,F,20,
44,7,491,9,9,10,['k'],N,['d'],N,None,Y,,,,,,,F,20,
44,8,492,0,0,10,['d'],Y,['d'],Y,None,N,,,,,,,F,20,
44,9,493,6,6,10,['k'],Y,['k'],Y,None,N,,,,,,,F,20,
44,10,494,5,5,10,['k'],Y,['k'],Y,None,N,,,,,,,F,20,
45,0,495,1,1,10,['d'],N,['k'],Y,None,N,,,,,,,F,20,
45,1,496,2,2,10,['k'],N,['d'],N,None,Y,,,,,,,F,20,
45,2,497,1,1,10,['k'],Y,['k'],Y,['d'],N,,,,,,,F,20,
45,3,498,9,9,10,['d'],N,['k'],N,['k'],N,,,,,,,F,20,
45,4,499,1,1,10,['k'],N,['d'],Y,None,N,24,26,25,,,,F,20,
45,5,500,7,7,11,['d'],N,['d'],,,,,,,Y,Y,Y,F,20,
45,6,501,1,1,11,['k'],N,['k'],,,,,,,,Y,Y,F,20,
45,7,502,1,1,11,['d'],N,['d'],Y,['space'],Y,,,,,Y,Y,F,20,
45,8,503,2,2,11,['k'],Y,['d'],Y,None,N,,,,,Y,Y,F,20,
45,9,504,3,3,11,['k'],N,['k'],Y,['space'],Y,,,,,Y,Y,F,20,
45,10,505,10,10,11,['d'],Y,['k'],N,None,Y,,,,,Y,Y,F,20,
46,0,506,10,10,11,['d'],Y,['k'],Y,['space'],Y,,,,,Y,Y,F,20,
46,1,507,9,9,11,['d'],N,['d'],N,None,Y,,,,,Y,Y,F,20,
46,2,508,5,5,11,['k'],N,['k'],N,None,Y,,,,,Y,Y,F,20,
46,3,509,5,5,11,['d'],Y,['k'],Y,['d'],N,,,,,Y,Y,F,20,
46,4,510,2,2,11,['k'],N,['k'],N,None,Y,,,,,Y,Y,F,20,
46,5,511,2,2,11,['d'],N,['d'],N,['lalt'],N,,,,,Y,Y,F,20,
46,6,512,3,3,11,['d'],Y,['k'],Y,None,N,,,,,Y,Y,F,20,
46,7,513,3,3,11,['k'],N,['k'],Y,None,N,,,,,Y,Y,F,20,
46,8,514,3,3,11,['d'],Y,['k'],N,None,Y,,,,,Y,Y,F,20,
46,9,515,7,7,11,['k'],N,['k'],N,None,Y,,,,,Y,Y,F,20,
46,10,516,8,8,11,['k'],Y,['d'],Y,['d'],N,,,,,Y,Y,F,20,
47,0,517,8,8,11,['d'],Y,['k'],N,None,Y,,,,,Y,Y,F,20,
47,1,518,3,3,11,['d'],Y,['k'],Y,None,N,,,,,Y,Y,F,20,
47,2,519,9,9,11,['k'],N,['k'],Y,None,N,,,,,Y,Y,F,20,
47,3,520,4,4,11,['k'],Y,['d'],Y,None,N,,,,,Y,Y,F,20,
47,4,521,8,8,11,['d'],Y,['k'],Y,['space'],Y,,,,,Y,Y,F,20,
47,5,522,3,3,11,['d'],Y,['k'],N,None,Y,,,,,Y,Y,F,20,
47,6,523,10,10,11,['k'],Y,['d'],N,['space'],N,,,,,Y,Y,F,20,
47,7,524,4,4,11,['d'],N,['d'],N,['space'],N,,,,,Y,Y,F,20,
47,8,525,0,0,11,['k'],Y,['d'],Y,['space'],Y,,,,,Y,Y,F,20,
47,9,526,0,0,11,['d'],Y,['k'],N,['space'],N,,,,,Y,Y,F,20,
47,10,527,7,7,11,['k'],N,['k'],Y,['k'],N,,,,,Y,Y,F,20,
48,0,528,5,5,11,['d'],Y,['k'],Y,None,N,,,,,Y,Y,F,20,
48,1,529,7,7,11,['k'],N,['k'],Y,None,N,,,,,Y,Y,F,20,
48,2,530,5,5,11,['d'],Y,['k'],Y,['d'],N,,,,,Y,Y,F,20,
48,3,531,6,6,11,['d'],N,['d'],N,None,Y,,,,,Y,Y,F,20,
48,4,532,9,9,11,['d'],N,['d'],Y,['space'],Y,,,,,Y,Y,F,20,
48,5,533,8,8,11,['k'],N,['k'],N,['space'],N,,,,,Y,Y,F,20,
48,6,534,7,7,11,['d'],N,['d'],N,['space'],N,,,,,Y,Y,F,20,
48,7,535,1,1,11,['k'],N,['k'],N,['k'],N,,,,,Y,Y,F,20,
48,8,536,0,0,11,['d'],N,['d'],Y,None,N,,,,,Y,Y,F,20,
48,9,537,8,8,11,['k'],Y,['d'],Y,None,N,,,,,Y,Y,F,20,
48,10,538,0,0,11,['d'],N,['d'],N,None,Y,,,,,Y,Y,F,20,
49,0,539,10,10,11,['k'],Y,['d'],N,['k'],N,,,,,Y,Y,F,20,
49,1,540,4,4,11,['d'],N,['d'],N,None,Y,,,,,Y,Y,F,20,
49,2,541,9,9,11,['k'],Y,['d'],Y,None,N,,,,,Y,Y,F,20,
49,3,542,10,10,11,['d'],N,['d'],N,['space'],N,,,,,Y,Y,F,20,
49,4,543,9,9,11,['k'],N,['k'],N,None,Y,,,,,Y,Y,F,20,
49,5,544,2,2,11,['k'],N,['k'],Y,['space'],Y,,,,,Y,Y,F,20,
49,6,545,6,6,11,['d'],Y,['k'],N,None,Y,,,,,Y,Y,F,20,
49,7,546,0,0,11,None,Timed out,,N,None,Y,,,,,Y,Y,F,20,
49,8,547,8,8,11,['d'],Y,['k'],N,['k'],N,,,,,Y,Y,F,20,
49,9,548,3,3,11,['k'],Y,['d'],Y,None,N,,,,,Y,Y,F,20,
49,10,549,8,8,11,['d'],N,['d'],Y,None,N,23,21,24,,Y,Y,F,20,
50,0,550,9,9,12,['k'],Y,['d'],,,,,,,,Y,Y,F,20,
50,1,551,9,9,12,['d'],N,['d'],,,,,,,,Y,Y,F,20,
50,2,552,9,9,12,['d'],N,['d'],N,None,Y,,,,,Y,Y,F,20,
50,3,553,8,8,12,['k'],N,['k'],Y,['space'],Y,,,,,Y,Y,F,20,
50,4,554,8,8,12,['d'],N,['d'],Y,['space'],Y,,,,,Y,Y,F,20,
50,5,555,6,6,12,['k'],N,['k'],N,None,Y,,,,,Y,Y,F,20,
50,6,556,7,7,12,['k'],N,['k'],N,['d'],N,,,,,Y,Y,F,20,
50,7,557,8,8,12,['d'],N,['d'],Y,['space'],Y,,,,,Y,Y,F,20,
50,8,558,9,9,12,['d'],Y,['k'],N,['space'],N,,,,,Y,Y,F,20,
50,9,559,2,2,12,['k'],Y,['d'],N,None,Y,,,,,Y,Y,F,20,
50,10,560,5,5,12,['d'],N,['d'],Y,None,N,,,,,Y,Y,F,20,
51,0,561,2,2,12,['k'],N,['k'],Y,None,N,,,,,Y,Y,F,20,
51,1,562,3,3,12,['k'],Y,['d'],N,['d'],N,,,,,Y,Y,F,20,
51,2,563,9,9,12,['d'],Y,['k'],Y,None,N,,,,,Y,Y,F,20,
51,3,564,9,9,12,['k'],N,['k'],N,None,Y,,,,,Y,Y,F,20,
51,4,565,10,10,12,['d'],N,['d'],Y,None,N,,,,,Y,Y,F,20,
51,5,566,9,9,12,['k'],Y,['d'],Y,None,N,,,,,Y,Y,F,20,
51,6,567,0,0,12,['k'],N,['k'],N,None,Y,,,,,Y,Y,F,20,
51,7,568,4,4,12,['d'],Y,['k'],Y,None,N,,,,,Y,Y,F,20,
51,8,569,5,5,12,None,Timed out,,N,None,Y,,,,,Y,Y,F,20,
51,9,570,6,6,12,['d'],N,['d'],N,None,Y,,,,,Y,Y,F,20,
51,10,571,6,6,12,['k'],N,['k'],Y,None,N,,,,,Y,Y,F,20,
52,0,572,0,0,12,['d'],Y,['k'],Y,None,N,,,,,Y,Y,F,20,
52,1,573,2,2,12,['d'],N,['d'],N,None,Y,,,,,Y,Y,F,20,
52,2,574,10,10,12,['k'],N,['k'],Y,None,N,,,,,Y,Y,F,20,
52,3,575,4,4,12,['k'],N,['k'],N,['d'],N,,,,,Y,Y,F,20,
52,4,576,4,4,12,['d'],Y,['k'],Y,['d'],N,,,,,Y,Y,F,20,
52,5,577,4,4,12,['k'],Y,['d'],Y,['k'],N,,,,,Y,Y,F,20,
52,6,578,8,8,12,['d'],N,['d'],Y,['d'],N,,,,,Y,Y,F,20,
52,7,579,5,5,12,['k'],N,['k'],Y,['k'],N,,,,,Y,Y,F,20,
52,8,580,10,10,12,['d'],N,['d'],Y,['d'],N,,,,,Y,Y,F,20,
52,9,581,10,10,12,['k'],Y,['d'],Y,['space'],Y,,,,,Y,Y,F,20,
52,10,582,3,3,12,['d'],Y,['k'],Y,None,N,,,,,Y,Y,F,20,
53,0,583,9,9,12,None,Timed out,,Y,None,N,,,,,Y,Y,F,20,
53,1,584,0,0,12,['d'],N,['d'],N,None,Y,,,,,Y,Y,F,20,
53,2,585,9,9,12,['d'],N,['d'],Y,['d'],N,,,,,Y,Y,F,20,
53,3,586,2,2,12,['k'],Y,['d'],N,None,Y,,,,,Y,Y,F,20,
53,4,587,1,1,12,['d'],N,['d'],N,None,Y,,,,,Y,Y,F,20,
53,5,588,1,1,12,['k'],Y,['d'],N,None,Y,,,,,Y,Y,F,20,
53,6,589,5,5,12,['d'],Y,['k'],N,None,Y,,,,,Y,Y,F,20,
53,7,590,6,6,12,['k'],Y,['d'],N,None,Y,,,,,Y,Y,F,20,
53,8,591,4,4,12,['d'],Y,['k'],N,['k'],N,,,,,Y,Y,F,20,
53,9,592,2,2,12,['k'],Y,['d'],Y,None,N,,,,,Y,Y,F,20,
53,10,593,3,3,12,['d'],N,['d'],N,None,Y,,,,,Y,Y,F,20,
54,0,594,0,0,12,None,Timed out,,N,None,Y,,,,,Y,Y,F,20,
54,1,595,2,2,12,['d'],N,['d'],Y,None,N,,,,,Y,Y,F,20,
54,2,596,4,4,12,['k'],N,['k'],Y,['k'],N,,,,,Y,Y,F,20,
54,3,597,0,0,12,['d'],Y,['k'],Y,None,N,,,,,Y,Y,F,20,
54,4,598,3,3,12,['k'],N,['k'],N,['space'],N,,,,,Y,Y,F,20,
54,5,599,10,10,12,['d'],Y,['k'],N,None,Y,20,21,25,,Y,Y,F,20,
