.thisRepN,.thisTrialN,.thisN,.thisIndex,.thisTrial,Block Number,Key pressed,Category,Correct?,Int Match?,Int Response,Int Correct?,Line Accuracy,Interference Accuracy,Matching Interferences,New instruction shown?,Buttons switched?,Fast?,gender,age,
0,0,0,10,10,1,['d'],['d'],Y,,,,,,,,,,F,25,
0,1,1,4,4,1,['k'],['k'],Y,,,,,,,,,,F,25,
0,2,2,1,1,1,['d'],['k'],N,N,None,Y,,,,,,,F,25,
0,3,3,8,8,1,['k'],['k'],Y,N,None,Y,,,,,,,F,25,
0,4,4,5,5,1,['d'],['d'],Y,N,None,Y,,,,,,,F,25,
0,5,5,5,5,1,['d'],['d'],Y,Y,['space'],Y,,,,,,,F,25,
0,6,6,1,1,1,['d'],['d'],Y,N,['space'],N,,,,,,,F,25,
0,7,7,8,8,1,['d'],['d'],Y,Y,['space'],Y,,,,,,,F,25,
0,8,8,9,9,1,['d'],['d'],Y,Y,None,N,,,,,,,F,25,
0,9,9,0,0,1,['d'],['d'],Y,Y,['space'],Y,,,,,,,F,25,
0,10,10,3,3,1,['d'],['k'],N,Y,['space'],Y,,,,,,,F,25,
1,0,11,8,8,1,['d'],['d'],Y,N,None,Y,,,,,,,F,25,
1,1,12,6,6,1,['d'],['k'],N,N,None,Y,,,,,,,F,25,
1,2,13,0,0,1,['d'],['d'],Y,N,None,Y,,,,,,,F,25,
1,3,14,4,4,1,['k'],['k'],Y,Y,['space'],Y,,,,,,,F,25,
1,4,15,6,6,1,['d'],['k'],N,Y,None,N,,,,,,,F,25,
1,5,16,2,2,1,['k'],['d'],N,N,None,Y,,,,,,,F,25,
1,6,17,4,4,1,['d'],['k'],N,Y,['space'],Y,,,,,,,F,25,
1,7,18,4,4,1,['k'],['d'],N,Y,['space'],Y,,,,,,,F,25,
1,8,19,3,3,1,['d'],['d'],Y,Y,['space'],Y,,,,,,,F,25,
1,9,20,0,0,1,['d'],['k'],N,Y,None,N,,,,,,,F,25,
1,10,21,2,2,1,['d'],['k'],N,N,None,Y,,,,,,,F,25,
2,0,22,9,9,1,['k'],['d'],N,Y,None,N,,,,,,,F,25,
2,1,23,0,0,1,['d'],['k'],N,N,None,Y,,,,,,,F,25,
2,2,24,0,0,1,['d'],['k'],N,Y,['space'],Y,,,,,,,F,25,
2,3,25,6,6,1,['d'],['d'],Y,N,None,Y,,,,,,,F,25,
2,4,26,2,2,1,['k'],['d'],N,N,None,Y,,,,,,,F,25,
2,5,27,4,4,1,['k'],['k'],Y,Y,['space'],Y,,,,,,,F,25,
2,6,28,10,10,1,['k'],['d'],N,Y,['space'],Y,,,,,,,F,25,
2,7,29,4,4,1,['k'],['d'],N,N,None,Y,,,,,,,F,25,
2,8,30,3,3,1,['d'],['k'],N,Y,['space'],Y,,,,,,,F,25,
2,9,31,4,4,1,['k'],['k'],Y,Y,None,N,,,,,,,F,25,
2,10,32,6,6,1,['k'],['k'],Y,N,None,Y,,,,,,,F,25,
3,0,33,1,1,1,['d'],['k'],N,Y,['space'],Y,,,,,,,F,25,
3,1,34,9,9,1,['d'],['d'],Y,N,None,Y,,,,,,,F,25,
3,2,35,1,1,1,['k'],['d'],N,Y,None,N,,,,,,,F,25,
3,3,36,4,4,1,['k'],['d'],N,N,['space'],N,,,,,,,F,25,
3,4,37,7,7,1,['k'],['d'],N,Y,['space'],Y,,,,,,,F,25,
3,5,38,5,5,1,['k'],['k'],Y,Y,['space'],Y,,,,,,,F,25,
3,6,39,10,10,1,['d'],['k'],N,Y,['space'],Y,,,,,,,F,25,
3,7,40,7,7,1,['k'],['d'],N,N,None,Y,,,,,,,F,25,
3,8,41,6,6,1,['d'],['d'],Y,N,None,Y,,,,,,,F,25,
3,9,42,3,3,1,['d'],['d'],Y,N,None,Y,,,,,,,F,25,
3,10,43,3,3,1,['d'],['k'],N,Y,['space'],Y,,,,,,,F,25,
4,0,44,6,6,1,['d'],['k'],N,Y,['space'],Y,,,,,,,F,25,
4,1,45,6,6,1,['k'],['d'],N,N,None,Y,,,,,,,F,25,
4,2,46,4,4,1,['d'],['d'],Y,N,None,Y,,,,,,,F,25,
4,3,47,0,0,1,['k'],['d'],N,N,None,Y,,,,,,,F,25,
4,4,48,5,5,1,['d'],['d'],Y,N,['space'],N,,,,,,,F,25,
4,5,49,5,5,1,['k'],['k'],Y,Y,['space'],Y,24,39,25,,,,F,25,
4,6,50,8,8,2,['d'],['k'],N,,,,,,,,,,F,25,
4,7,51,6,6,2,['k'],['d'],N,,,,,,,,,,F,25,
4,8,52,8,8,2,['d'],['d'],Y,Y,['d'],N,,,,,,,F,25,
4,9,53,4,4,2,['k'],['k'],Y,Y,['space'],Y,,,,,,,F,25,
4,10,54,9,9,2,['k'],['k'],Y,N,None,Y,,,,,,,F,25,
5,0,55,5,5,2,['d'],['k'],N,N,None,Y,,,,,,,F,25,
5,1,56,8,8,2,['k'],['k'],Y,N,None,Y,,,,,,,F,25,
5,2,57,7,7,2,['d'],['k'],N,N,None,Y,,,,,,,F,25,
5,3,58,1,1,2,['k'],['d'],N,Y,None,N,,,,,,,F,25,
5,4,59,4,4,2,['d'],['d'],Y,Y,['space'],Y,,,,,,,F,25,
5,5,60,4,4,2,['k'],['d'],N,N,None,Y,,,,,,,F,25,
5,6,61,10,10,2,['d'],['d'],Y,Y,['space'],Y,,,,,,,F,25,
5,7,62,8,8,2,['d'],['d'],Y,Y,['space'],Y,,,,,,,F,25,
5,8,63,9,9,2,['d'],['k'],N,N,None,Y,,,,,,,F,25,
5,9,64,5,5,2,['k'],['d'],N,N,None,Y,,,,,,,F,25,
5,10,65,8,8,2,['d'],['k'],N,N,['space'],N,,,,,,,F,25,
6,0,66,8,8,2,['k'],['d'],N,N,None,Y,,,,,,,F,25,
6,1,67,1,1,2,['d'],['k'],N,N,None,Y,,,,,,,F,25,
6,2,68,8,8,2,['k'],['k'],Y,N,None,Y,,,,,,,F,25,
6,3,69,9,9,2,['k'],['d'],N,N,None,Y,,,,,,,F,25,
6,4,70,8,8,2,['d'],['k'],N,N,None,Y,,,,,,,F,25,
6,5,71,0,0,2,['k'],['d'],N,Y,['space'],Y,,,,,,,F,25,
6,6,72,1,1,2,['k'],['d'],N,N,None,Y,,,,,,,F,25,
6,7,73,5,5,2,['k'],['k'],Y,Y,['space'],Y,,,,,,,F,25,
6,8,74,5,5,2,['k'],['d'],N,Y,['space'],Y,,,,,,,F,25,
6,9,75,10,10,2,['k'],['k'],Y,Y,['space'],Y,,,,,,,F,25,
6,10,76,8,8,2,['d'],['d'],Y,N,None,Y,,,,,,,F,25,
7,0,77,2,2,2,['k'],['d'],N,N,None,Y,,,,,,,F,25,
7,1,78,7,7,2,['k'],['d'],N,Y,None,N,,,,,,,F,25,
7,2,79,10,10,2,['d'],['k'],N,Y,['space'],Y,,,,,,,F,25,
7,3,80,2,2,2,['k'],['k'],Y,N,['space'],N,,,,,,,F,25,
7,4,81,3,3,2,['k'],['k'],Y,N,['space'],N,,,,,,,F,25,
7,5,82,8,8,2,['k'],['k'],Y,Y,None,N,,,,,,,F,25,
7,6,83,10,10,2,['k'],['k'],Y,N,None,Y,,,,,,,F,25,
7,7,84,0,0,2,['d'],['k'],N,Y,['space'],Y,,,,,,,F,25,
7,8,85,7,7,2,['d'],['k'],N,Y,['space'],Y,,,,,,,F,25,
7,9,86,7,7,2,['k'],['d'],N,N,None,Y,,,,,,,F,25,
7,10,87,3,3,2,['d'],['d'],Y,Y,['space'],Y,,,,,,,F,25,
8,0,88,8,8,2,['k'],['d'],N,N,None,Y,,,,,,,F,25,
8,1,89,5,5,2,['k'],['d'],N,N,None,Y,,,,,,,F,25,
8,2,90,5,5,2,['k'],['d'],N,N,None,Y,,,,,,,F,25,
8,3,91,6,6,2,['d'],['d'],Y,Y,['space'],Y,,,,,,,F,25,
8,4,92,10,10,2,['d'],['d'],Y,Y,['space'],Y,,,,,,,F,25,
8,5,93,3,3,2,['d'],['k'],N,Y,['space'],Y,,,,,,,F,25,
8,6,94,1,1,2,['k'],['d'],N,N,None,Y,,,,,,,F,25,
8,7,95,0,0,2,['k'],['k'],Y,Y,['space'],Y,,,,,,,F,25,
8,8,96,9,9,2,['d'],['d'],Y,N,None,Y,,,,,,,F,25,
8,9,97,0,0,2,['d'],['k'],N,N,None,Y,,,,,,,F,25,
8,10,98,7,7,2,['d'],['k'],N,N,None,Y,,,,,,,F,25,
9,0,99,9,9,2,['k'],['d'],N,N,None,Y,20,41,20,,,,F,25,
9,1,100,3,3,3,['k'],['k'],Y,,,,,,,,,,F,25,
9,2,101,1,1,3,['d'],['d'],Y,,,,,,,,,,F,25,
9,3,102,8,8,3,['k'],['k'],Y,Y,['space'],Y,,,,,,,F,25,
9,4,103,0,0,3,['d'],['k'],N,N,None,Y,,,,,,,F,25,
9,5,104,3,3,3,['k'],['d'],N,N,None,Y,,,,,,,F,25,
9,6,105,5,5,3,['d'],['k'],N,Y,['space'],Y,,,,,,,F,25,
9,7,106,7,7,3,['d'],['d'],Y,N,None,Y,,,,,,,F,25,
9,8,107,5,5,3,['k'],['d'],N,N,None,Y,,,,,,,F,25,
9,9,108,7,7,3,['k'],['d'],N,N,None,Y,,,,,,,F,25,
9,10,109,7,7,3,['d'],['k'],N,N,None,Y,,,,,,,F,25,
10,0,110,2,2,3,['d'],['k'],N,Y,['space'],Y,,,,,,,F,25,
10,1,111,6,6,3,['k'],['k'],Y,N,None,Y,,,,,,,F,25,
10,2,112,2,2,3,['k'],['k'],Y,N,None,Y,,,,,,,F,25,
10,3,113,7,7,3,['k'],['k'],Y,Y,None,N,,,,,,,F,25,
10,4,114,4,4,3,['k'],['d'],N,Y,None,N,,,,,,,F,25,
10,5,115,0,0,3,['k'],['d'],N,Y,None,N,,,,,,,F,25,
10,6,116,3,3,3,['k'],['k'],Y,N,['d'],N,,,,,,,F,25,
10,7,117,9,9,3,['k'],['k'],Y,N,None,Y,,,,,,,F,25,
10,8,118,5,5,3,['k'],['k'],Y,Y,None,N,,,,,,,F,25,
10,9,119,2,2,3,['d'],['d'],Y,Y,['space'],Y,,,,,,,F,25,
10,10,120,2,2,3,['d'],['d'],Y,Y,None,N,,,,,,,F,25,
11,0,121,1,1,3,['k'],['k'],Y,N,None,Y,,,,,,,F,25,
11,1,122,3,3,3,['d'],['d'],Y,N,None,Y,,,,,,,F,25,
11,2,123,3,3,3,['k'],['d'],N,N,None,Y,,,,,,,F,25,
11,3,124,2,2,3,['d'],['d'],Y,N,None,Y,,,,,,,F,25,
11,4,125,2,2,3,['d'],['d'],Y,Y,None,N,,,,,,,F,25,
11,5,126,1,1,3,['k'],['k'],Y,Y,['space'],Y,,,,,,,F,25,
11,6,127,6,6,3,['d'],['d'],Y,N,None,Y,,,,,,,F,25,
11,7,128,0,0,3,['d'],['d'],Y,Y,['space'],Y,,,,,,,F,25,
11,8,129,5,5,3,['k'],['k'],Y,Y,['space'],Y,,,,,,,F,25,
11,9,130,8,8,3,['d'],['d'],Y,Y,['space'],Y,,,,,,,F,25,
11,10,131,2,2,3,['d'],['d'],Y,Y,['space'],Y,,,,,,,F,25,
12,0,132,1,1,3,['k'],['k'],Y,Y,['space'],Y,,,,,,,F,25,
12,1,133,2,2,3,['d'],['d'],Y,Y,['space'],Y,,,,,,,F,25,
12,2,134,7,7,3,['k'],['k'],Y,N,None,Y,,,,,,,F,25,
12,3,135,9,9,3,['d'],['d'],Y,N,None,Y,,,,,,,F,25,
12,4,136,9,9,3,['k'],['k'],Y,N,['space'],N,,,,,,,F,25,
12,5,137,7,7,3,['d'],['d'],Y,Y,['space'],Y,,,,,,,F,25,
12,6,138,9,9,3,['d'],['d'],Y,N,None,Y,,,,,,,F,25,
12,7,139,8,8,3,['k'],['k'],Y,N,None,Y,,,,,,,F,25,
12,8,140,8,8,3,['k'],['k'],Y,N,['space'],N,,,,,,,F,25,
12,9,141,9,9,3,['k'],['k'],Y,Y,['space'],Y,,,,,,,F,25,
12,10,142,5,5,3,['k'],['k'],Y,Y,['space'],Y,,,,,,,F,25,
13,0,143,7,7,3,['d'],['d'],Y,Y,['space'],Y,,,,,,,F,25,
13,1,144,5,5,3,['k'],['k'],Y,N,None,Y,,,,,,,F,25,
13,2,145,2,2,3,['d'],['d'],Y,N,None,Y,,,,,,,F,25,
13,3,146,6,6,3,['d'],['d'],Y,Y,['space'],Y,,,,,,,F,25,
13,4,147,2,2,3,['d'],['d'],Y,Y,None,N,,,,,,,F,25,
13,5,148,0,0,3,['d'],['d'],Y,N,None,Y,,,,,,,F,25,
13,6,149,5,5,3,['k'],['k'],Y,N,None,Y,40,38,23,,,,F,25,
13,7,150,4,4,4,['k'],['k'],Y,,,,,,,,,,F,25,
13,8,151,6,6,4,['k'],['k'],Y,,,,,,,,,,F,25,
13,9,152,6,6,4,['d'],['d'],Y,Y,['space'],Y,,,,,,,F,25,
13,10,153,2,2,4,['k'],['k'],Y,Y,['space'],Y,,,,,,,F,25,
14,0,154,0,0,4,['d'],['d'],Y,Y,['space'],Y,,,,,,,F,25,
14,1,155,9,9,4,['k'],['k'],Y,Y,['space'],Y,,,,,,,F,25,
14,2,156,0,0,4,['k'],['k'],Y,N,None,Y,,,,,,,F,25,
14,3,157,2,2,4,['k'],['k'],Y,Y,['space'],Y,,,,,,,F,25,
14,4,158,0,0,4,['d'],['d'],Y,Y,['space'],Y,,,,,,,F,25,
14,5,159,2,2,4,['d'],['d'],Y,N,None,Y,,,,,,,F,25,
14,6,160,8,8,4,['d'],['d'],Y,Y,['space'],Y,,,,,,,F,25,
14,7,161,10,10,4,['k'],['d'],N,Y,['space'],Y,,,,,,,F,25,
14,8,162,0,0,4,['d'],['d'],Y,N,None,Y,,,,,,,F,25,
14,9,163,10,10,4,['k'],['k'],Y,Y,['space'],Y,,,,,,,F,25,
14,10,164,10,10,4,['d'],['d'],Y,N,None,Y,,,,,,,F,25,
15,0,165,4,4,4,['d'],['d'],Y,Y,None,N,,,,,,,F,25,
15,1,166,6,6,4,['k'],['k'],Y,N,None,Y,,,,,,,F,25,
15,2,167,9,9,4,['d'],['d'],Y,Y,['space'],Y,,,,,,,F,25,
15,3,168,7,7,4,['k'],['k'],Y,Y,['space'],Y,,,,,,,F,25,
15,4,169,8,8,4,['k'],['k'],Y,N,None,Y,,,,,,,F,25,
15,5,170,0,0,4,['d'],['d'],Y,N,None,Y,,,,,,,F,25,
15,6,171,5,5,4,['d'],['d'],Y,N,None,Y,,,,,,,F,25,
15,7,172,4,4,4,['d'],['d'],Y,Y,['space'],Y,,,,,,,F,25,
15,8,173,5,5,4,['d'],['d'],Y,N,None,Y,,,,,,,F,25,
15,9,174,6,6,4,['k'],['d'],N,Y,None,N,,,,,,,F,25,
15,10,175,5,5,4,['k'],['d'],N,Y,['space'],Y,,,,,,,F,25,
16,0,176,1,1,4,['d'],['d'],Y,N,['space'],N,,,,,,,F,25,
16,1,177,0,0,4,['k'],['k'],Y,Y,['space'],Y,,,,,,,F,25,
16,2,178,7,7,4,['k'],['k'],Y,N,None,Y,,,,,,,F,25,
16,3,179,8,8,4,['d'],['d'],Y,Y,['space'],Y,,,,,,,F,25,
16,4,180,5,5,4,['d'],['d'],Y,N,None,Y,,,,,,,F,25,
16,5,181,9,9,4,['d'],['d'],Y,Y,None,N,,,,,,,F,25,
16,6,182,10,10,4,['k'],['k'],Y,N,None,Y,,,,,,,F,25,
16,7,183,7,7,4,['k'],['k'],Y,Y,['space'],Y,,,,,,,F,25,
16,8,184,0,0,4,['k'],['k'],Y,N,None,Y,,,,,,,F,25,
16,9,185,5,5,4,['d'],['d'],Y,N,None,Y,,,,,,,F,25,
16,10,186,4,4,4,['k'],['k'],Y,Y,['space'],Y,,,,,,,F,25,
17,0,187,6,6,4,['k'],['k'],Y,Y,['space'],Y,,,,,,,F,25,
17,1,188,1,1,4,['k'],['k'],Y,N,None,Y,,,,,,,F,25,
17,2,189,1,1,4,['d'],['d'],Y,Y,['space'],Y,,,,,,,F,25,
17,3,190,9,9,4,['k'],['k'],Y,N,None,Y,,,,,,,F,25,
17,4,191,9,9,4,['d'],['d'],Y,Y,['space'],Y,,,,,,,F,25,
17,5,192,10,10,4,['k'],['k'],Y,Y,['space'],Y,,,,,,,F,25,
17,6,193,3,3,4,['k'],['k'],Y,N,None,Y,,,,,,,F,25,
17,7,194,1,1,4,['d'],['d'],Y,Y,None,N,,,,,,,F,25,
17,8,195,10,10,4,['d'],['d'],Y,N,None,Y,,,,,,,F,25,
17,9,196,5,5,4,['k'],['k'],Y,N,None,Y,,,,,,,F,25,
17,10,197,2,2,4,['d'],['d'],Y,N,None,Y,,,,,,,F,25,
18,0,198,6,6,4,['k'],['k'],Y,N,None,Y,,,,,,,F,25,
18,1,199,4,4,4,['d'],['d'],Y,N,None,Y,47,43,25,,,,F,25,
18,2,200,3,3,5,['d'],['d'],Y,,,,,,,,,,F,25,
18,3,201,1,1,5,['k'],['d'],N,,,,,,,,,,F,25,
18,4,202,2,2,5,['k'],['k'],Y,Y,['space'],Y,,,,,,,F,25,
18,5,203,4,4,5,['k'],['d'],N,Y,['space'],Y,,,,,,,F,25,
18,6,204,7,7,5,['d'],['d'],Y,Y,['space'],Y,,,,,,,F,25,
18,7,205,9,9,5,['k'],['k'],Y,Y,['space'],Y,,,,,,,F,25,
18,8,206,7,7,5,['d'],['d'],Y,N,None,Y,,,,,,,F,25,
18,9,207,7,7,5,['k'],['k'],Y,Y,['space'],Y,,,,,,,F,25,
18,10,208,0,0,5,['d'],['d'],Y,Y,None,N,,,,,,,F,25,
19,0,209,5,5,5,['d'],['d'],Y,N,None,Y,,,,,,,F,25,
19,1,210,8,8,5,['k'],['k'],Y,N,None,Y,,,,,,,F,25,
19,2,211,8,8,5,['d'],['d'],Y,Y,None,N,,,,,,,F,25,
19,3,212,7,7,5,['k'],['k'],Y,N,['space'],N,,,,,,,F,25,
19,4,213,5,5,5,['k'],['k'],Y,Y,['space'],Y,,,,,,,F,25,
19,5,214,10,10,5,['d'],['d'],Y,Y,['space'],Y,,,,,,,F,25,
19,6,215,4,4,5,['d'],['d'],Y,N,None,Y,,,,,,,F,25,
19,7,216,10,10,5,['k'],['d'],N,Y,['space'],Y,,,,,,,F,25,
19,8,217,6,6,5,['d'],['d'],Y,Y,['space'],Y,,,,,,,F,25,
19,9,218,6,6,5,['k'],['k'],Y,N,None,Y,,,,,,,F,25,
19,10,219,3,3,5,['k'],['k'],Y,N,None,Y,,,,,,,F,25,
20,0,220,1,1,5,['k'],['k'],Y,N,None,Y,,,,,,,F,25,
20,1,221,1,1,5,['k'],['k'],Y,N,['space'],N,,,,,,,F,25,
20,2,222,0,0,5,['d'],['d'],Y,Y,['space'],Y,,,,,,,F,25,
20,3,223,1,1,5,['d'],['d'],Y,N,None,Y,,,,,,,F,25,
20,4,224,5,5,5,['k'],['k'],Y,Y,['space'],Y,,,,,,,F,25,
20,5,225,6,6,5,['d'],['d'],Y,Y,['d'],N,,,,,,,F,25,
20,6,226,9,9,5,['d'],['d'],Y,N,None,Y,,,,,,,F,25,
20,7,227,6,6,5,['k'],['k'],Y,N,None,Y,,,,,,,F,25,
20,8,228,4,4,5,['k'],['k'],Y,N,None,Y,,,,,,,F,25,
20,9,229,8,8,5,['k'],['k'],Y,N,None,Y,,,,,,,F,25,
20,10,230,10,10,5,['d'],['d'],Y,N,None,Y,,,,,,,F,25,
21,0,231,5,5,5,['d'],['k'],N,N,None,Y,,,,,,,F,25,
21,1,232,0,0,5,['k'],['k'],Y,N,None,Y,,,,,,,F,25,
21,2,233,0,0,5,['k'],['k'],Y,N,None,Y,,,,,,,F,25,
21,3,234,6,6,5,['d'],['k'],N,N,None,Y,,,,,,,F,25,
21,4,235,4,4,5,['d'],['d'],Y,Y,['space'],Y,,,,,,,F,25,
21,5,236,3,3,5,['k'],['k'],Y,N,['space'],N,,,,,,,F,25,
21,6,237,3,3,5,['k'],['k'],Y,Y,['space'],Y,,,,,,,F,25,
21,7,238,6,6,5,['d'],['k'],N,Y,['space'],Y,,,,,,,F,25,
21,8,239,10,10,5,['k'],['k'],Y,Y,['space'],Y,,,,,,,F,25,
21,9,240,6,6,5,['k'],['k'],Y,Y,['space'],Y,,,,,,,F,25,
21,10,241,9,9,5,['k'],['k'],Y,N,None,Y,,,,,,,F,25,
22,0,242,9,9,5,['k'],['k'],Y,N,['space'],N,,,,,,,F,25,
22,1,243,10,10,5,['d'],['d'],Y,Y,['space'],Y,,,,,,,F,25,
22,2,244,4,4,5,['d'],['d'],Y,Y,['space'],Y,,,,,,,F,25,
22,3,245,9,9,5,['k'],['k'],Y,Y,['space'],Y,,,,,,,F,25,
22,4,246,6,6,5,['d'],['d'],Y,N,None,Y,,,,,,,F,25,
22,5,247,7,7,5,['k'],['k'],Y,Y,['space'],Y,,,,,,,F,25,
22,6,248,6,6,5,['k'],['k'],Y,Y,['space'],Y,,,,,,,F,25,
22,7,249,1,1,5,['k'],['k'],Y,N,None,Y,44,41,24,,,,F,25,
22,8,250,10,10,6,['d'],['d'],Y,,,,,,,,,,F,25,
22,9,251,9,9,6,['d'],['d'],Y,,,,,,,,,,F,25,
22,10,252,1,1,6,['d'],['k'],N,Y,['space'],Y,,,,,,,F,25,
23,0,253,4,4,6,['d'],['d'],Y,Y,['space'],Y,,,,,,,F,25,
23,1,254,3,3,6,['d'],['d'],Y,Y,['space'],Y,,,,,,,F,25,
23,2,255,6,6,6,['k'],['k'],Y,Y,['space'],Y,,,,,,,F,25,
23,3,256,0,0,6,['k'],['k'],Y,Y,['space'],Y,,,,,,,F,25,
23,4,257,5,5,6,['d'],['d'],Y,Y,['space'],Y,,,,,,,F,25,
23,5,258,5,5,6,['k'],['k'],Y,Y,None,N,,,,,,,F,25,
23,6,259,8,8,6,['d'],['d'],Y,N,None,Y,,,,,,,F,25,
23,7,260,10,10,6,['d'],['d'],Y,Y,None,N,,,,,,,F,25,
23,8,261,7,7,6,['d'],['d'],Y,Y,None,N,,,,,,,F,25,
23,9,262,8,8,6,['d'],['d'],Y,N,['space'],N,,,,,,,F,25,
23,10,263,6,6,6,['k'],['d'],N,Y,['space'],Y,,,,,,,F,25,
24,0,264,2,2,6,['d'],['d'],Y,N,None,Y,,,,,,,F,25,
24,1,265,8,8,6,['d'],['d'],Y,Y,['space'],Y,,,,,,,F,25,
24,2,266,8,8,6,['k'],['k'],Y,N,None,Y,,,,,,,F,25,
24,3,267,5,5,6,['d'],['d'],Y,N,None,Y,,,,,,,F,25,
24,4,268,1,1,6,['k'],['k'],Y,N,None,Y,,,,,,,F,25,
24,5,269,3,3,6,['k'],['k'],Y,N,None,Y,,,,,,,F,25,
24,6,270,7,7,6,['d'],['k'],N,N,None,Y,,,,,,,F,25,
24,7,271,8,8,6,['k'],['k'],Y,Y,['space'],Y,,,,,,,F,25,
24,8,272,1,1,6,['d'],['d'],Y,Y,['space'],Y,,,,,,,F,25,
24,9,273,10,10,6,['k'],['k'],Y,Y,['space'],Y,,,,,,,F,25,
24,10,274,7,7,6,['k'],['k'],Y,Y,['space'],Y,,,,,,,F,25,
25,0,275,3,3,6,['k'],['k'],Y,N,None,Y,,,,,,,F,25,
25,1,276,9,9,6,['d'],['d'],Y,Y,['space'],Y,,,,,,,F,25,
25,2,277,1,1,6,['k'],['d'],N,Y,['space'],Y,,,,,,,F,25,
25,3,278,5,5,6,['k'],['k'],Y,Y,['space'],Y,,,,,,,F,25,
25,4,279,6,6,6,['d'],['d'],Y,N,None,Y,,,,,,,F,25,
25,5,280,9,9,6,['d'],['d'],Y,Y,['space'],Y,,,,,,,F,25,
25,6,281,9,9,6,['k'],['k'],Y,Y,None,N,,,,,,,F,25,
25,7,282,3,3,6,['k'],['k'],Y,Y,['space'],Y,,,,,,,F,25,
25,8,283,8,8,6,['d'],['d'],Y,Y,['space'],Y,,,,,,,F,25,
25,9,284,8,8,6,['k'],['k'],Y,N,None,Y,,,,,,,F,25,
25,10,285,8,8,6,['d'],['d'],Y,N,None,Y,,,,,,,F,25,
26,0,286,5,5,6,['d'],['d'],Y,N,['space'],N,,,,,,,F,25,
26,1,287,3,3,6,['d'],['d'],Y,N,None,Y,,,,,,,F,25,
26,2,288,3,3,6,['d'],['d'],Y,N,['space'],N,,,,,,,F,25,
26,3,289,1,1,6,['d'],['d'],Y,Y,['space'],Y,,,,,,,F,25,
26,4,290,5,5,6,['d'],['d'],Y,N,None,Y,,,,,,,F,25,
26,5,291,7,7,6,['d'],['d'],Y,N,None,Y,,,,,,,F,25,
26,6,292,3,3,6,['k'],['k'],Y,N,['space'],N,,,,,,,F,25,
26,7,293,1,1,6,['k'],['k'],Y,N,None,Y,,,,,,,F,25,
26,8,294,6,6,6,['d'],['d'],Y,Y,None,N,,,,,,,F,25,
26,9,295,5,5,6,['k'],['k'],Y,Y,['space'],Y,,,,,,,F,25,
26,10,296,9,9,6,['k'],['k'],Y,N,None,Y,,,,,,,F,25,
27,0,297,10,10,6,['d'],['d'],Y,N,['space'],N,,,,,,,F,25,
27,1,298,10,10,6,['k'],['k'],Y,N,['space'],N,,,,,,,F,25,
27,2,299,0,0,6,['k'],['k'],Y,N,['space'],N,46,36,25,,,,F,25,
27,3,300,1,1,7,['d'],['k'],N,,,,,,,,,,F,25,
27,4,301,0,0,7,['d'],['d'],Y,,,,,,,,,,F,25,
27,5,302,1,1,7,['k'],['k'],Y,N,None,Y,,,,,,,F,25,
27,6,303,5,5,7,['k'],['k'],Y,Y,['space'],Y,,,,,,,F,25,
27,7,304,2,2,7,['k'],['k'],Y,N,None,Y,,,,,,,F,25,
27,8,305,3,3,7,['d'],['d'],Y,Y,['space'],Y,,,,,,,F,25,
27,9,306,3,3,7,['k'],['k'],Y,Y,['space'],Y,,,,,,,F,25,
27,10,307,9,9,7,['k'],['d'],N,N,['space'],N,,,,,,,F,25,
28,0,308,2,2,7,['k'],['k'],Y,Y,['space'],Y,,,,,,,F,25,
28,1,309,8,8,7,['k'],['k'],Y,Y,None,N,,,,,,,F,25,
28,2,310,1,1,7,['k'],['k'],Y,N,None,Y,,,,,,,F,25,
28,3,311,5,5,7,['d'],['d'],Y,N,None,Y,,,,,,,F,25,
28,4,312,0,0,7,['k'],['k'],Y,N,None,Y,,,,,,,F,25,
28,5,313,7,7,7,['k'],['k'],Y,Y,['space'],Y,,,,,,,F,25,
28,6,314,3,3,7,['d'],['d'],Y,N,['space'],N,,,,,,,F,25,
28,7,315,8,8,7,['k'],['k'],Y,Y,['space'],Y,,,,,,,F,25,
28,8,316,6,6,7,['k'],['k'],Y,Y,['space'],Y,,,,,,,F,25,
28,9,317,3,3,7,['d'],['d'],Y,Y,None,N,,,,,,,F,25,
28,10,318,3,3,7,['k'],['k'],Y,N,['space'],N,,,,,,,F,25,
29,0,319,7,7,7,['k'],['k'],Y,Y,['space'],Y,,,,,,,F,25,
29,1,320,6,6,7,None,,Timed out,N,None,Y,,,,,,,F,25,
29,2,321,2,2,7,['d'],['d'],Y,Y,None,N,,,,,,,F,25,
29,3,322,9,9,7,['k'],['k'],Y,Y,['space'],Y,,,,,,,F,25,
29,4,323,8,8,7,['d'],['d'],Y,Y,['space'],Y,,,,,,,F,25,
29,5,324,2,2,7,['k'],['k'],Y,Y,None,N,,,,,,,F,25,
29,6,325,0,0,7,['d'],['d'],Y,Y,None,N,,,,,,,F,25,
29,7,326,9,9,7,['k'],['d'],N,N,None,Y,,,,,,,F,25,
29,8,327,2,2,7,['k'],['k'],Y,Y,None,N,,,,,,,F,25,
29,9,328,10,10,7,['k'],['k'],Y,Y,None,N,,,,,,,F,25,
29,10,329,3,3,7,['d'],['d'],Y,Y,['space'],Y,,,,,,,F,25,
30,0,330,10,10,7,['k'],['k'],Y,Y,['space'],Y,,,,,,,F,25,
30,1,331,3,3,7,['d'],['k'],N,Y,['space'],Y,,,,,,,F,25,
30,2,332,0,0,7,['d'],['d'],Y,Y,['space'],Y,,,,,,,F,25,
30,3,333,1,1,7,['k'],['d'],N,Y,['space'],Y,,,,,,,F,25,
30,4,334,6,6,7,['d'],['d'],Y,Y,['space'],Y,,,,,,,F,25,
30,5,335,2,2,7,['d'],['d'],Y,N,None,Y,,,,,,,F,25,
30,6,336,4,4,7,['k'],['k'],Y,Y,['space'],Y,,,,,,,F,25,
30,7,337,10,10,7,['k'],['k'],Y,N,None,Y,,,,,,,F,25,
30,8,338,4,4,7,['d'],['d'],Y,Y,['space'],Y,,,,,,,F,25,
30,9,339,10,10,7,['k'],['k'],Y,N,None,Y,,,,,,,F,25,
30,10,340,9,9,7,['d'],['d'],Y,N,None,Y,,,,,,,F,25,
31,0,341,7,7,7,['k'],['d'],N,N,None,Y,,,,,,,F,25,
31,1,342,0,0,7,['d'],['d'],Y,N,None,Y,,,,,,,F,25,
31,2,343,10,10,7,['d'],['d'],Y,N,['k'],N,,,,,,,F,25,
31,3,344,7,7,7,['k'],['d'],N,N,None,Y,,,,,,,F,25,
31,4,345,10,10,7,['d'],['k'],N,N,None,Y,,,,,,,F,25,
31,5,346,1,1,7,['k'],['k'],Y,N,None,Y,,,,,,,F,25,
31,6,347,5,5,7,['k'],['k'],Y,N,['space'],N,,,,,,,F,25,
31,7,348,10,10,7,['d'],['d'],Y,N,None,Y,,,,,,,F,25,
31,8,349,6,6,7,['d'],['d'],Y,N,['space'],N,41,35,25,,,,F,25,
31,9,350,1,1,8,['d'],['d'],Y,,,,,,,,,,F,25,
31,10,351,10,10,8,['k'],['d'],N,,,,,,,,,,F,25,
32,0,352,9,9,8,['d'],['k'],N,N,None,Y,,,,,,,F,25,
32,1,353,0,0,8,['d'],['d'],Y,N,None,Y,,,,,,,F,25,
32,2,354,4,4,8,['d'],['d'],Y,N,None,Y,,,,,,,F,25,
32,3,355,7,7,8,['d'],['d'],Y,Y,None,N,,,,,,,F,25,
32,4,356,7,7,8,['k'],['k'],Y,Y,['space'],Y,,,,,,,F,25,
32,5,357,10,10,8,['d'],['d'],Y,Y,['space'],Y,,,,,,,F,25,
32,6,358,5,5,8,['k'],['k'],Y,N,['space'],N,,,,,,,F,25,
32,7,359,9,9,8,['d'],['d'],Y,N,None,Y,,,,,,,F,25,
32,8,360,6,6,8,['k'],['k'],Y,Y,['space'],Y,,,,,,,F,25,
32,9,361,1,1,8,['d'],['d'],Y,Y,['space'],Y,,,,,,,F,25,
32,10,362,2,2,8,['k'],['k'],Y,N,['space'],N,,,,,,,F,25,
33,0,363,3,3,8,['d'],['d'],Y,N,None,Y,,,,,,,F,25,
33,1,364,2,2,8,['k'],['k'],Y,N,None,Y,,,,,,,F,25,
33,2,365,3,3,8,['k'],['k'],Y,N,None,Y,,,,,,,F,25,
33,3,366,8,8,8,['d'],['d'],Y,Y,None,N,,,,,,,F,25,
33,4,367,4,4,8,['k'],['k'],Y,Y,None,N,,,,,,,F,25,
33,5,368,0,0,8,['d'],['d'],Y,N,None,Y,,,,,,,F,25,
33,6,369,1,1,8,['k'],['k'],Y,Y,['space'],Y,,,,,,,F,25,
33,7,370,7,7,8,['d'],['d'],Y,N,None,Y,,,,,,,F,25,
33,8,371,4,4,8,['d'],['d'],Y,Y,['space'],Y,,,,,,,F,25,
33,9,372,8,8,8,['k'],['k'],Y,N,None,Y,,,,,,,F,25,
33,10,373,3,3,8,['k'],['k'],Y,N,['space'],N,,,,,,,F,25,
34,0,374,4,4,8,['d'],['d'],Y,Y,['k'],N,,,,,,,F,25,
34,1,375,7,7,8,['k'],['k'],Y,Y,['k'],N,,,,,,,F,25,
34,2,376,4,4,8,['d'],['d'],Y,N,['space'],N,,,,,,,F,25,
34,3,377,0,0,8,['d'],['d'],Y,Y,['k'],N,,,,,,,F,25,
34,4,378,8,8,8,['d'],['k'],N,N,None,Y,,,,,,,F,25,
34,5,379,4,4,8,['d'],['d'],Y,Y,['space'],Y,,,,,,,F,25,
34,6,380,2,2,8,['k'],['k'],Y,Y,None,N,,,,,,,F,25,
34,7,381,0,0,8,['d'],['d'],Y,N,None,Y,,,,,,,F,25,
34,8,382,7,7,8,['k'],['k'],Y,N,['space'],N,,,,,,,F,25,
34,9,383,3,3,8,['k'],['k'],Y,Y,['space'],Y,,,,,,,F,25,
34,10,384,4,4,8,['k'],['k'],Y,Y,None,N,,,,,,,F,25,
35,0,385,9,9,8,['d'],['d'],Y,N,['space'],N,,,,,,,F,25,
35,1,386,10,10,8,['k'],['k'],Y,Y,['space'],Y,,,,,,,F,25,
35,2,387,1,1,8,['k'],['k'],Y,Y,['space'],Y,,,,,,,F,25,
35,3,388,1,1,8,['d'],['d'],Y,N,None,Y,,,,,,,F,25,
35,4,389,4,4,8,['k'],['k'],Y,N,None,Y,,,,,,,F,25,
35,5,390,10,10,8,['k'],['k'],Y,N,None,Y,,,,,,,F,25,
35,6,391,7,7,8,['k'],['d'],N,N,None,Y,,,,,,,F,25,
35,7,392,1,1,8,['d'],['k'],N,Y,['space'],Y,,,,,,,F,25,
35,8,393,5,5,8,['k'],['k'],Y,N,['space'],N,,,,,,,F,25,
35,9,394,5,5,8,['k'],['d'],N,Y,['space'],Y,,,,,,,F,25,
35,10,395,0,0,8,['k'],['k'],Y,N,['space'],N,,,,,,,F,25,
36,0,396,3,3,8,['k'],['k'],Y,Y,['k'],N,,,,,,,F,25,
36,1,397,9,9,8,['d'],['d'],Y,Y,None,N,,,,,,,F,25,
36,2,398,5,5,8,['k'],['k'],Y,Y,['space'],Y,,,,,,,F,25,
36,3,399,1,1,8,['k'],['k'],Y,N,None,Y,44,30,23,,,,F,25,
36,4,400,2,2,9,['d'],['d'],Y,,,,,,,,,,F,25,
36,5,401,9,9,9,['k'],['k'],Y,,,,,,,,,,F,25,
36,6,402,0,0,9,['d'],['d'],Y,N,None,Y,,,,,,,F,25,
36,7,403,0,0,9,['d'],['d'],Y,Y,['space'],Y,,,,,,,F,25,
36,8,404,8,8,9,['d'],['d'],Y,N,['space'],N,,,,,,,F,25,
36,9,405,10,10,9,['k'],['k'],Y,Y,['space'],Y,,,,,,,F,25,
36,10,406,4,4,9,['d'],['d'],Y,N,None,Y,,,,,,,F,25,
37,0,407,6,6,9,['k'],['k'],Y,N,None,Y,,,,,,,F,25,
37,1,408,4,4,9,['d'],['d'],Y,Y,['space'],Y,,,,,,,F,25,
37,2,409,4,4,9,['k'],['k'],Y,Y,None,N,,,,,,,F,25,
37,3,410,1,1,9,['d'],['d'],Y,N,None,Y,,,,,,,F,25,
37,4,411,8,8,9,['k'],['k'],Y,N,['space'],N,,,,,,,F,25,
37,5,412,8,8,9,['k'],['k'],Y,N,['space'],N,,,,,,,F,25,
37,6,413,0,0,9,['k'],['k'],Y,Y,['d'],N,,,,,,,F,25,
37,7,414,4,4,9,['k'],['k'],Y,N,None,Y,,,,,,,F,25,
37,8,415,2,2,9,['d'],['d'],Y,Y,['space'],Y,,,,,,,F,25,
37,9,416,9,9,9,['k'],['k'],Y,Y,None,N,,,,,,,F,25,
37,10,417,0,0,9,['k'],['k'],Y,N,None,Y,,,,,,,F,25,
38,0,418,9,9,9,['k'],['k'],Y,N,['space'],N,,,,,,,F,25,
38,1,419,9,9,9,['d'],['d'],Y,Y,None,N,,,,,,,F,25,
38,2,420,0,0,9,['d'],['d'],Y,Y,['space'],Y,,,,,,,F,25,
38,3,421,1,1,9,['k'],['k'],Y,Y,None,N,,,,,,,F,25,
38,4,422,4,4,9,['d'],['d'],Y,N,['space'],N,,,,,,,F,25,
38,5,423,2,2,9,['d'],['d'],Y,N,['space'],N,,,,,,,F,25,
38,6,424,2,2,9,['k'],['d'],N,Y,['space'],Y,,,,,,,F,25,
38,7,425,5,5,9,['d'],['d'],Y,Y,['space'],Y,,,,,,,F,25,
38,8,426,0,0,9,['d'],['d'],Y,Y,None,N,,,,,,,F,25,
38,9,427,5,5,9,['k'],['k'],Y,Y,None,N,,,,,,,F,25,
38,10,428,2,2,9,['k'],['k'],Y,N,['space'],N,,,,,,,F,25,
39,0,429,3,3,9,['d'],['d'],Y,N,['d'],N,,,,,,,F,25,
39,1,430,2,2,9,['k'],['k'],Y,N,None,Y,,,,,,,F,25,
39,2,431,9,9,9,['k'],['k'],Y,N,None,Y,,,,,,,F,25,
39,3,432,10,10,9,['d'],['d'],Y,Y,None,N,,,,,,,F,25,
39,4,433,8,8,9,['k'],['k'],Y,Y,None,N,,,,,,,F,25,
39,5,434,6,6,9,['d'],['d'],Y,Y,None,N,,,,,,,F,25,
39,6,435,9,9,9,['k'],['d'],N,Y,None,N,,,,,,,F,25,
39,7,436,0,0,9,['d'],['d'],Y,N,['space'],N,,,,,,,F,25,
39,8,437,8,8,9,['k'],['k'],Y,Y,['space'],Y,,,,,,,F,25,
39,9,438,2,2,9,['k'],['k'],Y,Y,['space'],Y,,,,,,,F,25,
39,10,439,3,3,9,['k'],['k'],Y,N,['space'],N,,,,,,,F,25,
40,0,440,10,10,9,['d'],['d'],Y,N,None,Y,,,,,,,F,25,
40,1,441,1,1,9,['d'],['d'],Y,N,None,Y,,,,,,,F,25,
40,2,442,2,2,9,['k'],['k'],Y,Y,None,N,,,,,,,F,25,
40,3,443,4,4,9,['k'],['k'],Y,Y,['space'],Y,,,,,,,F,25,
40,4,444,2,2,9,['k'],['k'],Y,Y,['space'],Y,,,,,,,F,25,
40,5,445,9,9,9,['d'],['d'],Y,Y,['space'],Y,,,,,,,F,25,
40,6,446,0,0,9,['d'],['d'],Y,N,None,Y,,,,,,,F,25,
40,7,447,6,6,9,['k'],['k'],Y,Y,['space'],Y,,,,,,,F,25,
40,8,448,0,0,9,['k'],['k'],Y,N,['space'],N,,,,,,,F,25,
40,9,449,1,1,9,['k'],['k'],Y,N,None,Y,48,25,25,,,,F,25,
40,10,450,4,4,10,['k'],['k'],Y,,,,,,,,,,F,25,
41,0,451,3,3,10,['k'],['d'],N,,,,,,,,,,F,25,
41,1,452,1,1,10,['d'],['d'],Y,Y,None,N,,,,,,,F,25,
41,2,453,4,4,10,['d'],['d'],Y,Y,None,N,,,,,,,F,25,
41,3,454,3,3,10,['k'],['k'],Y,N,['k'],N,,,,,,,F,25,
41,4,455,10,10,10,['k'],['k'],Y,Y,None,N,,,,,,,F,25,
41,5,456,2,2,10,['d'],['d'],Y,Y,['k'],N,,,,,,,F,25,
41,6,457,1,1,10,['d'],['d'],Y,N,['k'],N,,,,,,,F,25,
41,7,458,6,6,10,['k'],['k'],Y,N,None,Y,,,,,,,F,25,
41,8,459,4,4,10,['d'],['d'],Y,Y,None,N,,,,,,,F,25,
41,9,460,9,9,10,['d'],['d'],Y,N,None,Y,,,,,,,F,25,
41,10,461,8,8,10,['k'],['k'],Y,Y,None,N,,,,,,,F,25,
42,0,462,2,2,10,['k'],['k'],Y,N,None,Y,,,,,,,F,25,
42,1,463,10,10,10,['k'],['k'],Y,Y,['d'],N,,,,,,,F,25,
42,2,464,3,3,10,['k'],['k'],Y,Y,['d'],N,,,,,,,F,25,
42,3,465,7,7,10,['k'],['k'],Y,N,['d'],N,,,,,,,F,25,
42,4,466,7,7,10,['k'],['k'],Y,N,['space'],N,,,,,,,F,25,
42,5,467,7,7,10,['k'],['k'],Y,Y,['space'],Y,,,,,,,F,25,
42,6,468,3,3,10,['k'],['k'],Y,N,None,Y,,,,,,,F,25,
42,7,469,2,2,10,['d'],['d'],Y,Y,['space'],Y,,,,,,,F,25,
42,8,470,9,9,10,['k'],['k'],Y,N,['space'],N,,,,,,,F,25,
42,9,471,7,7,10,['d'],['d'],Y,Y,None,N,,,,,,,F,25,
42,10,472,7,7,10,['k'],['k'],Y,N,None,Y,,,,,,,F,25,
43,0,473,10,10,10,['k'],['k'],Y,Y,None,N,,,,,,,F,25,
43,1,474,8,8,10,['d'],['d'],Y,N,None,Y,,,,,,,F,25,
43,2,475,9,9,10,['d'],['d'],Y,N,None,Y,,,,,,,F,25,
43,3,476,10,10,10,['d'],['d'],Y,Y,['k'],N,,,,,,,F,25,
43,4,477,3,3,10,['k'],['k'],Y,N,['d'],N,,,,,,,F,25,
43,5,478,6,6,10,['k'],['k'],Y,N,None,Y,,,,,,,F,25,
43,6,479,8,8,10,['d'],['d'],Y,Y,None,N,,,,,,,F,25,
43,7,480,10,10,10,['k'],['d'],N,N,['space'],N,,,,,,,F,25,
43,8,481,9,9,10,['k'],['k'],Y,Y,['k'],N,,,,,,,F,25,
43,9,482,5,5,10,['d'],['d'],Y,N,['space'],N,,,,,,,F,25,
43,10,483,4,4,10,['k'],['d'],N,Y,['space'],Y,,,,,,,F,25,
44,0,484,7,7,10,['d'],['d'],Y,N,['d'],N,,,,,,,F,25,
44,1,485,3,3,10,['d'],['d'],Y,Y,['space'],Y,,,,,,,F,25,
44,2,486,9,9,10,['k'],['d'],N,N,['space'],N,,,,,,,F,25,
44,3,487,2,2,10,['d'],['d'],Y,N,['space'],N,,,,,,,F,25,
44,4,488,9,9,10,['k'],['d'],N,Y,['space'],Y,,,,,,,F,25,
44,5,489,6,6,10,['k'],['d'],N,N,['space'],N,,,,,,,F,25,
44,6,490,1,1,10,['k'],['k'],Y,Y,['space'],Y,,,,,,,F,25,
44,7,491,1,1,10,['k'],['k'],Y,Y,['space'],Y,,,,,,,F,25,
44,8,492,0,0,10,['k'],['k'],Y,N,['space'],N,,,,,,,F,25,
44,9,493,5,5,10,['k'],['k'],Y,N,['space'],N,,,,,,,F,25,
44,10,494,7,7,10,['d'],['k'],N,N,None,Y,,,,,,,F,25,
45,0,495,2,2,10,['d'],['d'],Y,N,None,Y,,,,,,,F,25,
45,1,496,8,8,10,['d'],['d'],Y,N,None,Y,,,,,,,F,25,
45,2,497,9,9,10,['k'],['k'],Y,N,None,Y,,,,,,,F,25,
45,3,498,1,1,10,['d'],['d'],Y,N,None,Y,,,,,,,F,25,
45,4,499,0,0,10,['k'],['k'],Y,Y,None,N,43,20,21,,,,F,25,
45,5,500,1,1,11,['d'],['k'],Y,,,,,,,Y,Y,Y,F,25,
45,6,501,9,9,11,['k'],['k'],N,,,,,,,,Y,Y,F,25,
45,7,502,3,3,11,['d'],['k'],Y,Y,['space'],Y,,,,,Y,Y,F,25,
45,8,503,1,1,11,['k'],['d'],Y,Y,None,N,,,,,Y,Y,F,25,
45,9,504,8,8,11,['k'],['d'],Y,Y,['space'],Y,,,,,Y,Y,F,25,
45,10,505,6,6,11,['k'],['k'],N,Y,['space'],Y,,,,,Y,Y,F,25,
46,0,506,3,3,11,['d'],['k'],Y,N,None,Y,,,,,Y,Y,F,25,
46,1,507,10,10,11,['d'],['d'],N,Y,None,N,,,,,Y,Y,F,25,
46,2,508,10,10,11,['d'],['k'],Y,N,['space'],N,,,,,Y,Y,F,25,
46,3,509,3,3,11,None,,Timed out,N,['space'],N,,,,,Y,Y,F,25,
46,4,510,7,7,11,['d'],['d'],N,N,['space'],N,,,,,Y,Y,F,25,
46,5,511,4,4,11,['k'],['d'],Y,Y,['space'],Y,,,,,Y,Y,F,25,
46,6,512,6,6,11,['d'],['k'],Y,Y,['space'],Y,,,,,Y,Y,F,25,
46,7,513,3,3,11,['k'],['d'],Y,Y,None,N,,,,,Y,Y,F,25,
46,8,514,5,5,11,['d'],['k'],Y,N,['space'],N,,,,,Y,Y,F,25,
46,9,515,2,2,11,['k'],['d'],Y,Y,['space'],Y,,,,,Y,Y,F,25,
46,10,516,3,3,11,['d'],['k'],Y,N,['space'],N,,,,,Y,Y,F,25,
47,0,517,10,10,11,['d'],['k'],Y,Y,['space'],Y,,,,,Y,Y,F,25,
47,1,518,8,8,11,['d'],['k'],Y,N,None,Y,,,,,Y,Y,F,25,
47,2,519,4,4,11,['k'],['d'],Y,Y,['space'],Y,,,,,Y,Y,F,25,
47,3,520,10,10,11,['d'],['k'],Y,Y,['space'],Y,,,,,Y,Y,F,25,
47,4,521,2,2,11,['k'],['d'],Y,N,['space'],N,,,,,Y,Y,F,25,
47,5,522,2,2,11,['k'],['d'],Y,Y,['space'],Y,,,,,Y,Y,F,25,
47,6,523,8,8,11,['d'],['k'],Y,N,['space'],N,,,,,Y,Y,F,25,
47,7,524,10,10,11,['d'],['k'],Y,N,None,Y,,,,,Y,Y,F,25,
47,8,525,7,7,11,['d'],['k'],Y,Y,['space'],Y,,,,,Y,Y,F,25,
47,9,526,5,5,11,['k'],['d'],Y,Y,['space'],Y,,,,,Y,Y,F,25,
47,10,527,2,2,11,['k'],['d'],Y,N,None,Y,,,,,Y,Y,F,25,
48,0,528,6,6,11,['d'],['k'],Y,N,None,Y,,,,,Y,Y,F,25,
48,1,529,6,6,11,['d'],['k'],Y,N,None,Y,,,,,Y,Y,F,25,
48,2,530,3,3,11,['k'],['d'],Y,N,None,Y,,,,,Y,Y,F,25,
48,3,531,0,0,11,['d'],['d'],N,Y,['space'],Y,,,,,Y,Y,F,25,
48,4,532,4,4,11,['k'],['d'],Y,Y,['space'],Y,,,,,Y,Y,F,25,
48,5,533,4,4,11,['d'],['k'],Y,Y,['space'],Y,,,,,Y,Y,F,25,
48,6,534,6,6,11,['k'],['d'],Y,N,None,Y,,,,,Y,Y,F,25,
48,7,535,5,5,11,['k'],['d'],Y,N,None,Y,,,,,Y,Y,F,25,
48,8,536,7,7,11,['d'],['k'],Y,Y,None,N,,,,,Y,Y,F,25,
48,9,537,10,10,11,['k'],['d'],Y,N,None,Y,,,,,Y,Y,F,25,
48,10,538,4,4,11,['d'],['k'],Y,Y,['space'],Y,,,,,Y,Y,F,25,
49,0,539,4,4,11,None,,Timed out,Y,['space'],Y,,,,,Y,Y,F,25,
49,1,540,7,7,11,['k'],['d'],Y,Y,['space'],Y,,,,,Y,Y,F,25,
49,2,541,10,10,11,['k'],['d'],Y,N,None,Y,,,,,Y,Y,F,25,
49,3,542,7,7,11,['d'],['k'],Y,Y,None,N,,,,,Y,Y,F,25,
49,4,543,0,0,11,['d'],['k'],Y,N,['space'],N,,,,,Y,Y,F,25,
49,5,544,7,7,11,['k'],['d'],Y,N,['space'],N,,,,,Y,Y,F,25,
49,6,545,6,6,11,None,,Timed out,N,['space'],N,,,,,Y,Y,F,25,
49,7,546,9,9,11,['d'],['k'],Y,Y,['space'],Y,,,,,Y,Y,F,25,
49,8,547,7,7,11,['d'],['k'],Y,N,['space'],N,,,,,Y,Y,F,25,
49,9,548,6,6,11,['d'],['d'],N,Y,['space'],Y,,,,,Y,Y,F,25,
49,10,549,9,9,11,['d'],['k'],Y,N,['space'],N,41,31,25,,Y,Y,F,25,
50,0,550,1,1,12,['d'],['k'],Y,,,,,,,,Y,Y,F,25,
50,1,551,1,1,12,['d'],['k'],Y,,,,,,,,Y,Y,F,25,
50,2,552,10,10,12,['d'],['k'],Y,N,['space'],N,,,,,Y,Y,F,25,
50,3,553,8,8,12,['d'],['k'],Y,Y,None,N,,,,,Y,Y,F,25,
50,4,554,2,2,12,['d'],['d'],N,Y,['k'],N,,,,,Y,Y,F,25,
50,5,555,10,10,12,['k'],['d'],Y,Y,['k'],N,,,,,Y,Y,F,25,
50,6,556,8,8,12,['d'],['k'],Y,N,['k'],N,,,,,Y,Y,F,25,
50,7,557,5,5,12,['d'],['k'],Y,Y,None,N,,,,,Y,Y,F,25,
50,8,558,6,6,12,['k'],['d'],Y,Y,None,N,,,,,Y,Y,F,25,
50,9,559,2,2,12,['d'],['k'],Y,Y,['space'],Y,,,,,Y,Y,F,25,
50,10,560,10,10,12,['d'],['k'],Y,Y,None,N,,,,,Y,Y,F,25,
51,0,561,3,3,12,['d'],['k'],Y,Y,['space'],Y,,,,,Y,Y,F,25,
51,1,562,2,2,12,['d'],['k'],Y,N,['space'],N,,,,,Y,Y,F,25,
51,2,563,3,3,12,['k'],['d'],Y,Y,None,N,,,,,Y,Y,F,25,
51,3,564,8,8,12,['d'],['k'],Y,Y,['space'],Y,,,,,Y,Y,F,25,
51,4,565,7,7,12,['k'],['d'],Y,Y,None,N,,,,,Y,Y,F,25,
51,5,566,6,6,12,['d'],['k'],Y,N,['space'],N,,,,,Y,Y,F,25,
51,6,567,2,2,12,['k'],['d'],Y,N,['space'],N,,,,,Y,Y,F,25,
51,7,568,2,2,12,['d'],['k'],Y,Y,None,N,,,,,Y,Y,F,25,
51,8,569,3,3,12,['k'],['d'],Y,N,None,Y,,,,,Y,Y,F,25,
51,9,570,0,0,12,['k'],['d'],Y,Y,['space'],Y,,,,,Y,Y,F,25,
51,10,571,8,8,12,['d'],['k'],Y,N,['space'],N,,,,,Y,Y,F,25,
52,0,572,7,7,12,['d'],['k'],Y,Y,['space'],Y,,,,,Y,Y,F,25,
52,1,573,7,7,12,['d'],['k'],Y,N,['space'],N,,,,,Y,Y,F,25,
52,2,574,9,9,12,['k'],['d'],Y,N,['d'],N,,,,,Y,Y,F,25,
52,3,575,8,8,12,['k'],['d'],Y,Y,['space'],Y,,,,,Y,Y,F,25,
52,4,576,0,0,12,['k'],['d'],Y,Y,['space'],Y,,,,,Y,Y,F,25,
52,5,577,5,5,12,['k'],['d'],Y,N,['k'],N,,,,,Y,Y,F,25,
52,6,578,5,5,12,['d'],['d'],N,N,['space'],N,,,,,Y,Y,F,25,
52,7,579,0,0,12,['d'],['k'],Y,N,['space'],N,,,,,Y,Y,F,25,
52,8,580,6,6,12,None,,Timed out,N,None,Y,,,,,Y,Y,F,25,
52,9,581,5,5,12,['d'],['k'],Y,Y,['space'],Y,,,,,Y,Y,F,25,
52,10,582,6,6,12,['k'],['d'],Y,N,None,Y,,,,,Y,Y,F,25,
53,0,583,6,6,12,['k'],['d'],Y,N,None,Y,,,,,Y,Y,F,25,
53,1,584,1,1,12,['k'],['d'],Y,N,None,Y,,,,,Y,Y,F,25,
53,2,585,0,0,12,['d'],['d'],N,Y,['space'],Y,,,,,Y,Y,F,25,
53,3,586,1,1,12,['k'],['d'],Y,N,['space'],N,,,,,Y,Y,F,25,
53,4,587,3,3,12,['d'],['d'],N,N,None,Y,,,,,Y,Y,F,25,
53,5,588,9,9,12,['d'],['d'],N,N,['space'],N,,,,,Y,Y,F,25,
53,6,589,10,10,12,['d'],['k'],Y,N,['space'],N,,,,,Y,Y,F,25,
53,7,590,5,5,12,['k'],['d'],Y,N,['space'],N,,,,,Y,Y,F,25,
53,8,591,2,2,12,None,,Timed out,Y,None,N,,,,,Y,Y,F,25,
53,9,592,10,10,12,['d'],['d'],N,Y,['space'],Y,,,,,Y,Y,F,25,
53,10,593,5,5,12,['d'],['k'],Y,N,['space'],N,,,,,Y,Y,F,25,
54,0,594,4,4,12,['k'],['d'],Y,N,['space'],N,,,,,Y,Y,F,25,
54,1,595,0,0,12,['d'],['k'],Y,N,['space'],N,,,,,Y,Y,F,25,
54,2,596,6,6,12,['k'],['d'],Y,Y,None,N,,,,,Y,Y,F,25,
54,3,597,7,7,12,['d'],['k'],Y,Y,None,N,,,,,Y,Y,F,25,
54,4,598,4,4,12,['d'],['k'],Y,Y,['space'],Y,,,,,Y,Y,F,25,
54,5,599,4,4,12,['d'],['k'],Y,Y,['space'],Y,42,18,24,,Y,Y,F,25,
