.thisRepN,.thisTrialN,.thisN,.thisIndex,.thisTrial,Block Number,Key pressed,Category,Correct?,Int Match?,Int Response,Int Correct?,Line Accuracy,Interference Accuracy,Matching Interferences,New instruction shown?,Buttons switched?,Fast?,gender,age,
0,0,0,10,10,1,['k'],['d'],N,,,,,,,,,,F,20,
0,1,1,7,7,1,['k'],['k'],Y,,,,,,,,,,F,20,
0,2,2,6,6,1,['k'],['k'],Y,N,None,Y,,,,,,,F,20,
0,3,3,3,3,1,['k'],['d'],N,N,None,Y,,,,,,,F,20,
0,4,4,2,2,1,['k'],['d'],N,N,['space'],N,,,,,,,F,20,
0,5,5,4,4,1,None,,Timed out,Y,['f'],N,,,,,,,F,20,
0,6,6,0,0,1,['k'],['d'],N,N,None,Y,,,,,,,F,20,
0,7,7,0,0,1,['d'],['d'],Y,N,['space'],N,,,,,,,F,20,
0,8,8,10,10,1,['k'],['k'],Y,Y,['space'],Y,,,,,,,F,20,
0,9,9,3,3,1,['d'],['k'],N,Y,['space'],Y,,,,,,,F,20,
0,10,10,7,7,1,['k'],['d'],N,Y,['space'],Y,,,,,,,F,20,
1,0,11,5,5,1,['d'],['k'],N,N,None,Y,,,,,,,F,20,
1,1,12,1,1,1,['k'],['d'],N,Y,['space'],Y,,,,,,,F,20,
1,2,13,8,8,1,['k'],['d'],N,N,None,Y,,,,,,,F,20,
1,3,14,6,6,1,['d'],['d'],Y,N,['space'],N,,,,,,,F,20,
1,4,15,4,4,1,['k'],['d'],N,Y,['space'],Y,,,,,,,F,20,
1,5,16,10,10,1,['d'],['d'],Y,N,['space'],N,,,,,,,F,20,
1,6,17,2,2,1,['d'],['d'],Y,N,None,Y,,,,,,,F,20,
1,7,18,7,7,1,['k'],['k'],Y,N,None,Y,,,,,,,F,20,
1,8,19,2,2,1,['d'],['d'],Y,Y,['space'],Y,,,,,,,F,20,
1,9,20,6,6,1,['k'],['d'],N,N,['space'],N,,,,,,,F,20,
1,10,21,8,8,1,['d'],['k'],N,N,['space'],N,,,,,,,F,20,
2,0,22,1,1,1,['d'],['k'],N,N,None,Y,,,,,,,F,20,
2,1,23,3,3,1,['k'],['d'],N,Y,['space'],Y,,,,,,,F,20,
2,2,24,5,5,1,['d'],['k'],N,N,['space'],N,,,,,,,F,20,
2,3,25,3,3,1,['k'],['d'],N,Y,['space'],Y,,,,,,,F,20,
2,4,26,0,0,1,['d'],['d'],Y,N,None,Y,,,,,,,F,20,
2,5,27,5,5,1,['d'],['k'],N,N,['space'],N,,,,,,,F,20,
2,6,28,5,5,1,['k'],['d'],N,Y,['space'],Y,,,,,,,F,20,
2,7,29,1,1,1,['d'],['k'],N,Y,None,N,,,,,,,F,20,
2,8,30,2,2,1,['d'],['d'],Y,Y,['space'],Y,,,,,,,F,20,
2,9,31,1,1,1,['k'],['k'],Y,N,['space'],N,,,,,,,F,20,
2,10,32,3,3,1,['d'],['k'],N,Y,['space'],Y,,,,,,,F,20,
3,0,33,3,3,1,['d'],['k'],N,N,None,Y,,,,,,,F,20,
3,1,34,10,10,1,['k'],['d'],N,Y,['space'],Y,,,,,,,F,20,
3,2,35,4,4,1,['d'],['d'],Y,Y,None,N,,,,,,,F,20,
3,3,36,6,6,1,['d'],['d'],Y,Y,['space'],Y,,,,,,,F,20,
3,4,37,7,7,1,['k'],['d'],N,Y,None,N,,,,,,,F,20,
3,5,38,3,3,1,['d'],['k'],N,N,['space'],N,,,,,,,F,20,
3,6,39,3,3,1,['d'],['d'],Y,Y,['k'],N,,,,,,,F,20,
3,7,40,9,9,1,['d'],['k'],N,Y,None,N,,,,,,,F,20,
3,8,41,3,3,1,['k'],['k'],Y,Y,None,N,,,,,,,F,20,
3,9,42,3,3,1,['d'],['k'],N,N,None,Y,,,,,,,F,20,
3,10,43,1,1,1,['k'],['d'],N,N,None,Y,,,,,,,F,20,
4,0,44,9,9,1,['d'],['d'],Y,N,None,Y,,,,,,,F,20,
4,1,45,9,9,1,['k'],['k'],Y,N,None,Y,,,,,,,F,20,
4,2,46,7,7,1,['d'],['d'],Y,Y,['space'],Y,,,,,,,F,20,
4,3,47,9,9,1,['d'],['d'],Y,N,None,Y,,,,,,,F,20,
4,4,48,10,10,1,['k'],['k'],Y,N,None,Y,,,,,,,F,20,
4,5,49,4,4,1,['d'],['d'],Y,N,None,Y,22,31,21,,,,F,20,
4,6,50,0,0,2,['k'],['k'],Y,,,,,,,,,,F,20,
4,7,51,0,0,2,['d'],['k'],N,,,,,,,,,,F,20,
4,8,52,5,5,2,['d'],['k'],N,N,None,Y,,,,,,,F,20,
4,9,53,6,6,2,['k'],['k'],Y,N,None,Y,,,,,,,F,20,
4,10,54,2,2,2,['k'],['k'],Y,N,None,Y,,,,,,,F,20,
5,0,55,6,6,2,['d'],['k'],N,Y,['space'],Y,,,,,,,F,20,
5,1,56,3,3,2,['d'],['k'],N,Y,['space'],Y,,,,,,,F,20,
5,2,57,0,0,2,['k'],['d'],N,Y,['space'],Y,,,,,,,F,20,
5,3,58,0,0,2,['d'],['k'],N,N,['space'],N,,,,,,,F,20,
5,4,59,8,8,2,['k'],['d'],N,N,None,Y,,,,,,,F,20,
5,5,60,7,7,2,['d'],['d'],Y,N,None,Y,,,,,,,F,20,
5,6,61,10,10,2,['k'],['d'],N,N,None,Y,,,,,,,F,20,
5,7,62,4,4,2,['d'],['d'],Y,N,None,Y,,,,,,,F,20,
5,8,63,4,4,2,['d'],['d'],Y,Y,['space'],Y,,,,,,,F,20,
5,9,64,8,8,2,['k'],['d'],N,Y,None,N,,,,,,,F,20,
5,10,65,10,10,2,['d'],['k'],N,N,None,Y,,,,,,,F,20,
6,0,66,3,3,2,['k'],['d'],N,Y,None,N,,,,,,,F,20,
6,1,67,1,1,2,['d'],['d'],Y,Y,None,N,,,,,,,F,20,
6,2,68,7,7,2,['d'],['k'],N,Y,['space'],Y,,,,,,,F,20,
6,3,69,3,3,2,['k'],['d'],N,N,None,Y,,,,,,,F,20,
6,4,70,2,2,2,['d'],['k'],N,Y,None,N,,,,,,,F,20,
6,5,71,5,5,2,['k'],['k'],Y,Y,['k'],N,,,,,,,F,20,
6,6,72,5,5,2,['d'],['k'],N,Y,None,N,,,,,,,F,20,
6,7,73,10,10,2,['k'],['d'],N,Y,None,N,,,,,,,F,20,
6,8,74,1,1,2,['d'],['d'],Y,Y,['space'],Y,,,,,,,F,20,
6,9,75,0,0,2,['d'],['d'],Y,Y,['space'],Y,,,,,,,F,20,
6,10,76,10,10,2,['k'],['d'],N,N,None,Y,,,,,,,F,20,
7,0,77,0,0,2,['d'],['d'],Y,N,['space'],N,,,,,,,F,20,
7,1,78,1,1,2,['k'],['d'],N,N,None,Y,,,,,,,F,20,
7,2,79,6,6,2,['d'],['d'],Y,Y,['d'],N,,,,,,,F,20,
7,3,80,1,1,2,['k'],['k'],Y,N,['space'],N,,,,,,,F,20,
7,4,81,7,7,2,['d'],['d'],Y,Y,['space'],Y,,,,,,,F,20,
7,5,82,10,10,2,['k'],['d'],N,Y,['space'],Y,,,,,,,F,20,
7,6,83,1,1,2,['d'],['k'],N,Y,['space'],Y,,,,,,,F,20,
7,7,84,7,7,2,['k'],['k'],Y,Y,['space'],Y,,,,,,,F,20,
7,8,85,2,2,2,['d'],['d'],Y,Y,None,N,,,,,,,F,20,
7,9,86,9,9,2,['k'],['d'],N,Y,['space'],Y,,,,,,,F,20,
7,10,87,7,7,2,['d'],['d'],Y,Y,['space'],Y,,,,,,,F,20,
8,0,88,9,9,2,['k'],['d'],N,N,None,Y,,,,,,,F,20,
8,1,89,4,4,2,['d'],['d'],Y,Y,['space'],Y,,,,,,,F,20,
8,2,90,9,9,2,['k'],['k'],Y,N,None,Y,,,,,,,F,20,
8,3,91,7,7,2,['d'],['k'],N,Y,None,N,,,,,,,F,20,
8,4,92,7,7,2,['d'],['d'],Y,Y,['space'],Y,,,,,,,F,20,
8,5,93,5,5,2,['k'],['d'],N,N,None,Y,,,,,,,F,20,
8,6,94,2,2,2,['d'],['d'],Y,N,None,Y,,,,,,,F,20,
8,7,95,4,4,2,['k'],['k'],Y,N,None,Y,,,,,,,F,20,
8,8,96,2,2,2,['d'],['d'],Y,N,None,Y,,,,,,,F,20,
8,9,97,3,3,2,['d'],['k'],N,N,None,Y,,,,,,,F,20,
8,10,98,8,8,2,['k'],['k'],Y,N,None,Y,,,,,,,F,20,
9,0,99,4,4,2,['d'],['d'],Y,N,None,Y,25,35,25,,,,F,20,
9,1,100,10,10,3,['k'],['d'],N,,,,,,,,,,F,20,
9,2,101,3,3,3,['d'],['d'],Y,,,,,,,,,,F,20,
9,3,102,8,8,3,['k'],['d'],N,Y,['space'],Y,,,,,,,F,20,
9,4,103,6,6,3,['d'],['k'],N,Y,None,N,,,,,,,F,20,
9,5,104,6,6,3,['k'],['d'],N,Y,['space'],Y,,,,,,,F,20,
9,6,105,8,8,3,['d'],['k'],N,Y,['space'],Y,,,,,,,F,20,
9,7,106,0,0,3,['k'],['k'],Y,N,['space'],N,,,,,,,F,20,
9,8,107,4,4,3,['k'],['d'],N,N,['space'],N,,,,,,,F,20,
9,9,108,0,0,3,['d'],['d'],Y,N,['space'],N,,,,,,,F,20,
9,10,109,4,4,3,['d'],['k'],N,N,['d'],N,,,,,,,F,20,
10,0,110,5,5,3,['d'],['d'],Y,Y,['k'],N,,,,,,,F,20,
10,1,111,5,5,3,['d'],['d'],Y,Y,['k'],N,,,,,,,F,20,
10,2,112,6,6,3,['k'],['k'],Y,N,None,Y,,,,,,,F,20,
10,3,113,10,10,3,['d'],['d'],Y,N,None,Y,,,,,,,F,20,
10,4,114,10,10,3,['d'],['k'],N,N,None,Y,,,,,,,F,20,
10,5,115,5,5,3,['k'],['k'],Y,Y,['space'],Y,,,,,,,F,20,
10,6,116,6,6,3,['d'],['k'],N,Y,['space'],Y,,,,,,,F,20,
10,7,117,6,6,3,['k'],['k'],Y,N,['space'],N,,,,,,,F,20,
10,8,118,5,5,3,['d'],['d'],Y,N,None,Y,,,,,,,F,20,
10,9,119,5,5,3,['d'],['d'],Y,N,None,Y,,,,,,,F,20,
10,10,120,4,4,3,['d'],['d'],Y,N,None,Y,,,,,,,F,20,
11,0,121,6,6,3,['k'],['k'],Y,Y,['space'],Y,,,,,,,F,20,
11,1,122,8,8,3,['d'],['d'],Y,N,None,Y,,,,,,,F,20,
11,2,123,9,9,3,['k'],['k'],Y,N,None,Y,,,,,,,F,20,
11,3,124,3,3,3,['d'],['k'],N,N,None,Y,,,,,,,F,20,
11,4,125,0,0,3,['k'],['k'],Y,N,None,Y,,,,,,,F,20,
11,5,126,1,1,3,['d'],['k'],N,Y,['space'],Y,,,,,,,F,20,
11,6,127,4,4,3,['k'],['k'],Y,N,['space'],N,,,,,,,F,20,
11,7,128,8,8,3,['k'],['d'],N,Y,['space'],Y,,,,,,,F,20,
11,8,129,1,1,3,['d'],['k'],N,Y,['space'],Y,,,,,,,F,20,
11,9,130,3,3,3,['k'],['k'],Y,Y,['k'],N,,,,,,,F,20,
11,10,131,9,9,3,['k'],['k'],Y,N,None,Y,,,,,,,F,20,
12,0,132,7,7,3,['k'],['d'],N,Y,['space'],Y,,,,,,,F,20,
12,1,133,9,9,3,['d'],['d'],Y,N,None,Y,,,,,,,F,20,
12,2,134,10,10,3,['k'],['d'],N,Y,['space'],Y,,,,,,,F,20,
12,3,135,0,0,3,['d'],['k'],N,N,None,Y,,,,,,,F,20,
12,4,136,1,1,3,['d'],['k'],N,Y,['space'],Y,,,,,,,F,20,
12,5,137,6,6,3,['k'],['k'],Y,Y,['space'],Y,,,,,,,F,20,
12,6,138,6,6,3,['k'],['d'],N,Y,['space'],Y,,,,,,,F,20,
12,7,139,9,9,3,['d'],['k'],N,N,None,Y,,,,,,,F,20,
12,8,140,4,4,3,['d'],['k'],N,Y,['space'],Y,,,,,,,F,20,
12,9,141,4,4,3,['d'],['d'],Y,Y,None,N,,,,,,,F,20,
12,10,142,0,0,3,['k'],['k'],Y,Y,['space'],Y,,,,,,,F,20,
13,0,143,3,3,3,['k'],['d'],N,N,['space'],N,,,,,,,F,20,
13,1,144,6,6,3,['k'],['d'],N,Y,['d'],N,,,,,,,F,20,
13,2,145,5,5,3,['d'],['d'],Y,Y,['space'],Y,,,,,,,F,20,
13,3,146,2,2,3,['k'],['d'],N,N,['space'],N,,,,,,,F,20,
13,4,147,4,4,3,['d'],['k'],N,Y,['space'],Y,,,,,,,F,20,
13,5,148,1,1,3,['k'],['d'],N,N,None,Y,,,,,,,F,20,
13,6,149,5,5,3,['d'],['d'],Y,N,None,Y,25,34,24,,,,F,20,
13,7,150,3,3,4,['d'],['d'],Y,,,,,,,,,,F,20,
13,8,151,7,7,4,['k'],['d'],N,,,,,,,,,,F,20,
13,9,152,7,7,4,['d'],['d'],Y,Y,['d'],N,,,,,,,F,20,
13,10,153,8,8,4,['k'],['k'],Y,Y,['space'],Y,,,,,,,F,20,
14,0,154,2,2,4,['d'],['d'],Y,Y,None,N,,,,,,,F,20,
14,1,155,9,9,4,['k'],['d'],N,Y,['space'],Y,,,,,,,F,20,
14,2,156,6,6,4,['d'],['k'],N,Y,['space'],Y,,,,,,,F,20,
14,3,157,7,7,4,['k'],['k'],Y,N,None,Y,,,,,,,F,20,
14,4,158,5,5,4,['k'],['d'],N,Y,['space'],Y,,,,,,,F,20,
14,5,159,10,10,4,['d'],['d'],Y,N,None,Y,,,,,,,F,20,
14,6,160,9,9,4,['k'],['k'],Y,Y,['space'],Y,,,,,,,F,20,
14,7,161,7,7,4,['d'],['d'],Y,Y,['space'],Y,,,,,,,F,20,
14,8,162,10,10,4,['k'],['d'],N,Y,['space'],Y,,,,,,,F,20,
14,9,163,2,2,4,['d'],['k'],N,Y,['space'],Y,,,,,,,F,20,
14,10,164,3,3,4,['k'],['k'],Y,Y,['space'],Y,,,,,,,F,20,
15,0,165,4,4,4,['d'],['d'],Y,N,None,Y,,,,,,,F,20,
15,1,166,10,10,4,['d'],['d'],Y,N,['space'],N,,,,,,,F,20,
15,2,167,5,5,4,['d'],['d'],Y,Y,['space'],Y,,,,,,,F,20,
15,3,168,9,9,4,['k'],['k'],Y,Y,['space'],Y,,,,,,,F,20,
15,4,169,10,10,4,['d'],['d'],Y,Y,['space'],Y,,,,,,,F,20,
15,5,170,1,1,4,['d'],['d'],Y,N,None,Y,,,,,,,F,20,
15,6,171,1,1,4,['d'],['k'],N,Y,['space'],Y,,,,,,,F,20,
15,7,172,0,0,4,['k'],['d'],N,N,None,Y,,,,,,,F,20,
15,8,173,5,5,4,['d'],['k'],N,Y,['space'],Y,,,,,,,F,20,
15,9,174,10,10,4,['d'],['d'],Y,N,None,Y,,,,,,,F,20,
15,10,175,9,9,4,['k'],['d'],N,Y,['space'],Y,,,,,,,F,20,
16,0,176,8,8,4,['d'],['d'],Y,N,None,Y,,,,,,,F,20,
16,1,177,4,4,4,['k'],['d'],N,Y,['space'],Y,,,,,,,F,20,
16,2,178,3,3,4,['k'],['k'],Y,N,['d'],N,,,,,,,F,20,
16,3,179,4,4,4,['k'],['d'],N,Y,['d'],N,,,,,,,F,20,
16,4,180,4,4,4,None,,Timed out,Y,['space'],Y,,,,,,,F,20,
16,5,181,5,5,4,['d'],['k'],N,Y,['space'],Y,,,,,,,F,20,
16,6,182,3,3,4,['d'],['k'],N,N,None,Y,,,,,,,F,20,
16,7,183,0,0,4,['k'],['k'],Y,N,None,Y,,,,,,,F,20,
16,8,184,4,4,4,['d'],['d'],Y,Y,['space'],Y,,,,,,,F,20,
16,9,185,0,0,4,['k'],['k'],Y,Y,None,N,,,,,,,F,20,
16,10,186,6,6,4,['d'],['d'],Y,Y,['space'],Y,,,,,,,F,20,
17,0,187,9,9,4,['k'],['d'],N,Y,None,N,,,,,,,F,20,
17,1,188,4,4,4,['d'],['d'],Y,N,['space'],N,,,,,,,F,20,
17,2,189,1,1,4,['d'],['d'],Y,N,None,Y,,,,,,,F,20,
17,3,190,4,4,4,['k'],['k'],Y,N,None,Y,,,,,,,F,20,
17,4,191,1,1,4,['d'],['k'],N,N,None,Y,,,,,,,F,20,
17,5,192,9,9,4,['k'],['d'],N,N,None,Y,,,,,,,F,20,
17,6,193,9,9,4,['k'],['k'],Y,N,['d'],N,,,,,,,F,20,
17,7,194,6,6,4,['k'],['k'],Y,N,None,Y,,,,,,,F,20,
17,8,195,0,0,4,['d'],['k'],N,N,None,Y,,,,,,,F,20,
17,9,196,7,7,4,['k'],['k'],Y,N,None,Y,,,,,,,F,20,
17,10,197,5,5,4,['d'],['d'],Y,N,['k'],N,,,,,,,F,20,
18,0,198,3,3,4,['d'],['d'],Y,N,None,Y,,,,,,,F,20,
18,1,199,7,7,4,['k'],['d'],N,N,None,Y,30,38,25,,,,F,20,
18,2,200,10,10,5,['k'],['k'],Y,,,,,,,,,,F,20,
18,3,201,6,6,5,['d'],['k'],N,,,,,,,,,,F,20,
18,4,202,7,7,5,['k'],['d'],N,Y,['space'],Y,,,,,,,F,20,
18,5,203,2,2,5,['d'],['k'],N,Y,['space'],Y,,,,,,,F,20,
18,6,204,6,6,5,['k'],['k'],Y,Y,['space'],Y,,,,,,,F,20,
18,7,205,6,6,5,['k'],['k'],Y,Y,None,N,,,,,,,F,20,
18,8,206,5,5,5,['d'],['d'],Y,Y,['space'],Y,,,,,,,F,20,
18,9,207,4,4,5,['k'],['k'],Y,N,None,Y,,,,,,,F,20,
18,10,208,10,10,5,['k'],['d'],N,Y,['d'],N,,,,,,,F,20,
19,0,209,3,3,5,['d'],['k'],N,Y,None,N,,,,,,,F,20,
19,1,210,6,6,5,['k'],['d'],N,Y,['space'],Y,,,,,,,F,20,
19,2,211,0,0,5,['d'],['d'],Y,N,None,Y,,,,,,,F,20,
19,3,212,4,4,5,['d'],['d'],Y,N,['space'],N,,,,,,,F,20,
19,4,213,8,8,5,['k'],['d'],N,N,None,Y,,,,,,,F,20,
19,5,214,9,9,5,['d'],['k'],N,Y,['space'],Y,,,,,,,F,20,
19,6,215,4,4,5,['k'],['d'],N,N,None,Y,,,,,,,F,20,
19,7,216,8,8,5,['d'],['k'],N,Y,['space'],Y,,,,,,,F,20,
19,8,217,0,0,5,['k'],['d'],N,N,None,Y,,,,,,,F,20,
19,9,218,9,9,5,['d'],['k'],N,N,None,Y,,,,,,,F,20,
19,10,219,10,10,5,['k'],['d'],N,N,None,Y,,,,,,,F,20,
20,0,220,6,6,5,['d'],['d'],Y,Y,None,N,,,,,,,F,20,
20,1,221,5,5,5,['k'],['d'],N,Y,['space'],Y,,,,,,,F,20,
20,2,222,6,6,5,['d'],['k'],N,N,['d'],N,,,,,,,F,20,
20,3,223,0,0,5,['k'],['k'],Y,N,['k'],N,,,,,,,F,20,
20,4,224,5,5,5,['d'],['d'],Y,Y,['space'],Y,,,,,,,F,20,
20,5,225,1,1,5,['k'],['k'],Y,Y,['space'],Y,,,,,,,F,20,
20,6,226,9,9,5,['d'],['d'],Y,Y,['space'],Y,,,,,,,F,20,
20,7,227,0,0,5,['k'],['k'],Y,N,None,Y,,,,,,,F,20,
20,8,228,9,9,5,['k'],['k'],Y,N,None,Y,,,,,,,F,20,
20,9,229,2,2,5,['d'],['k'],N,N,None,Y,,,,,,,F,20,
20,10,230,8,8,5,['k'],['d'],N,Y,['space'],Y,,,,,,,F,20,
21,0,231,9,9,5,['d'],['k'],N,N,['space'],N,,,,,,,F,20,
21,1,232,9,9,5,['k'],['d'],N,N,['space'],N,,,,,,,F,20,
21,2,233,8,8,5,['d'],['k'],N,N,['space'],N,,,,,,,F,20,
21,3,234,2,2,5,['k'],['k'],Y,N,None,Y,,,,,,,F,20,
21,4,235,4,4,5,['k'],['k'],Y,Y,None,N,,,,,,,F,20,
21,5,236,1,1,5,['d'],['d'],Y,N,None,Y,,,,,,,F,20,
21,6,237,1,1,5,['k'],['d'],N,N,['space'],N,,,,,,,F,20,
21,7,238,0,0,5,['d'],['k'],N,Y,['space'],Y,,,,,,,F,20,
21,8,239,1,1,5,['k'],['k'],Y,Y,['space'],Y,,,,,,,F,20,
21,9,240,10,10,5,['d'],['k'],N,Y,['space'],Y,,,,,,,F,20,
21,10,241,3,3,5,['k'],['k'],Y,Y,['space'],Y,,,,,,,F,20,
22,0,242,2,2,5,['k'],['d'],N,Y,['space'],Y,,,,,,,F,20,
22,1,243,1,1,5,['d'],['k'],N,N,['space'],N,,,,,,,F,20,
22,2,244,4,4,5,['k'],['k'],Y,N,['space'],N,,,,,,,F,20,
22,3,245,3,3,5,['d'],['k'],N,N,['space'],N,,,,,,,F,20,
22,4,246,8,8,5,['k'],['k'],Y,Y,['k'],N,,,,,,,F,20,
22,5,247,4,4,5,['d'],['d'],Y,N,['space'],N,,,,,,,F,20,
22,6,248,7,7,5,['k'],['d'],N,Y,None,N,,,,,,,F,20,
22,7,249,0,0,5,['d'],['d'],Y,N,None,Y,23,30,24,,,,F,20,
22,8,250,10,10,6,['k'],['k'],Y,,,,,,,,,,F,20,
22,9,251,2,2,6,['d'],['d'],Y,,,,,,,,,,F,20,
22,10,252,6,6,6,['d'],['k'],N,N,None,Y,,,,,,,F,20,
23,0,253,6,6,6,['k'],['d'],N,N,None,Y,,,,,,,F,20,
23,1,254,7,7,6,['d'],['d'],Y,N,None,Y,,,,,,,F,20,
23,2,255,2,2,6,['k'],['d'],N,Y,['space'],Y,,,,,,,F,20,
23,3,256,7,7,6,['d'],['d'],Y,N,['space'],N,,,,,,,F,20,
23,4,257,1,1,6,['k'],['d'],N,N,None,Y,,,,,,,F,20,
23,5,258,0,0,6,['d'],['k'],N,N,None,Y,,,,,,,F,20,
23,6,259,10,10,6,['k'],['k'],Y,N,None,Y,,,,,,,F,20,
23,7,260,0,0,6,['d'],['k'],N,Y,['space'],Y,,,,,,,F,20,
23,8,261,1,1,6,['k'],['d'],N,Y,['space'],Y,,,,,,,F,20,
23,9,262,2,2,6,['k'],['d'],N,N,None,Y,,,,,,,F,20,
23,10,263,4,4,6,['d'],['k'],N,N,None,Y,,,,,,,F,20,
24,0,264,10,10,6,['k'],['k'],Y,N,None,Y,,,,,,,F,20,
24,1,265,8,8,6,['k'],['d'],N,Y,None,N,,,,,,,F,20,
24,2,266,0,0,6,['k'],['k'],Y,Y,['d'],N,,,,,,,F,20,
24,3,267,8,8,6,['k'],['k'],Y,N,None,Y,,,,,,,F,20,
24,4,268,4,4,6,['k'],['d'],N,N,None,Y,,,,,,,F,20,
24,5,269,1,1,6,['d'],['d'],Y,Y,['space'],Y,,,,,,,F,20,
24,6,270,7,7,6,['k'],['k'],Y,N,None,Y,,,,,,,F,20,
24,7,271,4,4,6,['k'],['d'],N,N,['space'],N,,,,,,,F,20,
24,8,272,2,2,6,['d'],['d'],Y,Y,['space'],Y,,,,,,,F,20,
24,9,273,5,5,6,['d'],['k'],N,Y,['space'],Y,,,,,,,F,20,
24,10,274,8,8,6,['k'],['d'],N,Y,['k'],N,,,,,,,F,20,
25,0,275,0,0,6,['k'],['k'],Y,Y,['d'],N,,,,,,,F,20,
25,1,276,10,10,6,['d'],['k'],N,N,['space'],N,,,,,,,F,20,
25,2,277,1,1,6,['k'],['k'],Y,N,None,Y,,,,,,,F,20,
25,3,278,8,8,6,['d'],['d'],Y,Y,['space'],Y,,,,,,,F,20,
25,4,279,9,9,6,['d'],['k'],N,Y,['space'],Y,,,,,,,F,20,
25,5,280,3,3,6,['k'],['d'],N,N,None,Y,,,,,,,F,20,
25,6,281,1,1,6,['d'],['d'],Y,Y,['space'],Y,,,,,,,F,20,
25,7,282,1,1,6,['d'],['d'],Y,Y,['space'],Y,,,,,,,F,20,
25,8,283,8,8,6,['k'],['k'],Y,Y,['space'],Y,,,,,,,F,20,
25,9,284,9,9,6,['k'],['k'],Y,N,None,Y,,,,,,,F,20,
25,10,285,5,5,6,['d'],['k'],N,Y,None,N,,,,,,,F,20,
26,0,286,6,6,6,['k'],['d'],N,Y,['space'],Y,,,,,,,F,20,
26,1,287,2,2,6,['k'],['k'],Y,Y,['space'],Y,,,,,,,F,20,
26,2,288,8,8,6,['d'],['d'],Y,N,None,Y,,,,,,,F,20,
26,3,289,8,8,6,['k'],['d'],N,Y,['space'],Y,,,,,,,F,20,
26,4,290,8,8,6,['d'],['d'],Y,Y,['space'],Y,,,,,,,F,20,
26,5,291,1,1,6,['d'],['k'],N,N,['space'],N,,,,,,,F,20,
26,6,292,6,6,6,['k'],['d'],N,N,None,Y,,,,,,,F,20,
26,7,293,2,2,6,['d'],['k'],N,Y,['space'],Y,,,,,,,F,20,
26,8,294,4,4,6,['k'],['k'],Y,N,None,Y,,,,,,,F,20,
26,9,295,3,3,6,['d'],['d'],Y,N,None,Y,,,,,,,F,20,
26,10,296,6,6,6,['k'],['d'],N,N,None,Y,,,,,,,F,20,
27,0,297,0,0,6,['k'],['k'],Y,Y,None,N,,,,,,,F,20,
27,1,298,7,7,6,['k'],['k'],Y,N,None,Y,,,,,,,F,20,
27,2,299,10,10,6,['d'],['d'],Y,Y,['k'],N,26,37,23,,,,F,20,
27,3,300,1,1,7,['k'],['k'],Y,,,,,,,,,,F,20,
27,4,301,8,8,7,['k'],['k'],Y,,,,,,,,,,F,20,
27,5,302,8,8,7,['d'],['k'],N,Y,None,N,,,,,,,F,20,
27,6,303,3,3,7,['d'],['k'],N,N,['k'],N,,,,,,,F,20,
27,7,304,6,6,7,['k'],['k'],Y,N,['space'],N,,,,,,,F,20,
27,8,305,2,2,7,['d'],['d'],Y,N,None,Y,,,,,,,F,20,
27,9,306,0,0,7,['k'],['k'],Y,N,['space'],N,,,,,,,F,20,
27,10,307,8,8,7,['d'],['d'],Y,N,None,Y,,,,,,,F,20,
28,0,308,1,1,7,['d'],['d'],Y,N,None,Y,,,,,,,F,20,
28,1,309,3,3,7,['d'],['d'],Y,Y,None,N,,,,,,,F,20,
28,2,310,8,8,7,['k'],['k'],Y,N,None,Y,,,,,,,F,20,
28,3,311,10,10,7,['d'],['d'],Y,N,None,Y,,,,,,,F,20,
28,4,312,10,10,7,['k'],['d'],N,Y,['space'],Y,,,,,,,F,20,
28,5,313,7,7,7,['k'],['k'],Y,Y,['d'],N,,,,,,,F,20,
28,6,314,8,8,7,['d'],['k'],N,N,None,Y,,,,,,,F,20,
28,7,315,9,9,7,['k'],['d'],N,Y,['space'],Y,,,,,,,F,20,
28,8,316,3,3,7,['d'],['d'],Y,Y,None,N,,,,,,,F,20,
28,9,317,10,10,7,['d'],['k'],N,Y,['space'],Y,,,,,,,F,20,
28,10,318,7,7,7,['d'],['k'],N,Y,['space'],Y,,,,,,,F,20,
29,0,319,6,6,7,['k'],['k'],Y,Y,['space'],Y,,,,,,,F,20,
29,1,320,7,7,7,['d'],['d'],Y,Y,None,N,,,,,,,F,20,
29,2,321,2,2,7,['k'],['k'],Y,N,None,Y,,,,,,,F,20,
29,3,322,8,8,7,['d'],['d'],Y,Y,['space'],Y,,,,,,,F,20,
29,4,323,10,10,7,['k'],['k'],Y,Y,['space'],Y,,,,,,,F,20,
29,5,324,3,3,7,['d'],['k'],N,Y,['space'],Y,,,,,,,F,20,
29,6,325,0,0,7,['k'],['k'],Y,Y,['k'],N,,,,,,,F,20,
29,7,326,8,8,7,['d'],['k'],N,Y,None,N,,,,,,,F,20,
29,8,327,8,8,7,['k'],['d'],N,Y,['space'],Y,,,,,,,F,20,
29,9,328,9,9,7,['d'],['k'],N,N,None,Y,,,,,,,F,20,
29,10,329,6,6,7,['d'],['d'],Y,N,None,Y,,,,,,,F,20,
30,0,330,1,1,7,['d'],['k'],N,Y,['space'],Y,,,,,,,F,20,
30,1,331,2,2,7,['k'],['d'],N,Y,None,N,,,,,,,F,20,
30,2,332,6,6,7,['d'],['d'],Y,Y,['space'],Y,,,,,,,F,20,
30,3,333,10,10,7,['k'],['k'],Y,N,None,Y,,,,,,,F,20,
30,4,334,9,9,7,['d'],['k'],N,Y,['space'],Y,,,,,,,F,20,
30,5,335,6,6,7,['k'],['d'],N,N,None,Y,,,,,,,F,20,
30,6,336,8,8,7,['d'],['k'],N,N,None,Y,,,,,,,F,20,
30,7,337,9,9,7,['k'],['k'],Y,N,['space'],N,,,,,,,F,20,
30,8,338,0,0,7,['d'],['d'],Y,N,None,Y,,,,,,,F,20,
30,9,339,9,9,7,['k'],['k'],Y,Y,None,N,,,,,,,F,20,
30,10,340,0,0,7,['d'],['k'],N,Y,None,N,,,,,,,F,20,
31,0,341,0,0,7,['k'],['k'],Y,Y,['k'],N,,,,,,,F,20,
31,1,342,1,1,7,['k'],['d'],N,Y,['d'],N,,,,,,,F,20,
31,2,343,0,0,7,['d'],['d'],Y,N,None,Y,,,,,,,F,20,
31,3,344,10,10,7,['k'],['k'],Y,Y,['space'],Y,,,,,,,F,20,
31,4,345,4,4,7,['d'],['d'],Y,N,['space'],N,,,,,,,F,20,
31,5,346,5,5,7,['k'],['k'],Y,N,None,Y,,,,,,,F,20,
31,6,347,6,6,7,['d'],['k'],N,N,['space'],N,,,,,,,F,20,
31,7,348,8,8,7,['k'],['d'],N,N,None,Y,,,,,,,F,20,
31,8,349,10,10,7,['k'],['k'],Y,N,None,Y,30,30,25,,,,F,20,
31,9,350,10,10,8,['k'],['d'],N,,,,,,,,,,F,20,
31,10,351,2,2,8,['k'],['d'],N,,,,,,,,,,F,20,
32,0,352,3,3,8,['d'],['d'],Y,N,None,Y,,,,,,,F,20,
32,1,353,10,10,8,['k'],['k'],Y,N,None,Y,,,,,,,F,20,
32,2,354,7,7,8,['d'],['d'],Y,N,None,Y,,,,,,,F,20,
32,3,355,10,10,8,['k'],['k'],Y,Y,['space'],Y,,,,,,,F,20,
32,4,356,3,3,8,['d'],['k'],N,Y,['space'],Y,,,,,,,F,20,
32,5,357,5,5,8,['k'],['d'],N,N,None,Y,,,,,,,F,20,
32,6,358,9,9,8,['d'],['d'],Y,Y,['space'],Y,,,,,,,F,20,
32,7,359,1,1,8,['k'],['d'],N,Y,['space'],Y,,,,,,,F,20,
32,8,360,0,0,8,['d'],['d'],Y,Y,['space'],Y,,,,,,,F,20,
32,9,361,5,5,8,['d'],['k'],N,Y,['space'],Y,,,,,,,F,20,
32,10,362,10,10,8,['k'],['d'],N,Y,['space'],Y,,,,,,,F,20,
33,0,363,7,7,8,['d'],['k'],N,N,['space'],N,,,,,,,F,20,
33,1,364,9,9,8,['k'],['k'],Y,N,None,Y,,,,,,,F,20,
33,2,365,9,9,8,['d'],['d'],Y,N,None,Y,,,,,,,F,20,
33,3,366,4,4,8,['d'],['k'],N,N,None,Y,,,,,,,F,20,
33,4,367,10,10,8,['k'],['k'],Y,N,None,Y,,,,,,,F,20,
33,5,368,2,2,8,['d'],['d'],Y,Y,['space'],Y,,,,,,,F,20,
33,6,369,2,2,8,['k'],['d'],N,N,None,Y,,,,,,,F,20,
33,7,370,5,5,8,['d'],['k'],N,N,None,Y,,,,,,,F,20,
33,8,371,5,5,8,['k'],['k'],Y,Y,['space'],Y,,,,,,,F,20,
33,9,372,6,6,8,['d'],['k'],N,Y,['space'],Y,,,,,,,F,20,
33,10,373,2,2,8,['k'],['k'],Y,Y,['space'],Y,,,,,,,F,20,
34,0,374,2,2,8,['d'],['k'],N,N,['space'],N,,,,,,,F,20,
34,1,375,10,10,8,['k'],['d'],N,Y,None,N,,,,,,,F,20,
34,2,376,8,8,8,['d'],['d'],Y,N,['space'],N,,,,,,,F,20,
34,3,377,5,5,8,['d'],['k'],N,N,['space'],N,,,,,,,F,20,
34,4,378,1,1,8,['k'],['d'],N,Y,['space'],Y,,,,,,,F,20,
34,5,379,5,5,8,['k'],['k'],Y,N,None,Y,,,,,,,F,20,
34,6,380,2,2,8,['d'],['d'],Y,N,['space'],N,,,,,,,F,20,
34,7,381,0,0,8,['k'],['d'],N,N,None,Y,,,,,,,F,20,
34,8,382,6,6,8,None,,Timed out,N,['d'],N,,,,,,,F,20,
34,9,383,2,2,8,['k'],['k'],Y,N,None,Y,,,,,,,F,20,
34,10,384,6,6,8,['d'],['d'],Y,Y,None,N,,,,,,,F,20,
35,0,385,8,8,8,['k'],['d'],N,Y,['space'],Y,,,,,,,F,20,
35,1,386,4,4,8,['d'],['k'],N,N,None,Y,,,,,,,F,20,
35,2,387,0,0,8,['k'],['k'],Y,Y,['space'],Y,,,,,,,F,20,
35,3,388,1,1,8,['d'],['d'],Y,N,None,Y,,,,,,,F,20,
35,4,389,2,2,8,['d'],['k'],N,N,['k'],N,,,,,,,F,20,
35,5,390,0,0,8,['k'],['k'],Y,Y,['space'],Y,,,,,,,F,20,
35,6,391,10,10,8,['k'],['k'],Y,N,['space'],N,,,,,,,F,20,
35,7,392,2,2,8,['k'],['d'],N,N,['k'],N,,,,,,,F,20,
35,8,393,8,8,8,['d'],['k'],N,Y,['space'],Y,,,,,,,F,20,
35,9,394,0,0,8,['k'],['k'],Y,Y,['k'],N,,,,,,,F,20,
35,10,395,6,6,8,['k'],['k'],Y,N,['d'],N,,,,,,,F,20,
36,0,396,0,0,8,['k'],['d'],N,N,None,Y,,,,,,,F,20,
36,1,397,5,5,8,['d'],['k'],N,N,['space'],N,,,,,,,F,20,
36,2,398,5,5,8,['k'],['k'],Y,N,['space'],N,,,,,,,F,20,
36,3,399,3,3,8,['k'],['d'],N,Y,['space'],Y,24,33,20,,,,F,20,
36,4,400,10,10,9,['k'],['d'],N,,,,,,,,,,F,20,
36,5,401,6,6,9,['d'],['k'],N,,,,,,,,,,F,20,
36,6,402,1,1,9,['k'],['d'],N,Y,['space'],Y,,,,,,,F,20,
36,7,403,0,0,9,['d'],['d'],Y,N,None,Y,,,,,,,F,20,
36,8,404,6,6,9,['k'],['k'],Y,Y,['space'],Y,,,,,,,F,20,
36,9,405,9,9,9,['d'],['k'],N,Y,['space'],Y,,,,,,,F,20,
36,10,406,2,2,9,['k'],['d'],N,N,None,Y,,,,,,,F,20,
37,0,407,3,3,9,['d'],['k'],N,N,None,Y,,,,,,,F,20,
37,1,408,7,7,9,['k'],['d'],N,Y,['k'],N,,,,,,,F,20,
37,2,409,8,8,9,['k'],['d'],N,N,None,Y,,,,,,,F,20,
37,3,410,8,8,9,['k'],['k'],Y,Y,['space'],Y,,,,,,,F,20,
37,4,411,9,9,9,['d'],['k'],N,Y,['space'],Y,,,,,,,F,20,
37,5,412,3,3,9,['k'],['k'],Y,N,None,Y,,,,,,,F,20,
37,6,413,5,5,9,['d'],['d'],Y,Y,['k'],N,,,,,,,F,20,
37,7,414,9,9,9,['k'],['d'],N,Y,None,N,,,,,,,F,20,
37,8,415,5,5,9,['k'],['k'],Y,N,['d'],N,,,,,,,F,20,
37,9,416,1,1,9,['d'],['k'],N,Y,['d'],N,,,,,,,F,20,
37,10,417,7,7,9,['k'],['d'],N,Y,['space'],Y,,,,,,,F,20,
38,0,418,8,8,9,['d'],['d'],Y,N,['d'],N,,,,,,,F,20,
38,1,419,8,8,9,['k'],['d'],N,Y,['space'],Y,,,,,,,F,20,
38,2,420,5,5,9,['d'],['k'],N,Y,['space'],Y,,,,,,,F,20,
38,3,421,9,9,9,['k'],['k'],Y,N,['k'],N,,,,,,,F,20,
38,4,422,0,0,9,['d'],['k'],N,N,['space'],N,,,,,,,F,20,
38,5,423,2,2,9,['k'],['d'],N,Y,['space'],Y,,,,,,,F,20,
38,6,424,6,6,9,['d'],['k'],N,N,['d'],N,,,,,,,F,20,
38,7,425,7,7,9,['d'],['d'],Y,Y,['k'],N,,,,,,,F,20,
38,8,426,4,4,9,['k'],['k'],Y,N,['d'],N,,,,,,,F,20,
38,9,427,7,7,9,['d'],['d'],Y,Y,['k'],N,,,,,,,F,20,
38,10,428,9,9,9,['d'],['k'],N,N,['space'],N,,,,,,,F,20,
39,0,429,1,1,9,['d'],['k'],N,Y,['k'],N,,,,,,,F,20,
39,1,430,9,9,9,['d'],['k'],N,Y,['k'],N,,,,,,,F,20,
39,2,431,3,3,9,['k'],['d'],N,Y,None,N,,,,,,,F,20,
39,3,432,10,10,9,['d'],['d'],Y,Y,None,N,,,,,,,F,20,
39,4,433,8,8,9,['d'],['k'],N,N,None,Y,,,,,,,F,20,
39,5,434,1,1,9,['k'],['k'],Y,Y,['space'],Y,,,,,,,F,20,
39,6,435,1,1,9,['d'],['d'],Y,Y,['space'],Y,,,,,,,F,20,
39,7,436,7,7,9,['d'],['k'],N,N,None,Y,,,,,,,F,20,
39,8,437,7,7,9,['k'],['k'],Y,N,None,Y,,,,,,,F,20,
39,9,438,8,8,9,['d'],['k'],N,N,None,Y,,,,,,,F,20,
39,10,439,3,3,9,['k'],['d'],N,N,None,Y,,,,,,,F,20,
40,0,440,6,6,9,['d'],['d'],Y,Y,None,N,,,,,,,F,20,
40,1,441,0,0,9,['d'],['k'],N,N,None,Y,,,,,,,F,20,
40,2,442,9,9,9,['k'],['k'],Y,Y,None,N,,,,,,,F,20,
40,3,443,7,7,9,['d'],['k'],N,Y,None,N,,,,,,,F,20,
40,4,444,2,2,9,['k'],['d'],N,Y,['space'],Y,,,,,,,F,20,
40,5,445,0,0,9,['d'],['k'],N,N,None,Y,,,,,,,F,20,
40,6,446,4,4,9,['k'],['k'],Y,N,None,Y,,,,,,,F,20,
40,7,447,7,7,9,['d'],['d'],Y,N,None,Y,,,,,,,F,20,
40,8,448,1,1,9,['k'],['k'],Y,N,None,Y,,,,,,,F,20,
40,9,449,3,3,9,['d'],['k'],N,N,None,Y,20,28,25,,,,F,20,
40,10,450,3,3,10,['k'],['d'],N,,,,,,,,,,F,20,
41,0,451,9,9,10,['d'],['d'],Y,,,,,,,,,,F,20,
41,1,452,7,7,10,['d'],['k'],N,Y,['k'],N,,,,,,,F,20,
41,2,453,3,3,10,['k'],['d'],N,Y,['space'],Y,,,,,,,F,20,
41,3,454,9,9,10,['d'],['d'],Y,Y,['d'],N,,,,,,,F,20,
41,4,455,2,2,10,['d'],['k'],N,N,None,Y,,,,,,,F,20,
41,5,456,6,6,10,['k'],['d'],N,N,None,Y,,,,,,,F,20,
41,6,457,5,5,10,['d'],['d'],Y,Y,['space'],Y,,,,,,,F,20,
41,7,458,3,3,10,['k'],['k'],Y,N,['space'],N,,,,,,,F,20,
41,8,459,2,2,10,['d'],['k'],N,N,None,Y,,,,,,,F,20,
41,9,460,9,9,10,['d'],['k'],N,Y,['k'],N,,,,,,,F,20,
41,10,461,10,10,10,['k'],['k'],Y,N,None,Y,,,,,,,F,20,
42,0,462,3,3,10,['d'],['k'],N,N,None,Y,,,,,,,F,20,
42,1,463,8,8,10,['k'],['d'],N,N,None,Y,,,,,,,F,20,
42,2,464,0,0,10,['d'],['d'],Y,N,None,Y,,,,,,,F,20,
42,3,465,9,9,10,['d'],['k'],N,Y,['space'],Y,,,,,,,F,20,
42,4,466,5,5,10,['k'],['d'],N,Y,['space'],Y,,,,,,,F,20,
42,5,467,0,0,10,['d'],['d'],Y,Y,['d'],N,,,,,,,F,20,
42,6,468,2,2,10,['k'],['k'],Y,N,None,Y,,,,,,,F,20,
42,7,469,3,3,10,['d'],['d'],Y,Y,['space'],Y,,,,,,,F,20,
42,8,470,9,9,10,['d'],['k'],N,N,None,Y,,,,,,,F,20,
42,9,471,2,2,10,['d'],['d'],Y,N,['k'],N,,,,,,,F,20,
42,10,472,0,0,10,['d'],['k'],N,N,None,Y,,,,,,,F,20,
43,0,473,1,1,10,['k'],['k'],Y,Y,['space'],Y,,,,,,,F,20,
43,1,474,4,4,10,['d'],['k'],N,N,None,Y,,,,,,,F,20,
43,2,475,7,7,10,['k'],['d'],N,N,None,Y,,,,,,,F,20,
43,3,476,1,1,10,['d'],['d'],Y,Y,None,N,,,,,,,F,20,
43,4,477,7,7,10,['d'],['k'],N,Y,['space'],Y,,,,,,,F,20,
43,5,478,0,0,10,['k'],['k'],Y,Y,['space'],Y,,,,,,,F,20,
43,6,479,10,10,10,['d'],['k'],N,Y,['space'],Y,,,,,,,F,20,
43,7,480,1,1,10,['k'],['k'],Y,N,None,Y,,,,,,,F,20,
43,8,481,2,2,10,['d'],['k'],N,Y,['space'],Y,,,,,,,F,20,
43,9,482,5,5,10,['k'],['d'],N,Y,None,N,,,,,,,F,20,
43,10,483,8,8,10,['d'],['k'],N,N,None,Y,,,,,,,F,20,
44,0,484,2,2,10,['k'],['d'],N,Y,['space'],Y,,,,,,,F,20,
44,1,485,8,8,10,['d'],['k'],N,N,None,Y,,,,,,,F,20,
44,2,486,5,5,10,['k'],['d'],N,N,None,Y,,,,,,,F,20,
44,3,487,1,1,10,['d'],['k'],N,N,['d'],N,,,,,,,F,20,
44,4,488,10,10,10,['k'],['d'],N,Y,['space'],Y,,,,,,,F,20,
44,5,489,0,0,10,['d'],['k'],N,Y,['space'],Y,,,,,,,F,20,
44,6,490,9,9,10,['k'],['k'],Y,N,None,Y,,,,,,,F,20,
44,7,491,5,5,10,['d'],['k'],N,Y,None,N,,,,,,,F,20,
44,8,492,7,7,10,['d'],['d'],Y,N,None,Y,,,,,,,F,20,
44,9,493,9,9,10,['k'],['d'],N,N,None,Y,,,,,,,F,20,
44,10,494,8,8,10,['d'],['d'],Y,N,['d'],N,,,,,,,F,20,
45,0,495,1,1,10,['d'],['k'],N,Y,['d'],N,,,,,,,F,20,
45,1,496,3,3,10,['k'],['d'],N,N,None,Y,,,,,,,F,20,
45,2,497,0,0,10,['d'],['k'],N,Y,['space'],Y,,,,,,,F,20,
45,3,498,9,9,10,['d'],['k'],N,N,['k'],N,,,,,,,F,20,
45,4,499,4,4,10,['k'],['d'],N,N,None,Y,17,35,22,,,,F,20,
45,5,500,0,0,11,['k'],['k'],N,,,,,,,Y,Y,Y,F,20,
45,6,501,2,2,11,['d'],['k'],Y,,,,,,,,Y,Y,F,20,
45,7,502,7,7,11,['d'],['k'],Y,N,None,Y,,,,,Y,Y,F,20,
45,8,503,9,9,11,['d'],['d'],N,N,None,Y,,,,,Y,Y,F,20,
45,9,504,2,2,11,['k'],['d'],Y,Y,['space'],Y,,,,,Y,Y,F,20,
45,10,505,10,10,11,['k'],['k'],N,N,None,Y,,,,,Y,Y,F,20,
46,0,506,9,9,11,['d'],['d'],N,N,['space'],N,,,,,Y,Y,F,20,
46,1,507,5,5,11,['k'],['d'],Y,Y,['space'],Y,,,,,Y,Y,F,20,
46,2,508,8,8,11,['d'],['d'],N,Y,['space'],Y,,,,,Y,Y,F,20,
46,3,509,2,2,11,['d'],['k'],Y,N,['k'],N,,,,,Y,Y,F,20,
46,4,510,0,0,11,['k'],['k'],N,N,None,Y,,,,,Y,Y,F,20,
46,5,511,4,4,11,['d'],['d'],N,N,None,Y,,,,,Y,Y,F,20,
46,6,512,7,7,11,['k'],['d'],Y,Y,['space'],Y,,,,,Y,Y,F,20,
46,7,513,8,8,11,['d'],['k'],Y,Y,['space'],Y,,,,,Y,Y,F,20,
46,8,514,3,3,11,['k'],['d'],Y,Y,['d'],N,,,,,Y,Y,F,20,
46,9,515,9,9,11,['d'],['d'],N,Y,['space'],Y,,,,,Y,Y,F,20,
46,10,516,7,7,11,['k'],['k'],N,N,None,Y,,,,,Y,Y,F,20,
47,0,517,6,6,11,['d'],['k'],Y,Y,['space'],Y,,,,,Y,Y,F,20,
47,1,518,6,6,11,['k'],['d'],Y,N,['space'],N,,,,,Y,Y,F,20,
47,2,519,1,1,11,['d'],['d'],N,Y,None,N,,,,,Y,Y,F,20,
47,3,520,6,6,11,['k'],['d'],Y,N,['space'],N,,,,,Y,Y,F,20,
47,4,521,8,8,11,['d'],['k'],Y,N,['space'],N,,,,,Y,Y,F,20,
47,5,522,1,1,11,['d'],['k'],Y,N,None,Y,,,,,Y,Y,F,20,
47,6,523,2,2,11,['d'],['k'],Y,Y,None,N,,,,,Y,Y,F,20,
47,7,524,5,5,11,['k'],['d'],Y,N,None,Y,,,,,Y,Y,F,20,
47,8,525,5,5,11,['d'],['k'],Y,Y,['space'],Y,,,,,Y,Y,F,20,
47,9,526,10,10,11,['k'],['k'],N,N,None,Y,,,,,Y,Y,F,20,
47,10,527,6,6,11,['k'],['k'],N,N,None,Y,,,,,Y,Y,F,20,
48,0,528,3,3,11,['d'],['k'],Y,N,None,Y,,,,,Y,Y,F,20,
48,1,529,4,4,11,['k'],['d'],Y,N,['space'],N,,,,,Y,Y,F,20,
48,2,530,1,1,11,['d'],['d'],N,Y,None,N,,,,,Y,Y,F,20,
48,3,531,3,3,11,['k'],['d'],Y,N,None,Y,,,,,Y,Y,F,20,
48,4,532,5,5,11,None,,Timed out,Y,None,N,,,,,Y,Y,F,20,
48,5,533,8,8,11,['k'],['k'],N,Y,['space'],Y,,,,,Y,Y,F,20,
48,6,534,4,4,11,['d'],['k'],Y,N,['space'],N,,,,,Y,Y,F,20,
48,7,535,3,3,11,['d'],['k'],Y,Y,['space'],Y,,,,,Y,Y,F,20,
48,8,536,7,7,11,['d'],['d'],N,N,None,Y,,,,,Y,Y,F,20,
48,9,537,5,5,11,['d'],['d'],N,N,['k'],N,,,,,Y,Y,F,20,
48,10,538,2,2,11,['d'],['k'],Y,N,['k'],N,,,,,Y,Y,F,20,
49,0,539,5,5,11,['d'],['d'],N,Y,None,N,,,,,Y,Y,F,20,
49,1,540,5,5,11,['d'],['d'],N,N,['space'],N,,,,,Y,Y,F,20,
49,2,541,6,6,11,['k'],['k'],N,N,['k'],N,,,,,Y,Y,F,20,
49,3,542,4,4,11,['d'],['d'],N,Y,['d'],N,,,,,Y,Y,F,20,
49,4,543,9,9,11,['d'],['k'],Y,Y,['k'],N,,,,,Y,Y,F,20,
49,5,544,9,9,11,['k'],['d'],Y,N,['space'],N,,,,,Y,Y,F,20,
49,6,545,5,5,11,['d'],['d'],N,N,['d'],N,,,,,Y,Y,F,20,
49,7,546,10,10,11,['d'],['k'],Y,Y,['k'],N,,,,,Y,Y,F,20,
49,8,547,7,7,11,['k'],['d'],Y,Y,['space'],Y,,,,,Y,Y,F,20,
49,9,548,6,6,11,['d'],['d'],N,Y,['space'],Y,,,,,Y,Y,F,20,
49,10,549,2,2,11,['k'],['d'],Y,N,None,Y,27,26,21,,Y,Y,F,20,
50,0,550,4,4,12,['k'],['k'],N,,,,,,,,Y,Y,F,20,
50,1,551,8,8,12,['d'],['k'],Y,,,,,,,,Y,Y,F,20,
50,2,552,5,5,12,['k'],['d'],Y,N,['space'],N,,,,,Y,Y,F,20,
50,3,553,4,4,12,['d'],['k'],Y,N,None,Y,,,,,Y,Y,F,20,
50,4,554,2,2,12,['d'],['d'],N,N,None,Y,,,,,Y,Y,F,20,
50,5,555,7,7,12,['k'],['d'],Y,N,None,Y,,,,,Y,Y,F,20,
50,6,556,4,4,12,['d'],['k'],Y,Y,None,N,,,,,Y,Y,F,20,
50,7,557,2,2,12,['k'],['d'],Y,N,None,Y,,,,,Y,Y,F,20,
50,8,558,5,5,12,['k'],['d'],Y,N,['d'],N,,,,,Y,Y,F,20,
50,9,559,4,4,12,['k'],['k'],N,N,['space'],N,,,,,Y,Y,F,20,
50,10,560,8,8,12,['k'],['d'],Y,Y,['d'],N,,,,,Y,Y,F,20,
51,0,561,2,2,12,['d'],['k'],Y,Y,['k'],N,,,,,Y,Y,F,20,
51,1,562,8,8,12,['d'],['k'],Y,N,None,Y,,,,,Y,Y,F,20,
51,2,563,2,2,12,['k'],['d'],Y,Y,['space'],Y,,,,,Y,Y,F,20,
51,3,564,4,4,12,['d'],['d'],N,Y,None,N,,,,,Y,Y,F,20,
51,4,565,0,0,12,['d'],['k'],Y,Y,['k'],N,,,,,Y,Y,F,20,
51,5,566,7,7,12,['d'],['k'],Y,Y,['k'],N,,,,,Y,Y,F,20,
51,6,567,4,4,12,['d'],['k'],Y,Y,['d'],N,,,,,Y,Y,F,20,
51,7,568,10,10,12,['k'],['d'],Y,N,['space'],N,,,,,Y,Y,F,20,
51,8,569,10,10,12,['d'],['d'],N,N,None,Y,,,,,Y,Y,F,20,
51,9,570,2,2,12,['k'],['d'],Y,N,['k'],N,,,,,Y,Y,F,20,
51,10,571,7,7,12,['d'],['d'],N,Y,['space'],Y,,,,,Y,Y,F,20,
52,0,572,6,6,12,['k'],['d'],Y,N,None,Y,,,,,Y,Y,F,20,
52,1,573,4,4,12,['d'],['k'],Y,Y,['space'],Y,,,,,Y,Y,F,20,
52,2,574,3,3,12,['k'],['k'],N,Y,['space'],Y,,,,,Y,Y,F,20,
52,3,575,10,10,12,['d'],['k'],Y,Y,None,N,,,,,Y,Y,F,20,
52,4,576,1,1,12,['k'],['k'],N,Y,['space'],Y,,,,,Y,Y,F,20,
52,5,577,5,5,12,['d'],['d'],N,Y,None,N,,,,,Y,Y,F,20,
52,6,578,9,9,12,['k'],['k'],N,Y,['space'],Y,,,,,Y,Y,F,20,
52,7,579,3,3,12,['d'],['k'],Y,N,['space'],N,,,,,Y,Y,F,20,
52,8,580,6,6,12,['d'],['k'],Y,N,['d'],N,,,,,Y,Y,F,20,
52,9,581,7,7,12,['d'],['k'],Y,Y,['space'],Y,,,,,Y,Y,F,20,
52,10,582,7,7,12,['d'],['d'],N,Y,['d'],N,,,,,Y,Y,F,20,
53,0,583,1,1,12,['k'],['k'],N,Y,['space'],Y,,,,,Y,Y,F,20,
53,1,584,0,0,12,['d'],['d'],N,N,None,Y,,,,,Y,Y,F,20,
53,2,585,6,6,12,['k'],['k'],N,Y,None,N,,,,,Y,Y,F,20,
53,3,586,7,7,12,None,,Timed out,N,['d'],N,,,,,Y,Y,F,20,
53,4,587,5,5,12,['d'],['d'],N,Y,['space'],Y,,,,,Y,Y,F,20,
53,5,588,10,10,12,['k'],['k'],N,Y,None,N,,,,,Y,Y,F,20,
53,6,589,7,7,12,['d'],['d'],N,N,['d'],N,,,,,Y,Y,F,20,
53,7,590,4,4,12,['k'],['d'],Y,N,['k'],N,,,,,Y,Y,F,20,
53,8,591,1,1,12,['k'],['d'],Y,N,None,Y,,,,,Y,Y,F,20,
53,9,592,4,4,12,None,,Timed out,N,None,Y,,,,,Y,Y,F,20,
53,10,593,10,10,12,['d'],['k'],Y,Y,['space'],Y,,,,,Y,Y,F,20,
54,0,594,4,4,12,['d'],['d'],N,Y,['space'],Y,,,,,Y,Y,F,20,
54,1,595,4,4,12,['k'],['k'],N,Y,['space'],Y,,,,,Y,Y,F,20,
54,2,596,2,2,12,['d'],['k'],Y,Y,['space'],Y,,,,,Y,Y,F,20,
54,3,597,3,3,12,['k'],['d'],Y,N,['space'],N,,,,,Y,Y,F,20,
54,4,598,6,6,12,['d'],['k'],Y,N,['space'],N,,,,,Y,Y,F,20,
54,5,599,1,1,12,['k'],['k'],N,N,['space'],N,28,23,25,,Y,Y,F,20,
