.thisRepN,.thisTrialN,.thisN,.thisIndex,.thisTrial,Block Number,Key pressed,Category,Correct?,Int Match?,Int Response,Int Correct?,Line Accuracy,Interference Accuracy,Matching Interferences,New instruction shown?,Buttons switched?,Fast?,gender,age,
0,0,0,5,5,1,['k'],['d'],N,,,,,,,,,,F,20,
0,1,1,7,7,1,['d'],['d'],Y,,,,,,,,,,F,20,
0,2,2,8,8,1,['d'],['k'],N,Y,None,N,,,,,,,F,20,
0,3,3,2,2,1,['k'],['k'],Y,N,None,Y,,,,,,,F,20,
0,4,4,3,3,1,['d'],['d'],Y,N,None,Y,,,,,,,F,20,
0,5,5,9,9,1,['d'],['d'],Y,Y,['space'],Y,,,,,,,F,20,
0,6,6,10,10,1,['k'],['k'],Y,N,None,Y,,,,,,,F,20,
0,7,7,1,1,1,['d'],['k'],N,Y,None,N,,,,,,,F,20,
0,8,8,5,5,1,['k'],['d'],N,N,None,Y,,,,,,,F,20,
0,9,9,6,6,1,['d'],['d'],Y,N,None,Y,,,,,,,F,20,
0,10,10,8,8,1,['k'],['d'],N,N,None,Y,,,,,,,F,20,
1,0,11,10,10,1,['d'],['d'],Y,N,['space'],N,,,,,,,F,20,
1,1,12,4,4,1,['d'],['d'],Y,N,None,Y,,,,,,,F,20,
1,2,13,3,3,1,['k'],['k'],Y,N,None,Y,,,,,,,F,20,
1,3,14,5,5,1,['d'],['d'],Y,N,['space'],N,,,,,,,F,20,
1,4,15,2,2,1,['k'],['k'],Y,Y,['space'],Y,,,,,,,F,20,
1,5,16,1,1,1,['d'],['d'],Y,N,None,Y,,,,,,,F,20,
1,6,17,3,3,1,['d'],['k'],N,N,['space'],N,,,,,,,F,20,
1,7,18,6,6,1,['k'],['k'],Y,Y,None,N,,,,,,,F,20,
1,8,19,9,9,1,['d'],['k'],N,N,None,Y,,,,,,,F,20,
1,9,20,3,3,1,['k'],['d'],N,Y,['space'],Y,,,,,,,F,20,
1,10,21,2,2,1,['d'],['d'],Y,Y,['space'],Y,,,,,,,F,20,
2,0,22,8,8,1,['k'],['k'],Y,N,None,Y,,,,,,,F,20,
2,1,23,0,0,1,['d'],['d'],Y,N,None,Y,,,,,,,F,20,
2,2,24,8,8,1,['k'],['d'],N,Y,['space'],Y,,,,,,,F,20,
2,3,25,3,3,1,['d'],['k'],N,N,None,Y,,,,,,,F,20,
2,4,26,0,0,1,['d'],['k'],N,Y,['space'],Y,,,,,,,F,20,
2,5,27,2,2,1,['k'],['d'],N,N,None,Y,,,,,,,F,20,
2,6,28,4,4,1,['d'],['d'],Y,Y,['space'],Y,,,,,,,F,20,
2,7,29,8,8,1,['d'],['d'],Y,N,None,Y,,,,,,,F,20,
2,8,30,1,1,1,['k'],['k'],Y,N,None,Y,,,,,,,F,20,
2,9,31,0,0,1,['d'],['d'],Y,N,None,Y,,,,,,,F,20,
2,10,32,10,10,1,['k'],['d'],N,Y,['space'],Y,,,,,,,F,20,
3,0,33,8,8,1,['k'],['k'],Y,N,None,Y,,,,,,,F,20,
3,1,34,2,2,1,['k'],['d'],N,N,None,Y,,,,,,,F,20,
3,2,35,10,10,1,['d'],['d'],Y,N,None,Y,,,,,,,F,20,
3,3,36,6,6,1,['k'],['k'],Y,N,None,Y,,,,,,,F,20,
3,4,37,6,6,1,['k'],['k'],Y,N,None,Y,,,,,,,F,20,
3,5,38,6,6,1,['d'],['k'],N,N,None,Y,,,,,,,F,20,
3,6,39,10,10,1,['k'],['d'],N,Y,['space'],Y,,,,,,,F,20,
3,7,40,7,7,1,['k'],['d'],N,N,None,Y,,,,,,,F,20,
3,8,41,6,6,1,['d'],['d'],Y,Y,['space'],Y,,,,,,,F,20,
3,9,42,1,1,1,['k'],['k'],Y,N,None,Y,,,,,,,F,20,
3,10,43,5,5,1,['k'],['k'],Y,N,['space'],N,,,,,,,F,20,
4,0,44,3,3,1,['d'],['d'],Y,Y,None,N,,,,,,,F,20,
4,1,45,3,3,1,['d'],['d'],Y,Y,['space'],Y,,,,,,,F,20,
4,2,46,10,10,1,['k'],['d'],N,N,None,Y,,,,,,,F,20,
4,3,47,9,9,1,['k'],['d'],N,N,None,Y,,,,,,,F,20,
4,4,48,1,1,1,['d'],['d'],Y,Y,['space'],Y,,,,,,,F,20,
4,5,49,1,1,1,['k'],['d'],N,N,None,Y,30,40,16,,,,F,20,
4,6,50,1,1,2,['k'],['d'],N,,,,,,,,,,F,20,
4,7,51,0,0,2,['d'],['d'],Y,,,,,,,,,,F,20,
4,8,52,4,4,2,['k'],['k'],Y,N,None,Y,,,,,,,F,20,
4,9,53,8,8,2,['d'],['d'],Y,N,None,Y,,,,,,,F,20,
4,10,54,2,2,2,['k'],['d'],N,Y,['space'],Y,,,,,,,F,20,
5,0,55,7,7,2,['d'],['d'],Y,Y,['space'],Y,,,,,,,F,20,
5,1,56,8,8,2,['d'],['d'],Y,Y,['space'],Y,,,,,,,F,20,
5,2,57,5,5,2,['d'],['d'],Y,N,None,Y,,,,,,,F,20,
5,3,58,7,7,2,['k'],['k'],Y,Y,['space'],Y,,,,,,,F,20,
5,4,59,8,8,2,['d'],['k'],N,Y,['d'],N,,,,,,,F,20,
5,5,60,0,0,2,['d'],['k'],N,Y,['space'],Y,,,,,,,F,20,
5,6,61,5,5,2,['k'],['k'],Y,Y,None,N,,,,,,,F,20,
5,7,62,2,2,2,['k'],['k'],Y,Y,None,N,,,,,,,F,20,
5,8,63,4,4,2,['k'],['k'],Y,N,None,Y,,,,,,,F,20,
5,9,64,7,7,2,['d'],['k'],N,N,None,Y,,,,,,,F,20,
5,10,65,0,0,2,['k'],['d'],N,Y,['space'],Y,,,,,,,F,20,
6,0,66,1,1,2,['d'],['k'],N,N,None,Y,,,,,,,F,20,
6,1,67,0,0,2,['k'],['k'],Y,N,['k'],N,,,,,,,F,20,
6,2,68,1,1,2,['d'],['d'],Y,N,None,Y,,,,,,,F,20,
6,3,69,10,10,2,['k'],['d'],N,Y,None,N,,,,,,,F,20,
6,4,70,0,0,2,['d'],['d'],Y,Y,['space'],Y,,,,,,,F,20,
6,5,71,2,2,2,['d'],['k'],N,Y,None,N,,,,,,,F,20,
6,6,72,9,9,2,['k'],['k'],Y,N,['space'],N,,,,,,,F,20,
6,7,73,9,9,2,['k'],['d'],N,Y,None,N,,,,,,,F,20,
6,8,74,4,4,2,['d'],['d'],Y,Y,['space'],Y,,,,,,,F,20,
6,9,75,4,4,2,['k'],['k'],Y,N,None,Y,,,,,,,F,20,
6,10,76,1,1,2,['d'],['d'],Y,N,None,Y,,,,,,,F,20,
7,0,77,10,10,2,['k'],['d'],N,N,None,Y,,,,,,,F,20,
7,1,78,0,0,2,['k'],['d'],N,Y,['space'],Y,,,,,,,F,20,
7,2,79,4,4,2,['d'],['k'],N,Y,['space'],Y,,,,,,,F,20,
7,3,80,3,3,2,['k'],['d'],N,Y,None,N,,,,,,,F,20,
7,4,81,8,8,2,['d'],['d'],Y,Y,['space'],Y,,,,,,,F,20,
7,5,82,3,3,2,['k'],['k'],Y,Y,['space'],Y,,,,,,,F,20,
7,6,83,1,1,2,['k'],['k'],Y,N,['space'],N,,,,,,,F,20,
7,7,84,0,0,2,['k'],['k'],Y,N,None,Y,,,,,,,F,20,
7,8,85,7,7,2,['k'],['k'],Y,N,None,Y,,,,,,,F,20,
7,9,86,9,9,2,['k'],['d'],N,N,None,Y,,,,,,,F,20,
7,10,87,3,3,2,['d'],['d'],Y,Y,['space'],Y,,,,,,,F,20,
8,0,88,0,0,2,['d'],['d'],Y,Y,['space'],Y,,,,,,,F,20,
8,1,89,6,6,2,['d'],['d'],Y,Y,['space'],Y,,,,,,,F,20,
8,2,90,4,4,2,['d'],['d'],Y,N,None,Y,,,,,,,F,20,
8,3,91,9,9,2,['k'],['k'],Y,Y,None,N,,,,,,,F,20,
8,4,92,1,1,2,['k'],['d'],N,N,None,Y,,,,,,,F,20,
8,5,93,5,5,2,['d'],['k'],N,N,None,Y,,,,,,,F,20,
8,6,94,0,0,2,['k'],['k'],Y,Y,['space'],Y,,,,,,,F,20,
8,7,95,5,5,2,['d'],['k'],N,N,['space'],N,,,,,,,F,20,
8,8,96,5,5,2,['k'],['k'],Y,Y,None,N,,,,,,,F,20,
8,9,97,7,7,2,['d'],['d'],Y,N,None,Y,,,,,,,F,20,
8,10,98,6,6,2,['k'],['k'],Y,N,None,Y,,,,,,,F,20,
9,0,99,2,2,2,['d'],['k'],N,N,None,Y,31,35,25,,,,F,20,
9,1,100,8,8,3,['k'],['d'],N,,,,,,,,,,F,20,
9,2,101,2,2,3,['d'],['k'],N,,,,,,,,,,F,20,
9,3,102,6,6,3,['k'],['d'],N,N,None,Y,,,,,,,F,20,
9,4,103,4,4,3,['d'],['d'],Y,Y,['space'],Y,,,,,,,F,20,
9,5,104,2,2,3,['k'],['k'],Y,Y,['space'],Y,,,,,,,F,20,
9,6,105,8,8,3,['k'],['k'],Y,N,None,Y,,,,,,,F,20,
9,7,106,7,7,3,['d'],['d'],Y,Y,['space'],Y,,,,,,,F,20,
9,8,107,4,4,3,['d'],['d'],Y,N,None,Y,,,,,,,F,20,
9,9,108,0,0,3,['d'],['d'],Y,N,None,Y,,,,,,,F,20,
9,10,109,8,8,3,['k'],['d'],N,Y,['space'],Y,,,,,,,F,20,
10,0,110,9,9,3,['d'],['k'],N,N,None,Y,,,,,,,F,20,
10,1,111,5,5,3,['k'],['d'],N,Y,['space'],Y,,,,,,,F,20,
10,2,112,6,6,3,['d'],['k'],N,Y,['space'],Y,,,,,,,F,20,
10,3,113,4,4,3,['k'],['d'],N,N,None,Y,,,,,,,F,20,
10,4,114,1,1,3,['d'],['d'],Y,Y,['space'],Y,,,,,,,F,20,
10,5,115,7,7,3,['k'],['k'],Y,Y,None,N,,,,,,,F,20,
10,6,116,10,10,3,['d'],['k'],N,Y,None,N,,,,,,,F,20,
10,7,117,10,10,3,['k'],['d'],N,N,['space'],N,,,,,,,F,20,
10,8,118,6,6,3,['d'],['d'],Y,Y,['d'],N,,,,,,,F,20,
10,9,119,4,4,3,['k'],['d'],N,Y,None,N,,,,,,,F,20,
10,10,120,7,7,3,['d'],['d'],Y,Y,['space'],Y,,,,,,,F,20,
11,0,121,9,9,3,['k'],['d'],N,N,None,Y,,,,,,,F,20,
11,1,122,7,7,3,['d'],['k'],N,Y,['space'],Y,,,,,,,F,20,
11,2,123,10,10,3,['k'],['k'],Y,Y,None,N,,,,,,,F,20,
11,3,124,6,6,3,['k'],['d'],N,Y,['space'],Y,,,,,,,F,20,
11,4,125,0,0,3,['d'],['k'],N,Y,['space'],Y,,,,,,,F,20,
11,5,126,3,3,3,['k'],['d'],N,N,None,Y,,,,,,,F,20,
11,6,127,3,3,3,['k'],['d'],N,N,None,Y,,,,,,,F,20,
11,7,128,9,9,3,['d'],['k'],N,N,None,Y,,,,,,,F,20,
11,8,129,0,0,3,['k'],['d'],N,Y,['k'],N,,,,,,,F,20,
11,9,130,7,7,3,['d'],['k'],N,N,None,Y,,,,,,,F,20,
11,10,131,9,9,3,['k'],['d'],N,N,None,Y,,,,,,,F,20,
12,0,132,5,5,3,['k'],['k'],Y,N,None,Y,,,,,,,F,20,
12,1,133,6,6,3,['d'],['k'],N,Y,['space'],Y,,,,,,,F,20,
12,2,134,6,6,3,['k'],['d'],N,N,None,Y,,,,,,,F,20,
12,3,135,5,5,3,['d'],['k'],N,N,['space'],N,,,,,,,F,20,
12,4,136,4,4,3,['k'],['k'],Y,N,None,Y,,,,,,,F,20,
12,5,137,4,4,3,['d'],['k'],N,Y,['space'],Y,,,,,,,F,20,
12,6,138,3,3,3,['k'],['k'],Y,Y,['space'],Y,,,,,,,F,20,
12,7,139,6,6,3,['k'],['d'],N,N,None,Y,,,,,,,F,20,
12,8,140,6,6,3,['d'],['d'],Y,Y,['space'],Y,,,,,,,F,20,
12,9,141,8,8,3,['k'],['d'],N,Y,['space'],Y,,,,,,,F,20,
12,10,142,8,8,3,['k'],['k'],Y,N,None,Y,,,,,,,F,20,
13,0,143,10,10,3,['k'],['d'],N,Y,['space'],Y,,,,,,,F,20,
13,1,144,8,8,3,['k'],['k'],Y,Y,None,N,,,,,,,F,20,
13,2,145,0,0,3,['k'],['k'],Y,Y,['space'],Y,,,,,,,F,20,
13,3,146,5,5,3,['k'],['d'],N,N,None,Y,,,,,,,F,20,
13,4,147,2,2,3,['d'],['k'],N,N,None,Y,,,,,,,F,20,
13,5,148,5,5,3,['k'],['d'],N,N,None,Y,,,,,,,F,20,
13,6,149,7,7,3,['k'],['k'],Y,N,None,Y,19,39,25,,,,F,20,
13,7,150,8,8,4,['k'],['k'],Y,,,,,,,,,,F,20,
13,8,151,7,7,4,['k'],['d'],N,,,,,,,,,,F,20,
13,9,152,4,4,4,['d'],['d'],Y,Y,['space'],Y,,,,,,,F,20,
13,10,153,5,5,4,['k'],['d'],N,N,None,Y,,,,,,,F,20,
14,0,154,2,2,4,['d'],['d'],Y,Y,['space'],Y,,,,,,,F,20,
14,1,155,1,1,4,['k'],['k'],Y,N,None,Y,,,,,,,F,20,
14,2,156,10,10,4,['d'],['k'],N,N,None,Y,,,,,,,F,20,
14,3,157,5,5,4,['k'],['d'],N,N,None,Y,,,,,,,F,20,
14,4,158,1,1,4,['d'],['k'],N,N,None,Y,,,,,,,F,20,
14,5,159,7,7,4,['k'],['k'],Y,N,None,Y,,,,,,,F,20,
14,6,160,1,1,4,['d'],['d'],Y,Y,['space'],Y,,,,,,,F,20,
14,7,161,0,0,4,['k'],['k'],Y,Y,['space'],Y,,,,,,,F,20,
14,8,162,9,9,4,['d'],['d'],Y,N,None,Y,,,,,,,F,20,
14,9,163,7,7,4,['k'],['d'],N,Y,['space'],Y,,,,,,,F,20,
14,10,164,2,2,4,['d'],['k'],N,Y,['space'],Y,,,,,,,F,20,
15,0,165,4,4,4,['k'],['k'],Y,N,None,Y,,,,,,,F,20,
15,1,166,0,0,4,['d'],['k'],N,N,None,Y,,,,,,,F,20,
15,2,167,10,10,4,['k'],['k'],Y,N,None,Y,,,,,,,F,20,
15,3,168,9,9,4,['k'],['d'],N,N,None,Y,,,,,,,F,20,
15,4,169,1,1,4,['d'],['d'],Y,Y,['space'],Y,,,,,,,F,20,
15,5,170,3,3,4,['k'],['k'],Y,N,None,Y,,,,,,,F,20,
15,6,171,8,8,4,['d'],['k'],N,N,None,Y,,,,,,,F,20,
15,7,172,6,6,4,['k'],['d'],N,Y,['space'],Y,,,,,,,F,20,
15,8,173,1,1,4,['k'],['d'],N,Y,['space'],Y,,,,,,,F,20,
15,9,174,1,1,4,['d'],['d'],Y,Y,['space'],Y,,,,,,,F,20,
15,10,175,10,10,4,['k'],['d'],N,N,None,Y,,,,,,,F,20,
16,0,176,2,2,4,['d'],['d'],Y,N,None,Y,,,,,,,F,20,
16,1,177,4,4,4,['k'],['d'],N,Y,['space'],Y,,,,,,,F,20,
16,2,178,3,3,4,['d'],['k'],N,Y,['space'],Y,,,,,,,F,20,
16,3,179,3,3,4,['k'],['k'],Y,Y,['space'],Y,,,,,,,F,20,
16,4,180,9,9,4,['k'],['d'],N,Y,['space'],Y,,,,,,,F,20,
16,5,181,0,0,4,['d'],['d'],Y,N,None,Y,,,,,,,F,20,
16,6,182,4,4,4,['k'],['k'],Y,N,None,Y,,,,,,,F,20,
16,7,183,0,0,4,['d'],['d'],Y,N,None,Y,,,,,,,F,20,
16,8,184,6,6,4,['k'],['k'],Y,Y,['space'],Y,,,,,,,F,20,
16,9,185,9,9,4,['k'],['d'],N,Y,['space'],Y,,,,,,,F,20,
16,10,186,4,4,4,['d'],['k'],N,N,['space'],N,,,,,,,F,20,
17,0,187,4,4,4,['k'],['k'],Y,Y,['k'],N,,,,,,,F,20,
17,1,188,9,9,4,['k'],['k'],Y,Y,['space'],Y,,,,,,,F,20,
17,2,189,2,2,4,['d'],['k'],N,N,None,Y,,,,,,,F,20,
17,3,190,7,7,4,['d'],['d'],Y,N,None,Y,,,,,,,F,20,
17,4,191,9,9,4,['k'],['d'],N,Y,['space'],Y,,,,,,,F,20,
17,5,192,8,8,4,['k'],['k'],Y,N,None,Y,,,,,,,F,20,
17,6,193,4,4,4,['k'],['d'],N,N,None,Y,,,,,,,F,20,
17,7,194,5,5,4,['d'],['k'],N,Y,['space'],Y,,,,,,,F,20,
17,8,195,10,10,4,['k'],['k'],Y,N,None,Y,,,,,,,F,20,
17,9,196,7,7,4,['d'],['d'],Y,Y,['space'],Y,,,,,,,F,20,
17,10,197,3,3,4,['k'],['k'],Y,Y,['space'],Y,,,,,,,F,20,
18,0,198,8,8,4,['d'],['d'],Y,N,None,Y,,,,,,,F,20,
18,1,199,0,0,4,['k'],['k'],Y,Y,['space'],Y,28,46,23,,,,F,20,
18,2,200,7,7,5,['k'],['d'],N,,,,,,,,,,F,20,
18,3,201,8,8,5,['d'],['d'],Y,,,,,,,,,,F,20,
18,4,202,0,0,5,['k'],['k'],Y,N,None,Y,,,,,,,F,20,
18,5,203,1,1,5,['k'],['d'],N,Y,['space'],Y,,,,,,,F,20,
18,6,204,6,6,5,['k'],['d'],N,Y,['space'],Y,,,,,,,F,20,
18,7,205,5,5,5,['k'],['d'],N,N,None,Y,,,,,,,F,20,
18,8,206,9,9,5,['d'],['k'],N,Y,['space'],Y,,,,,,,F,20,
18,9,207,7,7,5,['k'],['k'],Y,Y,['space'],Y,,,,,,,F,20,
18,10,208,5,5,5,['d'],['d'],Y,N,None,Y,,,,,,,F,20,
19,0,209,4,4,5,['k'],['d'],N,N,None,Y,,,,,,,F,20,
19,1,210,9,9,5,['d'],['k'],N,N,None,Y,,,,,,,F,20,
19,2,211,8,8,5,['k'],['d'],N,N,None,Y,,,,,,,F,20,
19,3,212,5,5,5,['d'],['d'],Y,N,None,Y,,,,,,,F,20,
19,4,213,0,0,5,['k'],['k'],Y,Y,None,N,,,,,,,F,20,
19,5,214,1,1,5,['d'],['d'],Y,N,None,Y,,,,,,,F,20,
19,6,215,4,4,5,['d'],['k'],N,N,None,Y,,,,,,,F,20,
19,7,216,4,4,5,['k'],['d'],N,Y,['space'],Y,,,,,,,F,20,
19,8,217,5,5,5,['k'],['k'],Y,Y,['space'],Y,,,,,,,F,20,
19,9,218,3,3,5,['k'],['d'],N,Y,['space'],Y,,,,,,,F,20,
19,10,219,3,3,5,['d'],['k'],N,Y,['space'],Y,,,,,,,F,20,
20,0,220,5,5,5,['k'],['d'],N,Y,['space'],Y,,,,,,,F,20,
20,1,221,10,10,5,['d'],['d'],Y,Y,['space'],Y,,,,,,,F,20,
20,2,222,4,4,5,['k'],['d'],N,N,None,Y,,,,,,,F,20,
20,3,223,7,7,5,['d'],['k'],N,N,None,Y,,,,,,,F,20,
20,4,224,6,6,5,['k'],['d'],N,Y,['space'],Y,,,,,,,F,20,
20,5,225,8,8,5,['d'],['k'],N,N,None,Y,,,,,,,F,20,
20,6,226,1,1,5,['k'],['d'],N,Y,['space'],Y,,,,,,,F,20,
20,7,227,8,8,5,['k'],['k'],Y,Y,['space'],Y,,,,,,,F,20,
20,8,228,1,1,5,['d'],['k'],N,N,None,Y,,,,,,,F,20,
20,9,229,2,2,5,['k'],['k'],Y,N,None,Y,,,,,,,F,20,
20,10,230,9,9,5,['k'],['d'],N,Y,['space'],Y,,,,,,,F,20,
21,0,231,8,8,5,['d'],['d'],Y,Y,['space'],Y,,,,,,,F,20,
21,1,232,2,2,5,['k'],['k'],Y,Y,['space'],Y,,,,,,,F,20,
21,2,233,3,3,5,['k'],['d'],N,N,None,Y,,,,,,,F,20,
21,3,234,9,9,5,['d'],['k'],N,Y,['space'],Y,,,,,,,F,20,
21,4,235,2,2,5,['k'],['k'],Y,N,None,Y,,,,,,,F,20,
21,5,236,3,3,5,['d'],['k'],N,Y,['space'],Y,,,,,,,F,20,
21,6,237,5,5,5,['k'],['k'],Y,N,None,Y,,,,,,,F,20,
21,7,238,1,1,5,['k'],['d'],N,N,None,Y,,,,,,,F,20,
21,8,239,5,5,5,['d'],['d'],Y,N,None,Y,,,,,,,F,20,
21,9,240,3,3,5,['k'],['k'],Y,Y,['space'],Y,,,,,,,F,20,
21,10,241,7,7,5,['k'],['d'],N,Y,['space'],Y,,,,,,,F,20,
22,0,242,8,8,5,['d'],['k'],N,N,None,Y,,,,,,,F,20,
22,1,243,9,9,5,['k'],['k'],Y,N,None,Y,,,,,,,F,20,
22,2,244,5,5,5,['k'],['k'],Y,N,None,Y,,,,,,,F,20,
22,3,245,4,4,5,['k'],['k'],Y,N,None,Y,,,,,,,F,20,
22,4,246,4,4,5,['d'],['d'],Y,N,None,Y,,,,,,,F,20,
22,5,247,0,0,5,['k'],['k'],Y,Y,['space'],Y,,,,,,,F,20,
22,6,248,5,5,5,['k'],['k'],Y,Y,['space'],Y,,,,,,,F,20,
22,7,249,9,9,5,['k'],['d'],N,N,None,Y,23,47,23,,,,F,20,
22,8,250,0,0,6,['d'],['k'],N,,,,,,,,,,F,20,
22,9,251,8,8,6,['k'],['k'],Y,,,,,,,,,,F,20,
22,10,252,6,6,6,['k'],['d'],N,N,None,Y,,,,,,,F,20,
23,0,253,6,6,6,['k'],['d'],N,N,None,Y,,,,,,,F,20,
23,1,254,0,0,6,['d'],['k'],N,Y,['space'],Y,,,,,,,F,20,
23,2,255,4,4,6,['k'],['k'],Y,N,None,Y,,,,,,,F,20,
23,3,256,1,1,6,['k'],['k'],Y,Y,['space'],Y,,,,,,,F,20,
23,4,257,1,1,6,['d'],['k'],N,Y,['space'],Y,,,,,,,F,20,
23,5,258,7,7,6,['k'],['d'],N,N,None,Y,,,,,,,F,20,
23,6,259,7,7,6,['k'],['k'],Y,Y,['space'],Y,,,,,,,F,20,
23,7,260,1,1,6,['k'],['k'],Y,Y,['space'],Y,,,,,,,F,20,
23,8,261,9,9,6,['d'],['d'],Y,Y,None,N,,,,,,,F,20,
23,9,262,2,2,6,['k'],['k'],Y,N,None,Y,,,,,,,F,20,
23,10,263,2,2,6,['k'],['d'],N,Y,['space'],Y,,,,,,,F,20,
24,0,264,2,2,6,['k'],['k'],Y,N,None,Y,,,,,,,F,20,
24,1,265,5,5,6,['k'],['d'],N,N,None,Y,,,,,,,F,20,
24,2,266,7,7,6,['d'],['d'],Y,Y,['space'],Y,,,,,,,F,20,
24,3,267,3,3,6,['k'],['d'],N,Y,['space'],Y,,,,,,,F,20,
24,4,268,3,3,6,['d'],['d'],Y,Y,['space'],Y,,,,,,,F,20,
24,5,269,0,0,6,['k'],['k'],Y,N,None,Y,,,,,,,F,20,
24,6,270,6,6,6,['d'],['d'],Y,N,None,Y,,,,,,,F,20,
24,7,271,9,9,6,['k'],['k'],Y,Y,['space'],Y,,,,,,,F,20,
24,8,272,5,5,6,['d'],['k'],N,N,None,Y,,,,,,,F,20,
24,9,273,1,1,6,['k'],['d'],N,Y,['space'],Y,,,,,,,F,20,
24,10,274,6,6,6,['d'],['k'],N,Y,['space'],Y,,,,,,,F,20,
25,0,275,0,0,6,['k'],['k'],Y,Y,['space'],Y,,,,,,,F,20,
25,1,276,10,10,6,['k'],['k'],Y,Y,['space'],Y,,,,,,,F,20,
25,2,277,1,1,6,['k'],['d'],N,N,None,Y,,,,,,,F,20,
25,3,278,7,7,6,['d'],['d'],Y,Y,['space'],Y,,,,,,,F,20,
25,4,279,3,3,6,['k'],['d'],N,Y,None,N,,,,,,,F,20,
25,5,280,4,4,6,['d'],['k'],N,N,None,Y,,,,,,,F,20,
25,6,281,3,3,6,['k'],['d'],N,Y,['space'],Y,,,,,,,F,20,
25,7,282,8,8,6,['d'],['k'],N,Y,None,N,,,,,,,F,20,
25,8,283,8,8,6,['k'],['d'],N,N,None,Y,,,,,,,F,20,
25,9,284,9,9,6,['k'],['k'],Y,Y,['space'],Y,,,,,,,F,20,
25,10,285,2,2,6,['k'],['k'],Y,N,None,Y,,,,,,,F,20,
26,0,286,9,9,6,['k'],['k'],Y,N,None,Y,,,,,,,F,20,
26,1,287,5,5,6,['d'],['d'],Y,N,None,Y,,,,,,,F,20,
26,2,288,9,9,6,['k'],['k'],Y,Y,['space'],Y,,,,,,,F,20,
26,3,289,2,2,6,['d'],['k'],N,Y,['space'],Y,,,,,,,F,20,
26,4,290,8,8,6,['k'],['k'],Y,Y,['space'],Y,,,,,,,F,20,
26,5,291,4,4,6,['d'],['d'],Y,N,None,Y,,,,,,,F,20,
26,6,292,3,3,6,['k'],['k'],Y,N,None,Y,,,,,,,F,20,
26,7,293,8,8,6,['k'],['d'],N,N,None,Y,,,,,,,F,20,
26,8,294,5,5,6,['d'],['d'],Y,Y,['space'],Y,,,,,,,F,20,
26,9,295,7,7,6,['d'],['k'],N,N,None,Y,,,,,,,F,20,
26,10,296,5,5,6,['k'],['k'],Y,N,None,Y,,,,,,,F,20,
27,0,297,0,0,6,['k'],['d'],N,Y,['space'],Y,,,,,,,F,20,
27,1,298,4,4,6,['d'],['d'],Y,N,None,Y,,,,,,,F,20,
27,2,299,1,1,6,['k'],['k'],Y,N,None,Y,28,45,25,,,,F,20,
27,3,300,7,7,7,['k'],['k'],Y,,,,,,,,,,F,20,
27,4,301,1,1,7,['k'],['k'],Y,,,,,,,,,,F,20,
27,5,302,5,5,7,['k'],['k'],Y,Y,['space'],Y,,,,,,,F,20,
27,6,303,5,5,7,['d'],['d'],Y,Y,['space'],Y,,,,,,,F,20,
27,7,304,7,7,7,['k'],['k'],Y,N,None,Y,,,,,,,F,20,
27,8,305,10,10,7,['d'],['d'],Y,N,None,Y,,,,,,,F,20,
27,9,306,3,3,7,['k'],['k'],Y,N,None,Y,,,,,,,F,20,
27,10,307,1,1,7,['d'],['k'],N,N,None,Y,,,,,,,F,20,
28,0,308,7,7,7,['k'],['d'],N,Y,['space'],Y,,,,,,,F,20,
28,1,309,3,3,7,['d'],['k'],N,N,None,Y,,,,,,,F,20,
28,2,310,6,6,7,['k'],['d'],N,Y,['space'],Y,,,,,,,F,20,
28,3,311,6,6,7,['k'],['k'],Y,Y,['space'],Y,,,,,,,F,20,
28,4,312,7,7,7,['k'],['d'],N,Y,['space'],Y,,,,,,,F,20,
28,5,313,5,5,7,['d'],['k'],N,Y,['space'],Y,,,,,,,F,20,
28,6,314,6,6,7,['k'],['k'],Y,Y,['space'],Y,,,,,,,F,20,
28,7,315,2,2,7,['k'],['d'],N,N,None,Y,,,,,,,F,20,
28,8,316,5,5,7,['k'],['d'],N,N,None,Y,,,,,,,F,20,
28,9,317,3,3,7,['d'],['d'],Y,Y,['space'],Y,,,,,,,F,20,
28,10,318,7,7,7,['k'],['d'],N,N,None,Y,,,,,,,F,20,
29,0,319,0,0,7,['k'],['k'],Y,N,None,Y,,,,,,,F,20,
29,1,320,2,2,7,['k'],['k'],Y,Y,['space'],Y,,,,,,,F,20,
29,2,321,0,0,7,['d'],['d'],Y,Y,['space'],Y,,,,,,,F,20,
29,3,322,9,9,7,['k'],['d'],N,N,None,Y,,,,,,,F,20,
29,4,323,8,8,7,['k'],['k'],Y,Y,['space'],Y,,,,,,,F,20,
29,5,324,10,10,7,['k'],['k'],Y,Y,['space'],Y,,,,,,,F,20,
29,6,325,10,10,7,['k'],['k'],Y,Y,['space'],Y,,,,,,,F,20,
29,7,326,8,8,7,['d'],['d'],Y,Y,['space'],Y,,,,,,,F,20,
29,8,327,2,2,7,['k'],['d'],N,Y,['space'],Y,,,,,,,F,20,
29,9,328,10,10,7,['k'],['d'],N,Y,['space'],Y,,,,,,,F,20,
29,10,329,7,7,7,['d'],['k'],N,N,None,Y,,,,,,,F,20,
30,0,330,10,10,7,['k'],['d'],N,N,None,Y,,,,,,,F,20,
30,1,331,3,3,7,['d'],['d'],Y,Y,['space'],Y,,,,,,,F,20,
30,2,332,6,6,7,['k'],['k'],Y,N,None,Y,,,,,,,F,20,
30,3,333,1,1,7,['d'],['d'],Y,Y,['space'],Y,,,,,,,F,20,
30,4,334,9,9,7,['k'],['k'],Y,N,None,Y,,,,,,,F,20,
30,5,335,0,0,7,['d'],['k'],N,N,None,Y,,,,,,,F,20,
30,6,336,8,8,7,['k'],['d'],N,N,None,Y,,,,,,,F,20,
30,7,337,4,4,7,['k'],['k'],Y,N,None,Y,,,,,,,F,20,
30,8,338,6,6,7,['d'],['k'],N,Y,['space'],Y,,,,,,,F,20,
30,9,339,4,4,7,['k'],['d'],N,N,None,Y,,,,,,,F,20,
30,10,340,1,1,7,['d'],['k'],N,N,None,Y,,,,,,,F,20,
31,0,341,6,6,7,['k'],['d'],N,Y,['space'],Y,,,,,,,F,20,
31,1,342,9,9,7,['k'],['d'],N,Y,['space'],Y,,,,,,,F,20,
31,2,343,1,1,7,['k'],['d'],N,N,None,Y,,,,,,,F,20,
31,3,344,8,8,7,['k'],['d'],N,Y,['space'],Y,,,,,,,F,20,
31,4,345,0,0,7,['d'],['d'],Y,Y,['space'],Y,,,,,,,F,20,
31,5,346,4,4,7,['k'],['d'],N,Y,['space'],Y,,,,,,,F,20,
31,6,347,4,4,7,['k'],['d'],N,N,None,Y,,,,,,,F,20,
31,7,348,7,7,7,['d'],['d'],Y,N,None,Y,,,,,,,F,20,
31,8,349,5,5,7,['k'],['k'],Y,N,None,Y,25,48,25,,,,F,20,
31,9,350,3,3,8,['k'],['k'],Y,,,,,,,,,,F,20,
31,10,351,7,7,8,['d'],['k'],N,,,,,,,,,,F,20,
32,0,352,10,10,8,['k'],['d'],N,N,None,Y,,,,,,,F,20,
32,1,353,9,9,8,['d'],['k'],N,N,None,Y,,,,,,,F,20,
32,2,354,2,2,8,['k'],['k'],Y,Y,['space'],Y,,,,,,,F,20,
32,3,355,7,7,8,['k'],['k'],Y,Y,['space'],Y,,,,,,,F,20,
32,4,356,6,6,8,['k'],['k'],Y,N,None,Y,,,,,,,F,20,
32,5,357,1,1,8,['d'],['k'],N,Y,['space'],Y,,,,,,,F,20,
32,6,358,3,3,8,['k'],['k'],Y,Y,['space'],Y,,,,,,,F,20,
32,7,359,6,6,8,['k'],['k'],Y,N,None,Y,,,,,,,F,20,
32,8,360,3,3,8,['k'],['k'],Y,Y,['space'],Y,,,,,,,F,20,
32,9,361,4,4,8,['k'],['k'],Y,Y,['space'],Y,,,,,,,F,20,
32,10,362,3,3,8,['k'],['d'],N,Y,['space'],Y,,,,,,,F,20,
33,0,363,10,10,8,['d'],['d'],Y,Y,['space'],Y,,,,,,,F,20,
33,1,364,8,8,8,['d'],['d'],Y,N,None,Y,,,,,,,F,20,
33,2,365,0,0,8,['d'],['k'],N,Y,['space'],Y,,,,,,,F,20,
33,3,366,5,5,8,['k'],['d'],N,Y,['space'],Y,,,,,,,F,20,
33,4,367,1,1,8,['k'],['k'],Y,Y,['space'],Y,,,,,,,F,20,
33,5,368,4,4,8,['d'],['d'],Y,N,None,Y,,,,,,,F,20,
33,6,369,0,0,8,['k'],['d'],N,Y,['space'],Y,,,,,,,F,20,
33,7,370,1,1,8,['k'],['k'],Y,N,None,Y,,,,,,,F,20,
33,8,371,3,3,8,['d'],['k'],N,N,None,Y,,,,,,,F,20,
33,9,372,9,9,8,['k'],['d'],N,Y,['space'],Y,,,,,,,F,20,
33,10,373,8,8,8,['d'],['k'],N,Y,['space'],Y,,,,,,,F,20,
34,0,374,0,0,8,['k'],['d'],N,Y,['space'],Y,,,,,,,F,20,
34,1,375,9,9,8,['k'],['k'],Y,Y,['space'],Y,,,,,,,F,20,
34,2,376,10,10,8,['k'],['d'],N,Y,['space'],Y,,,,,,,F,20,
34,3,377,7,7,8,['k'],['k'],Y,Y,['space'],Y,,,,,,,F,20,
34,4,378,10,10,8,['k'],['k'],Y,Y,['space'],Y,,,,,,,F,20,
34,5,379,2,2,8,['d'],['k'],N,N,None,Y,,,,,,,F,20,
34,6,380,2,2,8,['k'],['k'],Y,N,None,Y,,,,,,,F,20,
34,7,381,0,0,8,['d'],['d'],Y,Y,['space'],Y,,,,,,,F,20,
34,8,382,5,5,8,['k'],['k'],Y,Y,['space'],Y,,,,,,,F,20,
34,9,383,1,1,8,['d'],['d'],Y,Y,['space'],Y,,,,,,,F,20,
34,10,384,10,10,8,['k'],['d'],N,N,None,Y,,,,,,,F,20,
35,0,385,10,10,8,['d'],['d'],Y,N,None,Y,,,,,,,F,20,
35,1,386,2,2,8,['k'],['k'],Y,Y,['space'],Y,,,,,,,F,20,
35,2,387,3,3,8,['d'],['k'],N,N,None,Y,,,,,,,F,20,
35,3,388,2,2,8,['k'],['k'],Y,Y,['space'],Y,,,,,,,F,20,
35,4,389,10,10,8,['k'],['d'],N,N,None,Y,,,,,,,F,20,
35,5,390,9,9,8,['d'],['d'],Y,N,None,Y,,,,,,,F,20,
35,6,391,2,2,8,['k'],['k'],Y,N,None,Y,,,,,,,F,20,
35,7,392,9,9,8,['d'],['d'],Y,N,None,Y,,,,,,,F,20,
35,8,393,10,10,8,['k'],['d'],N,Y,['space'],Y,,,,,,,F,20,
35,9,394,0,0,8,['d'],['d'],Y,N,None,Y,,,,,,,F,20,
35,10,395,0,0,8,['k'],['k'],Y,N,None,Y,,,,,,,F,20,
36,0,396,2,2,8,['k'],['d'],N,N,None,Y,,,,,,,F,20,
36,1,397,2,2,8,['k'],['k'],Y,N,None,Y,,,,,,,F,20,
36,2,398,3,3,8,['k'],['d'],N,N,None,Y,,,,,,,F,20,
36,3,399,4,4,8,['d'],['d'],Y,N,None,Y,30,48,25,,,,F,20,
36,4,400,8,8,9,['d'],['k'],N,,,,,,,,,,F,20,
36,5,401,9,9,9,['k'],['d'],N,,,,,,,,,,F,20,
36,6,402,4,4,9,['k'],['d'],N,Y,['space'],Y,,,,,,,F,20,
36,7,403,8,8,9,['d'],['k'],N,Y,['space'],Y,,,,,,,F,20,
36,8,404,3,3,9,['k'],['k'],Y,N,None,Y,,,,,,,F,20,
36,9,405,2,2,9,['k'],['k'],Y,N,None,Y,,,,,,,F,20,
36,10,406,3,3,9,['d'],['k'],N,N,None,Y,,,,,,,F,20,
37,0,407,3,3,9,['k'],['d'],N,Y,['space'],Y,,,,,,,F,20,
37,1,408,6,6,9,['d'],['d'],Y,N,None,Y,,,,,,,F,20,
37,2,409,2,2,9,['k'],['d'],N,N,None,Y,,,,,,,F,20,
37,3,410,5,5,9,['d'],['d'],Y,Y,['space'],Y,,,,,,,F,20,
37,4,411,2,2,9,['k'],['d'],N,Y,['space'],Y,,,,,,,F,20,
37,5,412,8,8,9,['d'],['k'],N,N,None,Y,,,,,,,F,20,
37,6,413,8,8,9,['d'],['k'],N,N,None,Y,,,,,,,F,20,
37,7,414,0,0,9,['k'],['d'],N,N,['space'],N,,,,,,,F,20,
37,8,415,4,4,9,['d'],['d'],Y,Y,['space'],Y,,,,,,,F,20,
37,9,416,1,1,9,['k'],['k'],Y,N,None,Y,,,,,,,F,20,
37,10,417,1,1,9,['d'],['d'],Y,Y,['space'],Y,,,,,,,F,20,
38,0,418,6,6,9,['k'],['d'],N,Y,['space'],Y,,,,,,,F,20,
38,1,419,9,9,9,['d'],['k'],N,N,None,Y,,,,,,,F,20,
38,2,420,1,1,9,['k'],['k'],Y,Y,['space'],Y,,,,,,,F,20,
38,3,421,8,8,9,['k'],['k'],Y,N,None,Y,,,,,,,F,20,
38,4,422,1,1,9,['k'],['d'],N,Y,['space'],Y,,,,,,,F,20,
38,5,423,5,5,9,['d'],['k'],N,Y,['space'],Y,,,,,,,F,20,
38,6,424,9,9,9,['k'],['d'],N,N,None,Y,,,,,,,F,20,
38,7,425,4,4,9,['d'],['d'],Y,Y,['space'],Y,,,,,,,F,20,
38,8,426,1,1,9,['k'],['d'],N,Y,['space'],Y,,,,,,,F,20,
38,9,427,7,7,9,['k'],['d'],N,N,None,Y,,,,,,,F,20,
38,10,428,10,10,9,['d'],['d'],Y,N,None,Y,,,,,,,F,20,
39,0,429,2,2,9,['k'],['k'],Y,Y,['space'],Y,,,,,,,F,20,
39,1,430,6,6,9,['d'],['d'],Y,Y,['space'],Y,,,,,,,F,20,
39,2,431,4,4,9,['k'],['k'],Y,Y,['space'],Y,,,,,,,F,20,
39,3,432,4,4,9,['d'],['d'],Y,Y,['space'],Y,,,,,,,F,20,
39,4,433,5,5,9,['k'],['k'],Y,N,None,Y,,,,,,,F,20,
39,5,434,2,2,9,['k'],['k'],Y,Y,['space'],Y,,,,,,,F,20,
39,6,435,0,0,9,['d'],['k'],N,Y,['space'],Y,,,,,,,F,20,
39,7,436,4,4,9,['k'],['k'],Y,Y,['space'],Y,,,,,,,F,20,
39,8,437,6,6,9,['k'],['k'],Y,Y,['space'],Y,,,,,,,F,20,
39,9,438,10,10,9,['d'],['k'],N,N,None,Y,,,,,,,F,20,
39,10,439,8,8,9,['k'],['d'],N,Y,['space'],Y,,,,,,,F,20,
40,0,440,0,0,9,['k'],['k'],Y,Y,['space'],Y,,,,,,,F,20,
40,1,441,3,3,9,['d'],['d'],Y,N,None,Y,,,,,,,F,20,
40,2,442,7,7,9,['k'],['k'],Y,N,None,Y,,,,,,,F,20,
40,3,443,4,4,9,['k'],['d'],N,Y,['space'],Y,,,,,,,F,20,
40,4,444,4,4,9,['d'],['k'],N,Y,['d'],N,,,,,,,F,20,
40,5,445,10,10,9,['k'],['d'],N,N,None,Y,,,,,,,F,20,
40,6,446,2,2,9,['k'],['k'],Y,N,None,Y,,,,,,,F,20,
40,7,447,7,7,9,['k'],['d'],N,N,None,Y,,,,,,,F,20,
40,8,448,3,3,9,['k'],['d'],N,N,None,Y,,,,,,,F,20,
40,9,449,6,6,9,['d'],['d'],Y,N,None,Y,24,46,25,,,,F,20,
40,10,450,3,3,10,['k'],['k'],Y,,,,,,,,,,F,20,
41,0,451,9,9,10,['d'],['k'],N,,,,,,,,,,F,20,
41,1,452,10,10,10,['k'],['k'],Y,N,None,Y,,,,,,,F,20,
41,2,453,0,0,10,['d'],['k'],N,Y,['space'],Y,,,,,,,F,20,
41,3,454,6,6,10,['k'],['d'],N,Y,['space'],Y,,,,,,,F,20,
41,4,455,5,5,10,['k'],['k'],Y,Y,['space'],Y,,,,,,,F,20,
41,5,456,7,7,10,['d'],['d'],Y,N,None,Y,,,,,,,F,20,
41,6,457,9,9,10,['k'],['k'],Y,N,None,Y,,,,,,,F,20,
41,7,458,8,8,10,['k'],['d'],N,N,None,Y,,,,,,,F,20,
41,8,459,9,9,10,['d'],['d'],Y,N,None,Y,,,,,,,F,20,
41,9,460,0,0,10,['k'],['d'],N,Y,['space'],Y,,,,,,,F,20,
41,10,461,6,6,10,['d'],['k'],N,Y,None,N,,,,,,,F,20,
42,0,462,4,4,10,['k'],['k'],Y,Y,['space'],Y,,,,,,,F,20,
42,1,463,4,4,10,['k'],['k'],Y,Y,None,N,,,,,,,F,20,
42,2,464,4,4,10,['d'],['k'],N,Y,['space'],Y,,,,,,,F,20,
42,3,465,0,0,10,['k'],['k'],Y,N,None,Y,,,,,,,F,20,
42,4,466,7,7,10,['k'],['k'],Y,N,None,Y,,,,,,,F,20,
42,5,467,1,1,10,['k'],['k'],Y,Y,['space'],Y,,,,,,,F,20,
42,6,468,1,1,10,['k'],['d'],N,Y,['space'],Y,,,,,,,F,20,
42,7,469,10,10,10,['d'],['k'],N,N,None,Y,,,,,,,F,20,
42,8,470,0,0,10,['k'],['d'],N,Y,['space'],Y,,,,,,,F,20,
42,9,471,6,6,10,['d'],['d'],Y,Y,['space'],Y,,,,,,,F,20,
42,10,472,1,1,10,['k'],['k'],Y,Y,['space'],Y,,,,,,,F,20,
43,0,473,1,1,10,['k'],['k'],Y,N,None,Y,,,,,,,F,20,
43,1,474,6,6,10,['k'],['d'],N,Y,['space'],Y,,,,,,,F,20,
43,2,475,7,7,10,['d'],['k'],N,Y,['space'],Y,,,,,,,F,20,
43,3,476,4,4,10,['k'],['d'],N,N,None,Y,,,,,,,F,20,
43,4,477,2,2,10,['d'],['d'],Y,Y,['space'],Y,,,,,,,F,20,
43,5,478,8,8,10,['k'],['k'],Y,N,None,Y,,,,,,,F,20,
43,6,479,1,1,10,['d'],['k'],N,N,None,Y,,,,,,,F,20,
43,7,480,5,5,10,['k'],['d'],N,N,None,Y,,,,,,,F,20,
43,8,481,10,10,10,['k'],['d'],N,Y,['space'],Y,,,,,,,F,20,
43,9,482,6,6,10,['d'],['k'],N,Y,['space'],Y,,,,,,,F,20,
43,10,483,6,6,10,['k'],['k'],Y,N,None,Y,,,,,,,F,20,
44,0,484,10,10,10,['k'],['k'],Y,N,None,Y,,,,,,,F,20,
44,1,485,7,7,10,['d'],['d'],Y,Y,['space'],Y,,,,,,,F,20,
44,2,486,8,8,10,['k'],['d'],N,N,None,Y,,,,,,,F,20,
44,3,487,3,3,10,['d'],['k'],N,Y,['space'],Y,,,,,,,F,20,
44,4,488,8,8,10,['k'],['k'],Y,N,['space'],N,,,,,,,F,20,
44,5,489,3,3,10,['d'],['d'],Y,N,None,Y,,,,,,,F,20,
44,6,490,8,8,10,['k'],['d'],N,Y,['space'],Y,,,,,,,F,20,
44,7,491,0,0,10,['k'],['k'],Y,N,None,Y,,,,,,,F,20,
44,8,492,10,10,10,['d'],['k'],N,N,None,Y,,,,,,,F,20,
44,9,493,2,2,10,['k'],['d'],N,Y,['space'],Y,,,,,,,F,20,
44,10,494,3,3,10,['d'],['d'],Y,N,None,Y,,,,,,,F,20,
45,0,495,7,7,10,['k'],['k'],Y,Y,['space'],Y,,,,,,,F,20,
45,1,496,6,6,10,['k'],['k'],Y,N,None,Y,,,,,,,F,20,
45,2,497,2,2,10,['d'],['k'],N,Y,['space'],Y,,,,,,,F,20,
45,3,498,5,5,10,['k'],['k'],Y,Y,['space'],Y,,,,,,,F,20,
45,4,499,4,4,10,['d'],['k'],N,N,None,Y,26,45,25,,,,F,20,
45,5,500,4,4,11,['d'],['d'],N,,,,,,,Y,Y,Y,F,20,
45,6,501,10,10,11,['k'],['d'],Y,,,,,,,,Y,Y,F,20,
45,7,502,5,5,11,['k'],['d'],Y,N,None,Y,,,,,Y,Y,F,20,
45,8,503,2,2,11,['d'],['k'],Y,N,None,Y,,,,,Y,Y,F,20,
45,9,504,5,5,11,['k'],['k'],N,N,None,Y,,,,,Y,Y,F,20,
45,10,505,4,4,11,['k'],['k'],N,N,['d'],N,,,,,Y,Y,F,20,
46,0,506,6,6,11,['k'],['k'],N,N,None,Y,,,,,Y,Y,F,20,
46,1,507,9,9,11,['d'],['d'],N,N,None,Y,,,,,Y,Y,F,20,
46,2,508,9,9,11,['k'],['k'],N,Y,['space'],Y,,,,,Y,Y,F,20,
46,3,509,10,10,11,['d'],['d'],N,N,None,Y,,,,,Y,Y,F,20,
46,4,510,10,10,11,['k'],['k'],N,Y,['space'],Y,,,,,Y,Y,F,20,
46,5,511,10,10,11,['d'],['d'],N,N,None,Y,,,,,Y,Y,F,20,
46,6,512,5,5,11,['k'],['d'],Y,Y,['space'],Y,,,,,Y,Y,F,20,
46,7,513,0,0,11,['k'],['d'],Y,Y,['space'],Y,,,,,Y,Y,F,20,
46,8,514,0,0,11,['k'],['k'],N,N,None,Y,,,,,Y,Y,F,20,
46,9,515,7,7,11,['d'],['k'],Y,N,None,Y,,,,,Y,Y,F,20,
46,10,516,6,6,11,['k'],['k'],N,N,None,Y,,,,,Y,Y,F,20,
47,0,517,8,8,11,['k'],['k'],N,N,None,Y,,,,,Y,Y,F,20,
47,1,518,10,10,11,['k'],['d'],Y,Y,['space'],Y,,,,,Y,Y,F,20,
47,2,519,9,9,11,['k'],['d'],Y,Y,['space'],Y,,,,,Y,Y,F,20,
47,3,520,7,7,11,['d'],['k'],Y,N,None,Y,,,,,Y,Y,F,20,
47,4,521,6,6,11,['k'],['d'],Y,N,None,Y,,,,,Y,Y,F,20,
47,5,522,1,1,11,['d'],['d'],N,N,None,Y,,,,,Y,Y,F,20,
47,6,523,3,3,11,['k'],['d'],Y,Y,['space'],Y,,,,,Y,Y,F,20,
47,7,524,8,8,11,['k'],['d'],Y,N,None,Y,,,,,Y,Y,F,20,
47,8,525,5,5,11,['k'],['k'],N,Y,['space'],Y,,,,,Y,Y,F,20,
47,9,526,2,2,11,['k'],['k'],N,N,None,Y,,,,,Y,Y,F,20,
47,10,527,9,9,11,['d'],['d'],N,N,None,Y,,,,,Y,Y,F,20,
48,0,528,2,2,11,['k'],['k'],N,N,None,Y,,,,,Y,Y,F,20,
48,1,529,7,7,11,['k'],['d'],Y,Y,['space'],Y,,,,,Y,Y,F,20,
48,2,530,7,7,11,['k'],['d'],Y,N,None,Y,,,,,Y,Y,F,20,
48,3,531,10,10,11,['d'],['d'],N,Y,['space'],Y,,,,,Y,Y,F,20,
48,4,532,3,3,11,['k'],['k'],N,Y,['space'],Y,,,,,Y,Y,F,20,
48,5,533,6,6,11,['d'],['k'],Y,Y,['space'],Y,,,,,Y,Y,F,20,
48,6,534,7,7,11,['k'],['k'],N,Y,['space'],Y,,,,,Y,Y,F,20,
48,7,535,8,8,11,['d'],['d'],N,Y,['space'],Y,,,,,Y,Y,F,20,
48,8,536,10,10,11,['k'],['d'],Y,Y,['space'],Y,,,,,Y,Y,F,20,
48,9,537,0,0,11,['k'],['k'],N,Y,['space'],Y,,,,,Y,Y,F,20,
48,10,538,5,5,11,['d'],['d'],N,Y,['space'],Y,,,,,Y,Y,F,20,
49,0,539,0,0,11,['k'],['d'],Y,Y,['space'],Y,,,,,Y,Y,F,20,
49,1,540,9,9,11,['k'],['k'],N,Y,['space'],Y,,,,,Y,Y,F,20,
49,2,541,10,10,11,['k'],['k'],N,N,None,Y,,,,,Y,Y,F,20,
49,3,542,10,10,11,['d'],['k'],Y,Y,['space'],Y,,,,,Y,Y,F,20,
49,4,543,10,10,11,['k'],['d'],Y,N,None,Y,,,,,Y,Y,F,20,
49,5,544,1,1,11,['d'],['k'],Y,N,None,Y,,,,,Y,Y,F,20,
49,6,545,6,6,11,['k'],['k'],N,Y,None,N,,,,,Y,Y,F,20,
49,7,546,10,10,11,None,,Timed out,N,None,Y,,,,,Y,Y,F,20,
49,8,547,9,9,11,['k'],['d'],Y,Y,None,N,,,,,Y,Y,F,20,
49,9,548,5,5,11,['k'],['d'],Y,N,None,Y,,,,,Y,Y,F,20,
49,10,549,2,2,11,['d'],['k'],Y,N,None,Y,23,45,22,,Y,Y,F,20,
50,0,550,6,6,12,['k'],['k'],N,,,,,,,,Y,Y,F,20,
50,1,551,2,2,12,['d'],['d'],N,,,,,,,,Y,Y,F,20,
50,2,552,6,6,12,['k'],['d'],Y,N,None,Y,,,,,Y,Y,F,20,
50,3,553,8,8,12,['d'],['k'],Y,N,None,Y,,,,,Y,Y,F,20,
50,4,554,0,0,12,['k'],['d'],Y,Y,['space'],Y,,,,,Y,Y,F,20,
50,5,555,2,2,12,['k'],['d'],Y,N,None,Y,,,,,Y,Y,F,20,
50,6,556,5,5,12,['d'],['k'],Y,N,None,Y,,,,,Y,Y,F,20,
50,7,557,0,0,12,['k'],['k'],N,Y,['space'],Y,,,,,Y,Y,F,20,
50,8,558,1,1,12,['d'],['k'],Y,N,None,Y,,,,,Y,Y,F,20,
50,9,559,10,10,12,['k'],['k'],N,N,None,Y,,,,,Y,Y,F,20,
50,10,560,8,8,12,['d'],['d'],N,N,None,Y,,,,,Y,Y,F,20,
51,0,561,3,3,12,['k'],['d'],Y,Y,['space'],Y,,,,,Y,Y,F,20,
51,1,562,9,9,12,['d'],['d'],N,Y,['space'],Y,,,,,Y,Y,F,20,
51,2,563,6,6,12,['k'],['k'],N,N,None,Y,,,,,Y,Y,F,20,
51,3,564,2,2,12,['k'],['d'],Y,Y,['space'],Y,,,,,Y,Y,F,20,
51,4,565,9,9,12,['k'],['d'],Y,Y,['space'],Y,,,,,Y,Y,F,20,
51,5,566,2,2,12,['d'],['k'],Y,N,None,Y,,,,,Y,Y,F,20,
51,6,567,4,4,12,['k'],['k'],N,N,None,Y,,,,,Y,Y,F,20,
51,7,568,8,8,12,['k'],['d'],Y,Y,['space'],Y,,,,,Y,Y,F,20,
51,8,569,9,9,12,['k'],['d'],Y,N,None,Y,,,,,Y,Y,F,20,
51,9,570,1,1,12,['k'],['k'],N,Y,['space'],Y,,,,,Y,Y,F,20,
51,10,571,6,6,12,['d'],['k'],Y,N,None,Y,,,,,Y,Y,F,20,
52,0,572,0,0,12,['k'],['k'],N,Y,['space'],Y,,,,,Y,Y,F,20,
52,1,573,7,7,12,['d'],['k'],Y,N,None,Y,,,,,Y,Y,F,20,
52,2,574,7,7,12,['k'],['d'],Y,N,None,Y,,,,,Y,Y,F,20,
52,3,575,9,9,12,['k'],['d'],Y,N,None,Y,,,,,Y,Y,F,20,
52,4,576,8,8,12,['k'],['d'],Y,N,None,Y,,,,,Y,Y,F,20,
52,5,577,3,3,12,['d'],['d'],N,Y,['space'],Y,,,,,Y,Y,F,20,
52,6,578,7,7,12,['k'],['d'],Y,N,None,Y,,,,,Y,Y,F,20,
52,7,579,5,5,12,['k'],['d'],Y,N,None,Y,,,,,Y,Y,F,20,
52,8,580,7,7,12,['k'],['k'],N,Y,['space'],Y,,,,,Y,Y,F,20,
52,9,581,5,5,12,['d'],['d'],N,N,None,Y,,,,,Y,Y,F,20,
52,10,582,4,4,12,['k'],['k'],N,N,None,Y,,,,,Y,Y,F,20,
53,0,583,7,7,12,['k'],['d'],Y,N,None,Y,,,,,Y,Y,F,20,
53,1,584,10,10,12,['d'],['k'],Y,N,None,Y,,,,,Y,Y,F,20,
53,2,585,3,3,12,['k'],['k'],N,Y,['space'],Y,,,,,Y,Y,F,20,
53,3,586,10,10,12,['d'],['d'],N,N,None,Y,,,,,Y,Y,F,20,
53,4,587,10,10,12,['k'],['d'],Y,N,None,Y,,,,,Y,Y,F,20,
53,5,588,9,9,12,['d'],['d'],N,Y,['space'],Y,,,,,Y,Y,F,20,
53,6,589,2,2,12,['k'],['d'],Y,Y,['space'],Y,,,,,Y,Y,F,20,
53,7,590,5,5,12,['d'],['d'],N,Y,['space'],Y,,,,,Y,Y,F,20,
53,8,591,6,6,12,['k'],['k'],N,Y,['space'],Y,,,,,Y,Y,F,20,
53,9,592,9,9,12,['k'],['d'],Y,Y,['space'],Y,,,,,Y,Y,F,20,
53,10,593,9,9,12,['d'],['k'],Y,N,None,Y,,,,,Y,Y,F,20,
54,0,594,0,0,12,['k'],['k'],N,N,None,Y,,,,,Y,Y,F,20,
54,1,595,2,2,12,['d'],['d'],N,N,None,Y,,,,,Y,Y,F,20,
54,2,596,3,3,12,['k'],['k'],N,N,None,Y,,,,,Y,Y,F,20,
54,3,597,6,6,12,['d'],['k'],Y,N,None,Y,,,,,Y,Y,F,20,
54,4,598,1,1,12,['k'],['k'],N,N,None,Y,,,,,Y,Y,F,20,
54,5,599,1,1,12,['d'],['k'],Y,N,None,Y,27,48,17,,Y,Y,F,20,
