.thisRepN,.thisTrialN,.thisN,.thisIndex,.thisTrial,Block Number,Key pressed,Category,Correct?,Int Match?,Int Response,Int Correct?,Line Accuracy,Interference Accuracy,Matching Interferences,New instruction shown?,Buttons switched?,Fast?,gender,age,
0,0,0,3,3,1,['d'],['d'],Y,,,,,,,,,,male,19,
0,1,1,1,1,1,['k'],['k'],Y,,,,,,,,,,male,19,
0,2,2,9,9,1,['d'],['k'],N,N,None,Y,,,,,,,male,19,
0,3,3,10,10,1,['k'],['k'],Y,N,None,Y,,,,,,,male,19,
0,4,4,2,2,1,['k'],['d'],N,N,None,Y,,,,,,,male,19,
0,5,5,5,5,1,['d'],['d'],Y,Y,None,N,,,,,,,male,19,
0,6,6,5,5,1,['k'],['k'],Y,Y,None,N,,,,,,,male,19,
0,7,7,7,7,1,['d'],['k'],N,Y,None,N,,,,,,,male,19,
0,8,8,6,6,1,['k'],['d'],N,Y,None,N,,,,,,,male,19,
0,9,9,8,8,1,['k'],['k'],Y,Y,None,N,,,,,,,male,19,
0,10,10,4,4,1,['k'],['d'],N,Y,None,N,,,,,,,male,19,
1,0,11,9,9,1,['k'],['k'],Y,Y,None,N,,,,,,,male,19,
1,1,12,9,9,1,['d'],['d'],Y,N,None,Y,,,,,,,male,19,
1,2,13,10,10,1,['d'],['k'],N,N,None,Y,,,,,,,male,19,
1,3,14,1,1,1,['k'],['k'],Y,N,None,Y,,,,,,,male,19,
1,4,15,8,8,1,['k'],['k'],Y,N,None,Y,,,,,,,male,19,
1,5,16,10,10,1,['k'],['k'],Y,Y,None,N,,,,,,,male,19,
1,6,17,10,10,1,['d'],['d'],Y,Y,None,N,,,,,,,male,19,
1,7,18,5,5,1,['k'],['d'],N,N,None,Y,,,,,,,male,19,
1,8,19,3,3,1,['d'],['k'],N,Y,None,N,,,,,,,male,19,
1,9,20,6,6,1,['k'],['k'],Y,N,None,Y,,,,,,,male,19,
1,10,21,4,4,1,['d'],['k'],N,Y,None,N,,,,,,,male,19,
2,0,22,10,10,1,['k'],['d'],N,N,None,Y,,,,,,,male,19,
2,1,23,7,7,1,['d'],['d'],Y,Y,None,N,,,,,,,male,19,
2,2,24,6,6,1,['k'],['k'],Y,N,None,Y,,,,,,,male,19,
2,3,25,6,6,1,['k'],['k'],Y,Y,None,N,,,,,,,male,19,
2,4,26,1,1,1,['k'],['d'],N,Y,None,N,,,,,,,male,19,
2,5,27,0,0,1,['d'],['d'],Y,Y,None,N,,,,,,,male,19,
2,6,28,3,3,1,['d'],['d'],Y,Y,None,N,,,,,,,male,19,
2,7,29,5,5,1,['k'],['k'],Y,N,None,Y,,,,,,,male,19,
2,8,30,3,3,1,['d'],['d'],Y,Y,None,N,,,,,,,male,19,
2,9,31,5,5,1,['d'],['k'],N,N,None,Y,,,,,,,male,19,
2,10,32,1,1,1,['d'],['d'],Y,N,None,Y,,,,,,,male,19,
3,0,33,0,0,1,['k'],['k'],Y,N,None,Y,,,,,,,male,19,
3,1,34,5,5,1,['k'],['d'],N,N,None,Y,,,,,,,male,19,
3,2,35,2,2,1,['k'],['k'],Y,Y,['space'],Y,,,,,,,male,19,
3,3,36,9,9,1,['d'],['k'],N,Y,None,N,,,,,,,male,19,
3,4,37,7,7,1,['k'],['k'],Y,N,None,Y,,,,,,,male,19,
3,5,38,3,3,1,['d'],['d'],Y,N,None,Y,,,,,,,male,19,
3,6,39,6,6,1,['d'],['k'],N,N,None,Y,,,,,,,male,19,
3,7,40,6,6,1,['k'],['d'],N,Y,None,N,,,,,,,male,19,
3,8,41,3,3,1,['k'],['d'],N,N,None,Y,,,,,,,male,19,
3,9,42,9,9,1,['k'],['k'],Y,Y,['space'],Y,,,,,,,male,19,
3,10,43,8,8,1,['k'],['d'],N,N,None,Y,,,,,,,male,19,
4,0,44,4,4,1,['d'],['k'],N,N,None,Y,,,,,,,male,19,
4,1,45,0,0,1,['k'],['k'],Y,N,None,Y,,,,,,,male,19,
4,2,46,7,7,1,['k'],['k'],Y,N,None,Y,,,,,,,male,19,
4,3,47,4,4,1,['k'],['k'],Y,Y,['space'],Y,,,,,,,male,19,
4,4,48,5,5,1,['d'],['k'],N,Y,['space'],Y,,,,,,,male,19,
4,5,49,1,1,1,['k'],['d'],N,N,None,Y,29,29,23,,,,male,19,
4,6,50,1,1,2,['d'],['d'],Y,,,,,,,,,,male,19,
4,7,51,2,2,2,['k'],['d'],N,,,,,,,,,,male,19,
4,8,52,10,10,2,['k'],['d'],N,Y,['space'],Y,,,,,,,male,19,
4,9,53,8,8,2,['d'],['d'],Y,Y,None,N,,,,,,,male,19,
4,10,54,5,5,2,['d'],['d'],Y,N,None,Y,,,,,,,male,19,
5,0,55,2,2,2,['d'],['k'],N,Y,None,N,,,,,,,male,19,
5,1,56,10,10,2,['k'],['k'],Y,N,None,Y,,,,,,,male,19,
5,2,57,9,9,2,['d'],['d'],Y,Y,None,N,,,,,,,male,19,
5,3,58,4,4,2,['k'],['k'],Y,N,None,Y,,,,,,,male,19,
5,4,59,9,9,2,['d'],['d'],Y,N,None,Y,,,,,,,male,19,
5,5,60,0,0,2,['k'],['k'],Y,N,None,Y,,,,,,,male,19,
5,6,61,8,8,2,['d'],['d'],Y,N,None,Y,,,,,,,male,19,
5,7,62,4,4,2,['k'],['k'],Y,Y,None,N,,,,,,,male,19,
5,8,63,1,1,2,['k'],['d'],N,N,None,Y,,,,,,,male,19,
5,9,64,1,1,2,['d'],['d'],Y,N,None,Y,,,,,,,male,19,
5,10,65,6,6,2,['d'],['d'],Y,N,None,Y,,,,,,,male,19,
6,0,66,9,9,2,['d'],['k'],N,N,None,Y,,,,,,,male,19,
6,1,67,4,4,2,['k'],['d'],N,Y,['space'],Y,,,,,,,male,19,
6,2,68,5,5,2,['k'],['d'],N,N,None,Y,,,,,,,male,19,
6,3,69,7,7,2,['d'],['k'],N,N,None,Y,,,,,,,male,19,
6,4,70,2,2,2,['k'],['k'],Y,N,None,Y,,,,,,,male,19,
6,5,71,4,4,2,['d'],['d'],Y,N,None,Y,,,,,,,male,19,
6,6,72,0,0,2,['d'],['d'],Y,N,None,Y,,,,,,,male,19,
6,7,73,8,8,2,['k'],['d'],N,N,None,Y,,,,,,,male,19,
6,8,74,6,6,2,['d'],['d'],Y,Y,['space'],Y,,,,,,,male,19,
6,9,75,6,6,2,['k'],['k'],Y,N,None,Y,,,,,,,male,19,
6,10,76,2,2,2,['d'],['d'],Y,N,None,Y,,,,,,,male,19,
7,0,77,6,6,2,['k'],['k'],Y,Y,['space'],Y,,,,,,,male,19,
7,1,78,1,1,2,['k'],['d'],N,N,None,Y,,,,,,,male,19,
7,2,79,6,6,2,['k'],['k'],Y,N,None,Y,,,,,,,male,19,
7,3,80,5,5,2,['k'],['d'],N,Y,['space'],Y,,,,,,,male,19,
7,4,81,9,9,2,['d'],['k'],N,N,None,Y,,,,,,,male,19,
7,5,82,1,1,2,['d'],['k'],N,Y,['space'],Y,,,,,,,male,19,
7,6,83,1,1,2,['k'],['k'],Y,N,None,Y,,,,,,,male,19,
7,7,84,7,7,2,['d'],['d'],Y,N,None,Y,,,,,,,male,19,
7,8,85,4,4,2,['k'],['d'],N,Y,['space'],Y,,,,,,,male,19,
7,9,86,6,6,2,['k'],['d'],N,N,None,Y,,,,,,,male,19,
7,10,87,3,3,2,['d'],['d'],Y,Y,None,N,,,,,,,male,19,
8,0,88,4,4,2,['k'],['k'],Y,Y,['space'],Y,,,,,,,male,19,
8,1,89,7,7,2,['d'],['k'],N,N,None,Y,,,,,,,male,19,
8,2,90,4,4,2,['k'],['k'],Y,N,None,Y,,,,,,,male,19,
8,3,91,8,8,2,['d'],['k'],N,N,None,Y,,,,,,,male,19,
8,4,92,0,0,2,['k'],['d'],N,Y,['space'],Y,,,,,,,male,19,
8,5,93,5,5,2,['k'],['d'],N,N,None,Y,,,,,,,male,19,
8,6,94,5,5,2,['d'],['d'],Y,N,['space'],N,,,,,,,male,19,
8,7,95,2,2,2,['k'],['k'],Y,Y,['space'],Y,,,,,,,male,19,
8,8,96,6,6,2,['d'],['k'],N,Y,['space'],Y,,,,,,,male,19,
8,9,97,2,2,2,['d'],['d'],Y,N,None,Y,,,,,,,male,19,
8,10,98,6,6,2,['d'],['k'],N,Y,['space'],Y,,,,,,,male,19,
9,0,99,0,0,2,['k'],['d'],N,Y,['space'],Y,28,42,18,,,,male,19,
9,1,100,5,5,3,['k'],['k'],Y,,,,,,,,,,male,19,
9,2,101,9,9,3,['d'],['d'],Y,,,,,,,,,,male,19,
9,3,102,7,7,3,['d'],['d'],Y,Y,['space'],Y,,,,,,,male,19,
9,4,103,4,4,3,['d'],['k'],N,N,None,Y,,,,,,,male,19,
9,5,104,4,4,3,['k'],['d'],N,Y,['space'],Y,,,,,,,male,19,
9,6,105,1,1,3,['k'],['k'],Y,N,None,Y,,,,,,,male,19,
9,7,106,8,8,3,['d'],['d'],Y,N,None,Y,,,,,,,male,19,
9,8,107,9,9,3,['k'],['k'],Y,N,None,Y,,,,,,,male,19,
9,9,108,1,1,3,['k'],['d'],N,Y,['space'],Y,,,,,,,male,19,
9,10,109,2,2,3,['d'],['d'],Y,N,None,Y,,,,,,,male,19,
10,0,110,5,5,3,['d'],['k'],N,N,None,Y,,,,,,,male,19,
10,1,111,2,2,3,['d'],['k'],N,N,None,Y,,,,,,,male,19,
10,2,112,7,7,3,['k'],['k'],Y,Y,['space'],Y,,,,,,,male,19,
10,3,113,4,4,3,['d'],['d'],Y,N,None,Y,,,,,,,male,19,
10,4,114,6,6,3,['d'],['d'],Y,Y,['space'],Y,,,,,,,male,19,
10,5,115,7,7,3,['k'],['d'],N,Y,['space'],Y,,,,,,,male,19,
10,6,116,1,1,3,['d'],['k'],N,N,None,Y,,,,,,,male,19,
10,7,117,7,7,3,['k'],['k'],Y,N,None,Y,,,,,,,male,19,
10,8,118,0,0,3,['d'],['k'],N,Y,None,N,,,,,,,male,19,
10,9,119,5,5,3,['k'],['k'],Y,N,None,Y,,,,,,,male,19,
10,10,120,10,10,3,['k'],['k'],Y,Y,['space'],Y,,,,,,,male,19,
11,0,121,2,2,3,['d'],['d'],Y,Y,['space'],Y,,,,,,,male,19,
11,1,122,10,10,3,['d'],['k'],N,Y,['space'],Y,,,,,,,male,19,
11,2,123,5,5,3,['k'],['d'],N,Y,['space'],Y,,,,,,,male,19,
11,3,124,4,4,3,['k'],['d'],N,Y,['space'],Y,,,,,,,male,19,
11,4,125,1,1,3,['k'],['d'],N,N,None,Y,,,,,,,male,19,
11,5,126,5,5,3,['d'],['d'],Y,N,['space'],N,,,,,,,male,19,
11,6,127,1,1,3,['k'],['d'],N,Y,['space'],Y,,,,,,,male,19,
11,7,128,7,7,3,['k'],['k'],Y,N,None,Y,,,,,,,male,19,
11,8,129,10,10,3,['d'],['k'],N,Y,['space'],Y,,,,,,,male,19,
11,9,130,9,9,3,['d'],['d'],Y,Y,None,N,,,,,,,male,19,
11,10,131,10,10,3,['k'],['k'],Y,Y,['space'],Y,,,,,,,male,19,
12,0,132,10,10,3,['k'],['d'],N,N,None,Y,,,,,,,male,19,
12,1,133,3,3,3,['d'],['k'],N,N,None,Y,,,,,,,male,19,
12,2,134,4,4,3,['d'],['k'],N,N,None,Y,,,,,,,male,19,
12,3,135,9,9,3,['d'],['k'],N,Y,None,N,,,,,,,male,19,
12,4,136,8,8,3,['k'],['d'],N,N,None,Y,,,,,,,male,19,
12,5,137,9,9,3,['d'],['d'],Y,Y,['space'],Y,,,,,,,male,19,
12,6,138,3,3,3,['d'],['k'],N,N,['space'],N,,,,,,,male,19,
12,7,139,6,6,3,['k'],['k'],Y,Y,None,N,,,,,,,male,19,
12,8,140,3,3,3,['k'],['d'],N,N,['space'],N,,,,,,,male,19,
12,9,141,6,6,3,['k'],['k'],Y,N,None,Y,,,,,,,male,19,
12,10,142,6,6,3,['d'],['d'],Y,Y,['space'],Y,,,,,,,male,19,
13,0,143,9,9,3,['d'],['d'],Y,Y,['space'],Y,,,,,,,male,19,
13,1,144,8,8,3,['k'],['k'],Y,Y,None,N,,,,,,,male,19,
13,2,145,2,2,3,['d'],['k'],N,N,None,Y,,,,,,,male,19,
13,3,146,6,6,3,['k'],['d'],N,N,None,Y,,,,,,,male,19,
13,4,147,7,7,3,['k'],['d'],N,Y,['space'],Y,,,,,,,male,19,
13,5,148,0,0,3,['d'],['k'],N,Y,None,N,,,,,,,male,19,
13,6,149,9,9,3,['d'],['d'],Y,N,None,Y,25,39,24,,,,male,19,
13,7,150,6,6,4,['k'],['k'],Y,,,,,,,,,,male,19,
13,8,151,2,2,4,['d'],['d'],Y,,,,,,,,,,male,19,
13,9,152,3,3,4,['d'],['d'],Y,N,None,Y,,,,,,,male,19,
13,10,153,4,4,4,['k'],['k'],Y,Y,['space'],Y,,,,,,,male,19,
14,0,154,0,0,4,['k'],['k'],Y,N,None,Y,,,,,,,male,19,
14,1,155,2,2,4,['k'],['d'],N,N,['space'],N,,,,,,,male,19,
14,2,156,4,4,4,['k'],['d'],N,Y,['space'],Y,,,,,,,male,19,
14,3,157,5,5,4,['d'],['k'],N,N,None,Y,,,,,,,male,19,
14,4,158,6,6,4,['k'],['k'],Y,N,None,Y,,,,,,,male,19,
14,5,159,3,3,4,['k'],['d'],N,Y,['space'],Y,,,,,,,male,19,
14,6,160,5,5,4,['d'],['d'],Y,Y,['space'],Y,,,,,,,male,19,
14,7,161,8,8,4,['d'],['d'],Y,N,None,Y,,,,,,,male,19,
14,8,162,9,9,4,['k'],['d'],N,N,None,Y,,,,,,,male,19,
14,9,163,9,9,4,['d'],['d'],Y,Y,['space'],Y,,,,,,,male,19,
14,10,164,4,4,4,['k'],['k'],Y,N,None,Y,,,,,,,male,19,
15,0,165,0,0,4,['d'],['d'],Y,Y,['space'],Y,,,,,,,male,19,
15,1,166,7,7,4,['k'],['k'],Y,Y,['space'],Y,,,,,,,male,19,
15,2,167,4,4,4,['d'],['k'],N,N,None,Y,,,,,,,male,19,
15,3,168,3,3,4,['d'],['d'],Y,Y,['space'],Y,,,,,,,male,19,
15,4,169,7,7,4,['d'],['d'],Y,Y,['space'],Y,,,,,,,male,19,
15,5,170,10,10,4,['k'],['k'],Y,N,None,Y,,,,,,,male,19,
15,6,171,6,6,4,['k'],['k'],Y,Y,['space'],Y,,,,,,,male,19,
15,7,172,2,2,4,['d'],['k'],N,N,None,Y,,,,,,,male,19,
15,8,173,4,4,4,['d'],['k'],N,N,None,Y,,,,,,,male,19,
15,9,174,3,3,4,['d'],['d'],Y,N,None,Y,,,,,,,male,19,
15,10,175,8,8,4,['d'],['d'],Y,N,None,Y,,,,,,,male,19,
16,0,176,8,8,4,['k'],['k'],Y,Y,['space'],Y,,,,,,,male,19,
16,1,177,4,4,4,['k'],['d'],N,Y,['space'],Y,,,,,,,male,19,
16,2,178,2,2,4,['d'],['d'],Y,N,None,Y,,,,,,,male,19,
16,3,179,3,3,4,['k'],['d'],N,Y,['space'],Y,,,,,,,male,19,
16,4,180,10,10,4,['d'],['k'],N,Y,['space'],Y,,,,,,,male,19,
16,5,181,2,2,4,['k'],['k'],Y,Y,['space'],Y,,,,,,,male,19,
16,6,182,2,2,4,['d'],['k'],N,N,None,Y,,,,,,,male,19,
16,7,183,5,5,4,['d'],['d'],Y,N,None,Y,,,,,,,male,19,
16,8,184,10,10,4,['k'],['d'],N,Y,['space'],Y,,,,,,,male,19,
16,9,185,0,0,4,['d'],['k'],N,Y,None,N,,,,,,,male,19,
16,10,186,0,0,4,['d'],['k'],N,Y,None,N,,,,,,,male,19,
17,0,187,9,9,4,['d'],['d'],Y,N,None,Y,,,,,,,male,19,
17,1,188,2,2,4,['k'],['d'],N,N,None,Y,,,,,,,male,19,
17,2,189,10,10,4,['d'],['d'],Y,N,None,Y,,,,,,,male,19,
17,3,190,10,10,4,['d'],['k'],N,Y,['space'],Y,,,,,,,male,19,
17,4,191,2,2,4,['k'],['k'],Y,N,None,Y,,,,,,,male,19,
17,5,192,2,2,4,['d'],['k'],N,Y,None,N,,,,,,,male,19,
17,6,193,5,5,4,['k'],['k'],Y,Y,['space'],Y,,,,,,,male,19,
17,7,194,5,5,4,['d'],['k'],N,N,None,Y,,,,,,,male,19,
17,8,195,10,10,4,['k'],['k'],Y,N,None,Y,,,,,,,male,19,
17,9,196,4,4,4,['d'],['d'],Y,N,None,Y,,,,,,,male,19,
17,10,197,0,0,4,['d'],['k'],N,N,None,Y,,,,,,,male,19,
18,0,198,1,1,4,['k'],['d'],N,N,None,Y,,,,,,,male,19,
18,1,199,2,2,4,['d'],['k'],N,N,None,Y,28,44,21,,,,male,19,
18,2,200,2,2,5,['d'],['k'],N,,,,,,,,,,male,19,
18,3,201,9,9,5,['k'],['k'],Y,,,,,,,,,,male,19,
18,4,202,2,2,5,['k'],['k'],Y,N,None,Y,,,,,,,male,19,
18,5,203,7,7,5,['d'],['d'],Y,N,None,Y,,,,,,,male,19,
18,6,204,9,9,5,['k'],['d'],N,N,None,Y,,,,,,,male,19,
18,7,205,1,1,5,['d'],['k'],N,N,None,Y,,,,,,,male,19,
18,8,206,5,5,5,['k'],['k'],Y,Y,['space'],Y,,,,,,,male,19,
18,9,207,0,0,5,['k'],['k'],Y,Y,None,N,,,,,,,male,19,
18,10,208,8,8,5,['d'],['d'],Y,Y,None,N,,,,,,,male,19,
19,0,209,0,0,5,['k'],['k'],Y,N,None,Y,,,,,,,male,19,
19,1,210,9,9,5,['d'],['d'],Y,N,None,Y,,,,,,,male,19,
19,2,211,8,8,5,['k'],['k'],Y,Y,['space'],Y,,,,,,,male,19,
19,3,212,2,2,5,['d'],['d'],Y,Y,['space'],Y,,,,,,,male,19,
19,4,213,3,3,5,['d'],['d'],Y,N,None,Y,,,,,,,male,19,
19,5,214,6,6,5,['k'],['k'],Y,N,None,Y,,,,,,,male,19,
19,6,215,3,3,5,['k'],['k'],Y,Y,['space'],Y,,,,,,,male,19,
19,7,216,9,9,5,['d'],['d'],Y,N,None,Y,,,,,,,male,19,
19,8,217,10,10,5,['k'],['d'],N,Y,['space'],Y,,,,,,,male,19,
19,9,218,10,10,5,['d'],['d'],Y,Y,['space'],Y,,,,,,,male,19,
19,10,219,6,6,5,['k'],['k'],Y,N,None,Y,,,,,,,male,19,
20,0,220,8,8,5,['d'],['k'],N,N,None,Y,,,,,,,male,19,
20,1,221,6,6,5,['d'],['d'],Y,Y,['space'],Y,,,,,,,male,19,
20,2,222,0,0,5,['k'],['k'],Y,Y,['space'],Y,,,,,,,male,19,
20,3,223,5,5,5,['d'],['k'],N,N,None,Y,,,,,,,male,19,
20,4,224,5,5,5,['d'],['k'],N,N,None,Y,,,,,,,male,19,
20,5,225,4,4,5,['k'],['k'],Y,Y,['space'],Y,,,,,,,male,19,
20,6,226,1,1,5,['d'],['d'],Y,Y,['space'],Y,,,,,,,male,19,
20,7,227,3,3,5,['k'],['d'],N,N,None,Y,,,,,,,male,19,
20,8,228,2,2,5,['d'],['d'],Y,Y,['space'],Y,,,,,,,male,19,
20,9,229,10,10,5,['d'],['d'],Y,Y,None,N,,,,,,,male,19,
20,10,230,3,3,5,['d'],['d'],Y,Y,['space'],Y,,,,,,,male,19,
21,0,231,0,0,5,['k'],['k'],Y,Y,['space'],Y,,,,,,,male,19,
21,1,232,8,8,5,['d'],['k'],N,N,None,Y,,,,,,,male,19,
21,2,233,1,1,5,['k'],['d'],N,Y,['space'],Y,,,,,,,male,19,
21,3,234,4,4,5,['d'],['d'],Y,N,None,Y,,,,,,,male,19,
21,4,235,4,4,5,['d'],['d'],Y,N,['space'],N,,,,,,,male,19,
21,5,236,1,1,5,['d'],['k'],N,N,None,Y,,,,,,,male,19,
21,6,237,5,5,5,['d'],['d'],Y,N,None,Y,,,,,,,male,19,
21,7,238,0,0,5,['k'],['d'],N,N,None,Y,,,,,,,male,19,
21,8,239,4,4,5,['d'],['d'],Y,Y,['space'],Y,,,,,,,male,19,
21,9,240,3,3,5,['k'],['d'],N,Y,['space'],Y,,,,,,,male,19,
21,10,241,8,8,5,['d'],['k'],N,Y,['space'],Y,,,,,,,male,19,
22,0,242,6,6,5,['d'],['d'],Y,N,None,Y,,,,,,,male,19,
22,1,243,10,10,5,['d'],['k'],N,Y,['space'],Y,,,,,,,male,19,
22,2,244,0,0,5,['d'],['k'],N,Y,['space'],Y,,,,,,,male,19,
22,3,245,8,8,5,['d'],['k'],N,Y,['space'],Y,,,,,,,male,19,
22,4,246,4,4,5,['d'],['d'],Y,N,None,Y,,,,,,,male,19,
22,5,247,5,5,5,['k'],['d'],N,Y,['space'],Y,,,,,,,male,19,
22,6,248,9,9,5,['d'],['k'],N,Y,['space'],Y,,,,,,,male,19,
22,7,249,10,10,5,['d'],['d'],Y,N,None,Y,31,44,25,,,,male,19,
22,8,250,10,10,6,['d'],['k'],N,,,,,,,,,,male,19,
22,9,251,4,4,6,['k'],['d'],N,,,,,,,,,,male,19,
22,10,252,0,0,6,['d'],['k'],N,Y,['space'],Y,,,,,,,male,19,
23,0,253,8,8,6,['k'],['d'],N,N,None,Y,,,,,,,male,19,
23,1,254,5,5,6,['k'],['k'],Y,Y,None,N,,,,,,,male,19,
23,2,255,4,4,6,['k'],['k'],Y,Y,['space'],Y,,,,,,,male,19,
23,3,256,9,9,6,['d'],['k'],N,N,None,Y,,,,,,,male,19,
23,4,257,4,4,6,['d'],['d'],Y,N,None,Y,,,,,,,male,19,
23,5,258,7,7,6,['d'],['d'],Y,N,None,Y,,,,,,,male,19,
23,6,259,7,7,6,['k'],['k'],Y,Y,['space'],Y,,,,,,,male,19,
23,7,260,3,3,6,['d'],['k'],N,Y,['space'],Y,,,,,,,male,19,
23,8,261,4,4,6,['d'],['d'],Y,N,None,Y,,,,,,,male,19,
23,9,262,10,10,6,['d'],['d'],Y,N,None,Y,,,,,,,male,19,
23,10,263,4,4,6,['k'],['d'],N,N,None,Y,,,,,,,male,19,
24,0,264,6,6,6,['k'],['d'],N,N,None,Y,,,,,,,male,19,
24,1,265,7,7,6,['d'],['d'],Y,Y,None,N,,,,,,,male,19,
24,2,266,9,9,6,['k'],['k'],Y,N,None,Y,,,,,,,male,19,
24,3,267,5,5,6,['d'],['d'],Y,N,None,Y,,,,,,,male,19,
24,4,268,0,0,6,['k'],['k'],Y,Y,['space'],Y,,,,,,,male,19,
24,5,269,0,0,6,['d'],['k'],N,N,None,Y,,,,,,,male,19,
24,6,270,6,6,6,['d'],['d'],Y,Y,['space'],Y,,,,,,,male,19,
24,7,271,3,3,6,['k'],['d'],N,N,None,Y,,,,,,,male,19,
24,8,272,3,3,6,['d'],['k'],N,Y,['space'],Y,,,,,,,male,19,
24,9,273,2,2,6,['d'],['k'],N,N,None,Y,,,,,,,male,19,
24,10,274,8,8,6,['k'],['k'],Y,N,None,Y,,,,,,,male,19,
25,0,275,3,3,6,['d'],['d'],Y,N,None,Y,,,,,,,male,19,
25,1,276,0,0,6,['d'],['k'],N,Y,['space'],Y,,,,,,,male,19,
25,2,277,10,10,6,['k'],['k'],Y,Y,['space'],Y,,,,,,,male,19,
25,3,278,2,2,6,['k'],['k'],Y,N,None,Y,,,,,,,male,19,
25,4,279,1,1,6,['d'],['d'],Y,N,None,Y,,,,,,,male,19,
25,5,280,6,6,6,['d'],['k'],N,Y,['space'],Y,,,,,,,male,19,
25,6,281,1,1,6,['k'],['k'],Y,N,None,Y,,,,,,,male,19,
25,7,282,8,8,6,['d'],['k'],N,Y,['space'],Y,,,,,,,male,19,
25,8,283,10,10,6,['k'],['k'],Y,Y,['space'],Y,,,,,,,male,19,
25,9,284,1,1,6,['k'],['d'],N,Y,['space'],Y,,,,,,,male,19,
25,10,285,5,5,6,['k'],['k'],Y,N,None,Y,,,,,,,male,19,
26,0,286,0,0,6,['d'],['k'],N,Y,['space'],Y,,,,,,,male,19,
26,1,287,1,1,6,['k'],['k'],Y,N,None,Y,,,,,,,male,19,
26,2,288,5,5,6,['k'],['d'],N,N,None,Y,,,,,,,male,19,
26,3,289,2,2,6,['k'],['d'],N,Y,['space'],Y,,,,,,,male,19,
26,4,290,5,5,6,['k'],['k'],Y,Y,['space'],Y,,,,,,,male,19,
26,5,291,6,6,6,['k'],['d'],N,N,None,Y,,,,,,,male,19,
26,6,292,10,10,6,['d'],['d'],Y,N,None,Y,,,,,,,male,19,
26,7,293,7,7,6,['k'],['k'],Y,Y,['space'],Y,,,,,,,male,19,
26,8,294,10,10,6,['d'],['k'],N,Y,None,N,,,,,,,male,19,
26,9,295,10,10,6,['d'],['d'],Y,Y,None,N,,,,,,,male,19,
26,10,296,2,2,6,['k'],['k'],Y,N,None,Y,,,,,,,male,19,
27,0,297,1,1,6,['d'],['d'],Y,Y,['space'],Y,,,,,,,male,19,
27,1,298,10,10,6,['d'],['d'],Y,N,None,Y,,,,,,,male,19,
27,2,299,5,5,6,['k'],['k'],Y,Y,['space'],Y,29,44,23,,,,male,19,
27,3,300,0,0,7,['k'],['d'],N,,,,,,,,,,male,19,
27,4,301,1,1,7,['d'],['d'],Y,,,,,,,,,,male,19,
27,5,302,3,3,7,['d'],['k'],N,Y,['space'],Y,,,,,,,male,19,
27,6,303,1,1,7,['k'],['k'],Y,Y,['space'],Y,,,,,,,male,19,
27,7,304,4,4,7,['d'],['k'],N,Y,['space'],Y,,,,,,,male,19,
27,8,305,6,6,7,['d'],['k'],N,N,None,Y,,,,,,,male,19,
27,9,306,5,5,7,['k'],['k'],Y,N,None,Y,,,,,,,male,19,
27,10,307,0,0,7,['k'],['d'],N,N,None,Y,,,,,,,male,19,
28,0,308,8,8,7,['d'],['d'],Y,N,None,Y,,,,,,,male,19,
28,1,309,8,8,7,['d'],['k'],N,N,None,Y,,,,,,,male,19,
28,2,310,4,4,7,['d'],['d'],Y,N,None,Y,,,,,,,male,19,
28,3,311,6,6,7,['d'],['d'],Y,N,None,Y,,,,,,,male,19,
28,4,312,4,4,7,['k'],['d'],N,Y,['space'],Y,,,,,,,male,19,
28,5,313,10,10,7,['d'],['d'],Y,Y,['space'],Y,,,,,,,male,19,
28,6,314,1,1,7,['d'],['k'],N,N,None,Y,,,,,,,male,19,
28,7,315,2,2,7,['k'],['k'],Y,Y,['space'],Y,,,,,,,male,19,
28,8,316,2,2,7,['d'],['k'],N,Y,['space'],Y,,,,,,,male,19,
28,9,317,2,2,7,['k'],['k'],Y,N,None,Y,,,,,,,male,19,
28,10,318,7,7,7,['k'],['d'],N,N,None,Y,,,,,,,male,19,
29,0,319,0,0,7,['d'],['d'],Y,Y,['space'],Y,,,,,,,male,19,
29,1,320,3,3,7,['k'],['k'],Y,Y,['space'],Y,,,,,,,male,19,
29,2,321,10,10,7,['k'],['d'],N,Y,['space'],Y,,,,,,,male,19,
29,3,322,9,9,7,['k'],['k'],Y,N,None,Y,,,,,,,male,19,
29,4,323,1,1,7,['k'],['k'],Y,Y,['space'],Y,,,,,,,male,19,
29,5,324,5,5,7,['k'],['k'],Y,N,None,Y,,,,,,,male,19,
29,6,325,3,3,7,['k'],['k'],Y,N,None,Y,,,,,,,male,19,
29,7,326,6,6,7,['d'],['d'],Y,N,None,Y,,,,,,,male,19,
29,8,327,10,10,7,['k'],['k'],Y,Y,['space'],Y,,,,,,,male,19,
29,9,328,0,0,7,['d'],['k'],N,Y,['space'],Y,,,,,,,male,19,
29,10,329,0,0,7,['k'],['k'],Y,N,None,Y,,,,,,,male,19,
30,0,330,7,7,7,['k'],['k'],Y,Y,['space'],Y,,,,,,,male,19,
30,1,331,0,0,7,['d'],['d'],Y,Y,['space'],Y,,,,,,,male,19,
30,2,332,4,4,7,['k'],['d'],N,Y,None,N,,,,,,,male,19,
30,3,333,8,8,7,['k'],['k'],Y,Y,['space'],Y,,,,,,,male,19,
30,4,334,8,8,7,['k'],['d'],N,Y,['space'],Y,,,,,,,male,19,
30,5,335,5,5,7,['d'],['d'],Y,N,None,Y,,,,,,,male,19,
30,6,336,9,9,7,['d'],['d'],Y,Y,None,N,,,,,,,male,19,
30,7,337,0,0,7,['k'],['k'],Y,N,None,Y,,,,,,,male,19,
30,8,338,2,2,7,['k'],['k'],Y,Y,['space'],Y,,,,,,,male,19,
30,9,339,1,1,7,['k'],['k'],Y,Y,['space'],Y,,,,,,,male,19,
30,10,340,4,4,7,['d'],['k'],N,Y,['space'],Y,,,,,,,male,19,
31,0,341,1,1,7,['d'],['d'],Y,N,None,Y,,,,,,,male,19,
31,1,342,9,9,7,['d'],['d'],Y,N,None,Y,,,,,,,male,19,
31,2,343,1,1,7,['k'],['k'],Y,N,None,Y,,,,,,,male,19,
31,3,344,5,5,7,['d'],['k'],N,Y,['space'],Y,,,,,,,male,19,
31,4,345,10,10,7,['k'],['d'],N,Y,['space'],Y,,,,,,,male,19,
31,5,346,7,7,7,['d'],['k'],N,N,None,Y,,,,,,,male,19,
31,6,347,5,5,7,['d'],['k'],N,N,None,Y,,,,,,,male,19,
31,7,348,6,6,7,['k'],['d'],N,N,None,Y,,,,,,,male,19,
31,8,349,5,5,7,['k'],['d'],N,Y,None,N,29,45,25,,,,male,19,
31,9,350,5,5,8,['d'],['d'],Y,,,,,,,,,,male,19,
31,10,351,3,3,8,['d'],['d'],Y,,,,,,,,,,male,19,
32,0,352,0,0,8,['k'],['k'],Y,Y,['space'],Y,,,,,,,male,19,
32,1,353,9,9,8,['k'],['k'],Y,N,None,Y,,,,,,,male,19,
32,2,354,0,0,8,['k'],['k'],Y,Y,['space'],Y,,,,,,,male,19,
32,3,355,7,7,8,['k'],['k'],Y,Y,['space'],Y,,,,,,,male,19,
32,4,356,8,8,8,['d'],['k'],N,N,None,Y,,,,,,,male,19,
32,5,357,0,0,8,['d'],['d'],Y,Y,['space'],Y,,,,,,,male,19,
32,6,358,5,5,8,['d'],['d'],Y,Y,['space'],Y,,,,,,,male,19,
32,7,359,0,0,8,['k'],['d'],N,N,None,Y,,,,,,,male,19,
32,8,360,2,2,8,['k'],['k'],Y,N,None,Y,,,,,,,male,19,
32,9,361,5,5,8,['d'],['d'],Y,N,None,Y,,,,,,,male,19,
32,10,362,4,4,8,['d'],['d'],Y,N,None,Y,,,,,,,male,19,
33,0,363,10,10,8,['k'],['d'],N,Y,['space'],Y,,,,,,,male,19,
33,1,364,7,7,8,['k'],['k'],Y,Y,None,N,,,,,,,male,19,
33,2,365,10,10,8,['k'],['k'],Y,N,None,Y,,,,,,,male,19,
33,3,366,7,7,8,['k'],['d'],N,Y,['space'],Y,,,,,,,male,19,
33,4,367,8,8,8,['k'],['d'],N,Y,['space'],Y,,,,,,,male,19,
33,5,368,2,2,8,['k'],['k'],Y,N,None,Y,,,,,,,male,19,
33,6,369,0,0,8,['k'],['k'],Y,N,None,Y,,,,,,,male,19,
33,7,370,4,4,8,['d'],['d'],Y,N,None,Y,,,,,,,male,19,
33,8,371,0,0,8,['d'],['k'],N,N,None,Y,,,,,,,male,19,
33,9,372,6,6,8,['d'],['k'],N,Y,['space'],Y,,,,,,,male,19,
33,10,373,10,10,8,['k'],['d'],N,N,None,Y,,,,,,,male,19,
34,0,374,1,1,8,['k'],['d'],N,N,None,Y,,,,,,,male,19,
34,1,375,8,8,8,['k'],['k'],Y,Y,['space'],Y,,,,,,,male,19,
34,2,376,3,3,8,['d'],['d'],Y,Y,['space'],Y,,,,,,,male,19,
34,3,377,3,3,8,['d'],['k'],N,Y,['space'],Y,,,,,,,male,19,
34,4,378,3,3,8,['k'],['k'],Y,N,None,Y,,,,,,,male,19,
34,5,379,4,4,8,['d'],['k'],N,N,None,Y,,,,,,,male,19,
34,6,380,7,7,8,['d'],['k'],N,Y,['space'],Y,,,,,,,male,19,
34,7,381,8,8,8,['k'],['k'],Y,Y,['space'],Y,,,,,,,male,19,
34,8,382,9,9,8,['d'],['k'],N,Y,['space'],Y,,,,,,,male,19,
34,9,383,10,10,8,['d'],['d'],Y,Y,['space'],Y,,,,,,,male,19,
34,10,384,9,9,8,['k'],['d'],N,N,None,Y,,,,,,,male,19,
35,0,385,8,8,8,['d'],['d'],Y,Y,['space'],Y,,,,,,,male,19,
35,1,386,0,0,8,['k'],['k'],Y,Y,['space'],Y,,,,,,,male,19,
35,2,387,1,1,8,['d'],['k'],N,N,None,Y,,,,,,,male,19,
35,3,388,0,0,8,['k'],['k'],Y,N,None,Y,,,,,,,male,19,
35,4,389,2,2,8,['k'],['d'],N,N,None,Y,,,,,,,male,19,
35,5,390,6,6,8,['d'],['d'],Y,N,None,Y,,,,,,,male,19,
35,6,391,0,0,8,['d'],['d'],Y,N,None,Y,,,,,,,male,19,
35,7,392,7,7,8,['d'],['d'],Y,N,None,Y,,,,,,,male,19,
35,8,393,3,3,8,['d'],['d'],Y,N,None,Y,,,,,,,male,19,
35,9,394,2,2,8,['k'],['k'],Y,Y,['space'],Y,,,,,,,male,19,
35,10,395,1,1,8,['d'],['d'],Y,Y,['space'],Y,,,,,,,male,19,
36,0,396,1,1,8,['d'],['k'],N,Y,['space'],Y,,,,,,,male,19,
36,1,397,6,6,8,['k'],['d'],N,Y,['space'],Y,,,,,,,male,19,
36,2,398,10,10,8,['d'],['k'],N,Y,['space'],Y,,,,,,,male,19,
36,3,399,6,6,8,['d'],['k'],N,N,None,Y,30,47,24,,,,male,19,
36,4,400,0,0,9,['k'],['k'],Y,,,,,,,,,,male,19,
36,5,401,9,9,9,['k'],['d'],N,,,,,,,,,,male,19,
36,6,402,9,9,9,['k'],['d'],N,N,None,Y,,,,,,,male,19,
36,7,403,7,7,9,['d'],['k'],N,N,None,Y,,,,,,,male,19,
36,8,404,8,8,9,['k'],['k'],Y,Y,['space'],Y,,,,,,,male,19,
36,9,405,8,8,9,['d'],['k'],N,N,None,Y,,,,,,,male,19,
36,10,406,3,3,9,['d'],['d'],Y,Y,None,N,,,,,,,male,19,
37,0,407,4,4,9,['k'],['k'],Y,Y,['space'],Y,,,,,,,male,19,
37,1,408,4,4,9,['k'],['k'],Y,Y,['space'],Y,,,,,,,male,19,
37,2,409,6,6,9,['d'],['k'],N,Y,['space'],Y,,,,,,,male,19,
37,3,410,10,10,9,['k'],['d'],N,N,None,Y,,,,,,,male,19,
37,4,411,1,1,9,['d'],['k'],N,Y,['space'],Y,,,,,,,male,19,
37,5,412,1,1,9,['d'],['d'],Y,Y,None,N,,,,,,,male,19,
37,6,413,2,2,9,['k'],['d'],N,Y,None,N,,,,,,,male,19,
37,7,414,0,0,9,['d'],['k'],N,Y,['space'],Y,,,,,,,male,19,
37,8,415,8,8,9,['k'],['k'],Y,Y,None,N,,,,,,,male,19,
37,9,416,8,8,9,['k'],['k'],Y,N,None,Y,,,,,,,male,19,
37,10,417,8,8,9,['d'],['k'],N,Y,['space'],Y,,,,,,,male,19,
38,0,418,8,8,9,['d'],['d'],Y,Y,['space'],Y,,,,,,,male,19,
38,1,419,4,4,9,['k'],['k'],Y,N,None,Y,,,,,,,male,19,
38,2,420,0,0,9,['d'],['d'],Y,N,None,Y,,,,,,,male,19,
38,3,421,7,7,9,['d'],['d'],Y,Y,['space'],Y,,,,,,,male,19,
38,4,422,8,8,9,['d'],['d'],Y,N,None,Y,,,,,,,male,19,
38,5,423,8,8,9,['d'],['d'],Y,N,None,Y,,,,,,,male,19,
38,6,424,3,3,9,['k'],['k'],Y,N,None,Y,,,,,,,male,19,
38,7,425,6,6,9,['d'],['d'],Y,N,None,Y,,,,,,,male,19,
38,8,426,9,9,9,['d'],['d'],Y,Y,['space'],Y,,,,,,,male,19,
38,9,427,3,3,9,['k'],['d'],N,N,None,Y,,,,,,,male,19,
38,10,428,6,6,9,['k'],['k'],Y,Y,['space'],Y,,,,,,,male,19,
39,0,429,2,2,9,['k'],['k'],Y,Y,['space'],Y,,,,,,,male,19,
39,1,430,4,4,9,['d'],['k'],N,N,None,Y,,,,,,,male,19,
39,2,431,3,3,9,['k'],['k'],Y,N,None,Y,,,,,,,male,19,
39,3,432,8,8,9,['d'],['d'],Y,N,None,Y,,,,,,,male,19,
39,4,433,0,0,9,['d'],['d'],Y,N,None,Y,,,,,,,male,19,
39,5,434,7,7,9,['k'],['d'],N,N,None,Y,,,,,,,male,19,
39,6,435,7,7,9,['d'],['d'],Y,Y,['space'],Y,,,,,,,male,19,
39,7,436,8,8,9,['d'],['d'],Y,Y,['space'],Y,,,,,,,male,19,
39,8,437,4,4,9,['k'],['d'],N,N,None,Y,,,,,,,male,19,
39,9,438,5,5,9,['d'],['k'],N,N,None,Y,,,,,,,male,19,
39,10,439,8,8,9,['k'],['d'],N,Y,['space'],Y,,,,,,,male,19,
40,0,440,10,10,9,['k'],['d'],N,N,None,Y,,,,,,,male,19,
40,1,441,5,5,9,['k'],['d'],N,Y,['space'],Y,,,,,,,male,19,
40,2,442,6,6,9,['d'],['k'],N,N,None,Y,,,,,,,male,19,
40,3,443,0,0,9,['k'],['k'],Y,N,None,Y,,,,,,,male,19,
40,4,444,3,3,9,['k'],['k'],Y,N,None,Y,,,,,,,male,19,
40,5,445,2,2,9,['d'],['k'],N,N,None,Y,,,,,,,male,19,
40,6,446,8,8,9,['k'],['k'],Y,Y,['space'],Y,,,,,,,male,19,
40,7,447,0,0,9,['d'],['k'],N,N,None,Y,,,,,,,male,19,
40,8,448,3,3,9,['d'],['d'],Y,N,None,Y,,,,,,,male,19,
40,9,449,7,7,9,['d'],['d'],Y,Y,['space'],Y,29,44,22,,,,male,19,
40,10,450,4,4,10,['k'],['d'],N,,,,,,,,,,male,19,
41,0,451,7,7,10,['d'],['k'],N,,,,,,,,,,male,19,
41,1,452,7,7,10,['k'],['d'],N,N,None,Y,,,,,,,male,19,
41,2,453,3,3,10,['k'],['k'],Y,N,None,Y,,,,,,,male,19,
41,3,454,7,7,10,['d'],['k'],N,Y,['space'],Y,,,,,,,male,19,
41,4,455,3,3,10,['k'],['d'],N,Y,['space'],Y,,,,,,,male,19,
41,5,456,5,5,10,['d'],['k'],N,N,None,Y,,,,,,,male,19,
41,6,457,1,1,10,['d'],['d'],Y,Y,['space'],Y,,,,,,,male,19,
41,7,458,2,2,10,['d'],['d'],Y,Y,['space'],Y,,,,,,,male,19,
41,8,459,2,2,10,['d'],['d'],Y,N,None,Y,,,,,,,male,19,
41,9,460,8,8,10,['k'],['k'],Y,N,None,Y,,,,,,,male,19,
41,10,461,6,6,10,['d'],['d'],Y,N,None,Y,,,,,,,male,19,
42,0,462,2,2,10,['d'],['k'],N,N,None,Y,,,,,,,male,19,
42,1,463,9,9,10,['d'],['d'],Y,Y,['space'],Y,,,,,,,male,19,
42,2,464,2,2,10,['k'],['k'],Y,Y,['space'],Y,,,,,,,male,19,
42,3,465,9,9,10,['k'],['k'],Y,N,None,Y,,,,,,,male,19,
42,4,466,5,5,10,['k'],['k'],Y,Y,['space'],Y,,,,,,,male,19,
42,5,467,0,0,10,['d'],['d'],Y,N,None,Y,,,,,,,male,19,
42,6,468,0,0,10,['k'],['k'],Y,Y,['space'],Y,,,,,,,male,19,
42,7,469,6,6,10,['k'],['d'],N,Y,['space'],Y,,,,,,,male,19,
42,8,470,7,7,10,['k'],['d'],N,Y,['space'],Y,,,,,,,male,19,
42,9,471,1,1,10,['k'],['d'],N,N,None,Y,,,,,,,male,19,
42,10,472,3,3,10,['d'],['d'],Y,Y,['space'],Y,,,,,,,male,19,
43,0,473,3,3,10,['d'],['k'],N,Y,None,N,,,,,,,male,19,
43,1,474,4,4,10,['k'],['d'],N,N,None,Y,,,,,,,male,19,
43,2,475,8,8,10,['d'],['d'],Y,Y,['space'],Y,,,,,,,male,19,
43,3,476,7,7,10,['k'],['k'],Y,Y,None,N,,,,,,,male,19,
43,4,477,9,9,10,['d'],['k'],N,N,None,Y,,,,,,,male,19,
43,5,478,7,7,10,['d'],['k'],N,Y,['space'],Y,,,,,,,male,19,
43,6,479,5,5,10,['d'],['d'],Y,N,None,Y,,,,,,,male,19,
43,7,480,6,6,10,['d'],['d'],Y,N,None,Y,,,,,,,male,19,
43,8,481,6,6,10,['d'],['d'],Y,Y,['space'],Y,,,,,,,male,19,
43,9,482,7,7,10,['k'],['d'],N,Y,['space'],Y,,,,,,,male,19,
43,10,483,5,5,10,['d'],['d'],Y,Y,['space'],Y,,,,,,,male,19,
44,0,484,4,4,10,['k'],['k'],Y,Y,['space'],Y,,,,,,,male,19,
44,1,485,0,0,10,['d'],['k'],N,N,None,Y,,,,,,,male,19,
44,2,486,4,4,10,['k'],['k'],Y,N,None,Y,,,,,,,male,19,
44,3,487,0,0,10,['d'],['d'],Y,N,None,Y,,,,,,,male,19,
44,4,488,6,6,10,['k'],['k'],Y,Y,['space'],Y,,,,,,,male,19,
44,5,489,0,0,10,['k'],['k'],Y,N,None,Y,,,,,,,male,19,
44,6,490,3,3,10,['k'],['k'],Y,Y,['space'],Y,,,,,,,male,19,
44,7,491,0,0,10,['k'],['k'],Y,Y,['space'],Y,,,,,,,male,19,
44,8,492,1,1,10,['k'],['k'],Y,Y,['space'],Y,,,,,,,male,19,
44,9,493,10,10,10,['d'],['d'],Y,N,None,Y,,,,,,,male,19,
44,10,494,5,5,10,['d'],['d'],Y,Y,['space'],Y,,,,,,,male,19,
45,0,495,1,1,10,['k'],['k'],Y,Y,['space'],Y,,,,,,,male,19,
45,1,496,9,9,10,['d'],['k'],N,N,None,Y,,,,,,,male,19,
45,2,497,3,3,10,['k'],['d'],N,N,None,Y,,,,,,,male,19,
45,3,498,3,3,10,['k'],['k'],Y,N,None,Y,,,,,,,male,19,
45,4,499,10,10,10,['k'],['d'],N,N,None,Y,31,46,25,,,,male,19,
45,5,500,8,8,11,['d'],['d'],N,,,,,,,Y,Y,Y,male,19,
45,6,501,9,9,11,['d'],['d'],N,,,,,,,,Y,Y,male,19,
45,7,502,10,10,11,['d'],['k'],Y,Y,['space'],Y,,,,,Y,Y,male,19,
45,8,503,3,3,11,None,,Timed out,Y,['space'],Y,,,,,Y,Y,male,19,
45,9,504,9,9,11,['d'],['k'],Y,Y,['space'],Y,,,,,Y,Y,male,19,
45,10,505,9,9,11,['d'],['d'],N,Y,None,N,,,,,Y,Y,male,19,
46,0,506,2,2,11,['d'],['k'],Y,N,None,Y,,,,,Y,Y,male,19,
46,1,507,9,9,11,['k'],['d'],Y,N,None,Y,,,,,Y,Y,male,19,
46,2,508,4,4,11,['d'],['k'],Y,Y,['space'],Y,,,,,Y,Y,male,19,
46,3,509,2,2,11,['d'],['k'],Y,N,None,Y,,,,,Y,Y,male,19,
46,4,510,1,1,11,['d'],['k'],Y,Y,['space'],Y,,,,,Y,Y,male,19,
46,5,511,8,8,11,['d'],['k'],Y,N,None,Y,,,,,Y,Y,male,19,
46,6,512,3,3,11,['k'],['d'],Y,N,None,Y,,,,,Y,Y,male,19,
46,7,513,6,6,11,['d'],['k'],Y,Y,['space'],Y,,,,,Y,Y,male,19,
46,8,514,8,8,11,['k'],['d'],Y,Y,['space'],Y,,,,,Y,Y,male,19,
46,9,515,5,5,11,['k'],['d'],Y,Y,None,N,,,,,Y,Y,male,19,
46,10,516,6,6,11,['d'],['d'],N,Y,None,N,,,,,Y,Y,male,19,
47,0,517,9,9,11,['d'],['k'],Y,N,None,Y,,,,,Y,Y,male,19,
47,1,518,2,2,11,['k'],['d'],Y,Y,['space'],Y,,,,,Y,Y,male,19,
47,2,519,3,3,11,['d'],['d'],N,Y,['space'],Y,,,,,Y,Y,male,19,
47,3,520,5,5,11,['d'],['d'],N,N,None,Y,,,,,Y,Y,male,19,
47,4,521,1,1,11,['d'],['k'],Y,N,None,Y,,,,,Y,Y,male,19,
47,5,522,1,1,11,['k'],['d'],Y,Y,['space'],Y,,,,,Y,Y,male,19,
47,6,523,3,3,11,['k'],['d'],Y,N,None,Y,,,,,Y,Y,male,19,
47,7,524,1,1,11,['d'],['k'],Y,Y,['space'],Y,,,,,Y,Y,male,19,
47,8,525,8,8,11,['k'],['d'],Y,N,None,Y,,,,,Y,Y,male,19,
47,9,526,2,2,11,['k'],['d'],Y,Y,['space'],Y,,,,,Y,Y,male,19,
47,10,527,7,7,11,['d'],['k'],Y,Y,['space'],Y,,,,,Y,Y,male,19,
48,0,528,4,4,11,['k'],['d'],Y,Y,['space'],Y,,,,,Y,Y,male,19,
48,1,529,3,3,11,['d'],['d'],N,N,None,Y,,,,,Y,Y,male,19,
48,2,530,6,6,11,['d'],['d'],N,N,None,Y,,,,,Y,Y,male,19,
48,3,531,10,10,11,['k'],['d'],Y,Y,['space'],Y,,,,,Y,Y,male,19,
48,4,532,10,10,11,['k'],['d'],Y,N,None,Y,,,,,Y,Y,male,19,
48,5,533,5,5,11,['d'],['k'],Y,Y,['space'],Y,,,,,Y,Y,male,19,
48,6,534,1,1,11,['d'],['d'],N,N,None,Y,,,,,Y,Y,male,19,
48,7,535,9,9,11,['d'],['k'],Y,Y,['space'],Y,,,,,Y,Y,male,19,
48,8,536,7,7,11,['k'],['k'],N,Y,['space'],Y,,,,,Y,Y,male,19,
48,9,537,1,1,11,['k'],['k'],N,N,None,Y,,,,,Y,Y,male,19,
48,10,538,9,9,11,['k'],['k'],N,Y,['space'],Y,,,,,Y,Y,male,19,
49,0,539,7,7,11,['d'],['k'],Y,Y,['space'],Y,,,,,Y,Y,male,19,
49,1,540,9,9,11,['d'],['d'],N,Y,['space'],Y,,,,,Y,Y,male,19,
49,2,541,7,7,11,['k'],['k'],N,N,None,Y,,,,,Y,Y,male,19,
49,3,542,8,8,11,['d'],['d'],N,N,None,Y,,,,,Y,Y,male,19,
49,4,543,1,1,11,None,,Timed out,N,None,Y,,,,,Y,Y,male,19,
49,5,544,10,10,11,['d'],['d'],N,Y,['space'],Y,,,,,Y,Y,male,19,
49,6,545,10,10,11,['d'],['k'],Y,N,None,Y,,,,,Y,Y,male,19,
49,7,546,2,2,11,['k'],['d'],Y,N,None,Y,,,,,Y,Y,male,19,
49,8,547,7,7,11,['d'],['d'],N,N,None,Y,,,,,Y,Y,male,19,
49,9,548,10,10,11,['k'],['d'],Y,N,['space'],N,,,,,Y,Y,male,19,
49,10,549,7,7,11,['d'],['d'],N,N,None,Y,30,44,25,,Y,Y,male,19,
50,0,550,10,10,12,['k'],['k'],N,,,,,,,,Y,Y,male,19,
50,1,551,7,7,12,['k'],['d'],Y,,,,,,,,Y,Y,male,19,
50,2,552,2,2,12,['d'],['d'],N,Y,['space'],Y,,,,,Y,Y,male,19,
50,3,553,0,0,12,['d'],['k'],Y,N,None,Y,,,,,Y,Y,male,19,
50,4,554,5,5,12,['d'],['k'],Y,N,None,Y,,,,,Y,Y,male,19,
50,5,555,9,9,12,['k'],['d'],Y,N,None,Y,,,,,Y,Y,male,19,
50,6,556,7,7,12,['k'],['d'],Y,Y,['space'],Y,,,,,Y,Y,male,19,
50,7,557,2,2,12,['d'],['d'],N,N,None,Y,,,,,Y,Y,male,19,
50,8,558,9,9,12,['d'],['k'],Y,Y,['space'],Y,,,,,Y,Y,male,19,
50,9,559,5,5,12,['d'],['k'],Y,N,None,Y,,,,,Y,Y,male,19,
50,10,560,4,4,12,['d'],['k'],Y,N,None,Y,,,,,Y,Y,male,19,
51,0,561,3,3,12,['k'],['k'],N,N,None,Y,,,,,Y,Y,male,19,
51,1,562,3,3,12,['d'],['k'],Y,N,None,Y,,,,,Y,Y,male,19,
51,2,563,4,4,12,['d'],['d'],N,Y,None,N,,,,,Y,Y,male,19,
51,3,564,9,9,12,['k'],['k'],N,N,None,Y,,,,,Y,Y,male,19,
51,4,565,7,7,12,['k'],['d'],Y,N,None,Y,,,,,Y,Y,male,19,
51,5,566,1,1,12,['k'],['k'],N,Y,['space'],Y,,,,,Y,Y,male,19,
51,6,567,6,6,12,['d'],['d'],N,Y,['space'],Y,,,,,Y,Y,male,19,
51,7,568,7,7,12,['d'],['d'],N,Y,None,N,,,,,Y,Y,male,19,
51,8,569,2,2,12,['k'],['d'],Y,N,None,Y,,,,,Y,Y,male,19,
51,9,570,7,7,12,['d'],['k'],Y,N,None,Y,,,,,Y,Y,male,19,
51,10,571,7,7,12,['k'],['k'],N,N,None,Y,,,,,Y,Y,male,19,
52,0,572,1,1,12,['d'],['k'],Y,Y,['space'],Y,,,,,Y,Y,male,19,
52,1,573,4,4,12,['d'],['d'],N,N,None,Y,,,,,Y,Y,male,19,
52,2,574,1,1,12,['k'],['d'],Y,Y,['space'],Y,,,,,Y,Y,male,19,
52,3,575,8,8,12,['d'],['d'],N,Y,['space'],Y,,,,,Y,Y,male,19,
52,4,576,9,9,12,['d'],['k'],Y,N,None,Y,,,,,Y,Y,male,19,
52,5,577,8,8,12,['k'],['d'],Y,Y,['space'],Y,,,,,Y,Y,male,19,
52,6,578,6,6,12,['d'],['d'],N,N,None,Y,,,,,Y,Y,male,19,
52,7,579,10,10,12,['d'],['d'],N,Y,['space'],Y,,,,,Y,Y,male,19,
52,8,580,9,9,12,['k'],['k'],N,Y,['space'],Y,,,,,Y,Y,male,19,
52,9,581,2,2,12,['d'],['d'],N,Y,['space'],Y,,,,,Y,Y,male,19,
52,10,582,9,9,12,['k'],['k'],N,Y,['space'],Y,,,,,Y,Y,male,19,
53,0,583,5,5,12,['d'],['d'],N,Y,['space'],Y,,,,,Y,Y,male,19,
53,1,584,0,0,12,['k'],['d'],Y,Y,['space'],Y,,,,,Y,Y,male,19,
53,2,585,8,8,12,['d'],['k'],Y,Y,['space'],Y,,,,,Y,Y,male,19,
53,3,586,6,6,12,['d'],['k'],Y,Y,['space'],Y,,,,,Y,Y,male,19,
53,4,587,10,10,12,['k'],['d'],Y,N,None,Y,,,,,Y,Y,male,19,
53,5,588,1,1,12,['k'],['d'],Y,N,None,Y,,,,,Y,Y,male,19,
53,6,589,2,2,12,['k'],['k'],N,N,None,Y,,,,,Y,Y,male,19,
53,7,590,1,1,12,['d'],['d'],N,N,None,Y,,,,,Y,Y,male,19,
53,8,591,3,3,12,['k'],['d'],Y,Y,['space'],Y,,,,,Y,Y,male,19,
53,9,592,7,7,12,['k'],['d'],Y,N,None,Y,,,,,Y,Y,male,19,
53,10,593,7,7,12,['d'],['d'],N,N,['space'],N,,,,,Y,Y,male,19,
54,0,594,6,6,12,['k'],['d'],Y,Y,['space'],Y,,,,,Y,Y,male,19,
54,1,595,7,7,12,['d'],['d'],N,N,None,Y,,,,,Y,Y,male,19,
54,2,596,10,10,12,['k'],['d'],Y,N,None,Y,,,,,Y,Y,male,19,
54,3,597,9,9,12,['d'],['k'],Y,N,None,Y,,,,,Y,Y,male,19,
54,4,598,6,6,12,['k'],['d'],Y,Y,['space'],Y,,,,,Y,Y,male,19,
54,5,599,8,8,12,['k'],['k'],N,N,None,Y,27,45,22,,Y,Y,male,19,
