.thisRepN,.thisTrialN,.thisN,.thisIndex,.thisTrial,Block Number,Key pressed,Category,Correct?,Int Match?,Int Response,Int Correct?,Line Accuracy,Interference Accuracy,Matching Interferences,New instruction shown?,Buttons switched?,Fast?,gender,age,
0,0,0,4,4,1,['k'],['d'],N,,,,,,,,,,Female,20,
0,1,1,1,1,1,['d'],['d'],Y,,,,,,,,,,Female,20,
0,2,2,3,3,1,['d'],['d'],Y,N,None,Y,,,,,,,Female,20,
0,3,3,12,12,1,['d'],['d'],Y,N,None,Y,,,,,,,Female,20,
0,4,4,11,11,1,['d'],['d'],Y,Y,None,N,,,,,,,Female,20,
0,5,5,8,8,1,['d'],['k'],N,Y,['space'],Y,,,,,,,Female,20,
0,6,6,1,1,1,['k'],['k'],Y,Y,None,N,,,,,,,Female,20,
0,7,7,2,2,1,['d'],['d'],Y,N,['space'],N,,,,,,,Female,20,
0,8,8,14,14,1,['k'],['d'],N,Y,None,N,,,,,,,Female,20,
0,9,9,12,12,1,['k'],['d'],N,N,['space'],N,,,,,,,Female,20,
0,10,10,2,2,1,['d'],['d'],Y,N,None,Y,,,,,,,Female,20,
0,11,11,9,9,1,['k'],['k'],Y,Y,['space'],Y,,,,,,,Female,20,
0,12,12,4,4,1,['d'],['d'],Y,Y,None,N,,,,,,,Female,20,
0,13,13,12,12,1,['k'],['d'],N,N,['space'],N,,,,,,,Female,20,
0,14,14,7,7,1,['k'],['k'],Y,Y,None,N,,,,,,,Female,20,
1,0,15,3,3,1,['d'],['k'],N,Y,None,N,,,,,,,Female,20,
1,1,16,0,0,1,['k'],['k'],Y,Y,['space'],Y,,,,,,,Female,20,
1,2,17,14,14,1,['d'],['d'],Y,Y,None,N,,,,,,,Female,20,
1,3,18,7,7,1,['d'],['d'],Y,Y,['space'],Y,,,,,,,Female,20,
1,4,19,8,8,1,['k'],['k'],Y,Y,['space'],Y,,,,,,,Female,20,
1,5,20,5,5,1,['d'],['k'],N,N,None,Y,,,,,,,Female,20,
1,6,21,13,13,1,['d'],['d'],Y,N,None,Y,,,,,,,Female,20,
1,7,22,13,13,1,['k'],['d'],N,N,None,Y,,,,,,,Female,20,
1,8,23,4,4,1,['k'],['k'],Y,N,None,Y,,,,,,,Female,20,
1,9,24,2,2,1,['k'],['k'],Y,Y,['space'],Y,,,,,,,Female,20,
1,10,25,7,7,1,['k'],['k'],Y,Y,None,N,,,,,,,Female,20,
1,11,26,14,14,1,['d'],['d'],Y,N,None,Y,,,,,,,Female,20,
1,12,27,12,12,1,['k'],['d'],N,Y,['space'],Y,,,,,,,Female,20,
1,13,28,2,2,1,['d'],['k'],N,Y,['d'],N,,,,,,,Female,20,
1,14,29,9,9,1,['k'],['k'],Y,Y,None,N,,,,,,,Female,20,
2,0,30,8,8,1,['d'],['k'],N,Y,None,N,,,,,,,Female,20,
2,1,31,13,13,1,['k'],['k'],Y,Y,None,N,,,,,,,Female,20,
2,2,32,2,2,1,['d'],['d'],Y,N,None,Y,,,,,,,Female,20,
2,3,33,11,11,1,['k'],['k'],Y,N,None,Y,,,,,,,Female,20,
2,4,34,4,4,1,['d'],['k'],N,N,None,Y,,,,,,,Female,20,
2,5,35,4,4,1,['k'],['k'],Y,Y,None,N,,,,,,,Female,20,
2,6,36,4,4,1,['d'],['d'],Y,Y,None,N,,,,,,,Female,20,
2,7,37,0,0,1,['k'],['d'],N,N,None,Y,,,,,,,Female,20,
2,8,38,13,13,1,['k'],['k'],Y,Y,['space'],Y,,,,,,,Female,20,
2,9,39,7,7,1,['d'],['d'],Y,N,None,Y,,,,,,,Female,20,
2,10,40,1,1,1,['k'],['k'],Y,N,None,Y,,,,,,,Female,20,
2,11,41,13,13,1,['k'],['k'],Y,Y,None,N,,,,,,,Female,20,
2,12,42,11,11,1,['d'],['d'],Y,Y,None,N,,,,,,,Female,20,
2,13,43,0,0,1,['k'],['d'],N,N,None,Y,,,,,,,Female,20,
2,14,44,1,1,1,['d'],['d'],Y,Y,['space'],Y,,,,,,,Female,20,
3,0,45,0,0,1,['d'],['k'],N,N,None,Y,,,,,,,Female,20,
3,1,46,11,11,1,['k'],['d'],N,N,['k'],N,,,,,,,Female,20,
3,2,47,2,2,1,['d'],['k'],N,N,None,Y,,,,,,,Female,20,
3,3,48,10,10,1,['d'],['d'],Y,N,None,Y,,,,,,,Female,20,
3,4,49,6,6,1,['k'],['d'],N,N,None,Y,32,28,25,,,,Female,20,
3,5,50,1,1,2,['d'],['k'],N,,,,,,,,,,Female,20,
3,6,51,13,13,2,['d'],['k'],N,,,,,,,,,,Female,20,
3,7,52,7,7,2,['k'],['k'],Y,N,None,Y,,,,,,,Female,20,
3,8,53,4,4,2,['d'],['d'],Y,Y,None,N,,,,,,,Female,20,
3,9,54,2,2,2,['k'],['d'],N,N,['space'],N,,,,,,,Female,20,
3,10,55,0,0,2,['d'],['d'],Y,Y,['space'],Y,,,,,,,Female,20,
3,11,56,5,5,2,['k'],['d'],N,Y,['space'],Y,,,,,,,Female,20,
3,12,57,14,14,2,['k'],['k'],Y,Y,['space'],Y,,,,,,,Female,20,
3,13,58,9,9,2,['d'],['d'],Y,N,None,Y,,,,,,,Female,20,
3,14,59,3,3,2,['k'],['d'],N,N,None,Y,,,,,,,Female,20,
4,0,60,14,14,2,['d'],['k'],N,Y,['space'],Y,,,,,,,Female,20,
4,1,61,5,5,2,['k'],['k'],Y,Y,['space'],Y,,,,,,,Female,20,
4,2,62,5,5,2,['k'],['k'],Y,N,None,Y,,,,,,,Female,20,
4,3,63,7,7,2,['d'],['d'],Y,Y,['space'],Y,,,,,,,Female,20,
4,4,64,8,8,2,['k'],['k'],Y,N,None,Y,,,,,,,Female,20,
4,5,65,11,11,2,['d'],['k'],N,N,None,Y,,,,,,,Female,20,
4,6,66,9,9,2,['d'],['d'],Y,Y,['space'],Y,,,,,,,Female,20,
4,7,67,4,4,2,['k'],['k'],Y,N,None,Y,,,,,,,Female,20,
4,8,68,7,7,2,['d'],['k'],N,Y,['space'],Y,,,,,,,Female,20,
4,9,69,13,13,2,['d'],['k'],N,Y,None,N,,,,,,,Female,20,
4,10,70,5,5,2,['d'],['d'],Y,N,['space'],N,,,,,,,Female,20,
4,11,71,9,9,2,['k'],['d'],N,Y,['space'],Y,,,,,,,Female,20,
4,12,72,4,4,2,['d'],['k'],N,N,None,Y,,,,,,,Female,20,
4,13,73,6,6,2,['k'],['d'],N,Y,['space'],Y,,,,,,,Female,20,
4,14,74,2,2,2,['d'],['k'],N,Y,None,N,,,,,,,Female,20,
5,0,75,7,7,2,['k'],['k'],Y,Y,['space'],Y,,,,,,,Female,20,
5,1,76,5,5,2,['k'],['k'],Y,Y,['space'],Y,,,,,,,Female,20,
5,2,77,2,2,2,['d'],['d'],Y,N,None,Y,,,,,,,Female,20,
5,3,78,7,7,2,['k'],['d'],N,Y,['space'],Y,,,,,,,Female,20,
5,4,79,4,4,2,['k'],['k'],Y,N,['space'],N,,,,,,,Female,20,
5,5,80,8,8,2,['k'],['k'],Y,Y,['space'],Y,,,,,,,Female,20,
5,6,81,10,10,2,['k'],['k'],Y,N,None,Y,,,,,,,Female,20,
5,7,82,11,11,2,['d'],['k'],N,N,None,Y,,,,,,,Female,20,
5,8,83,3,3,2,['d'],['k'],N,Y,None,N,,,,,,,Female,20,
5,9,84,6,6,2,['k'],['d'],N,N,None,Y,,,,,,,Female,20,
5,10,85,9,9,2,['d'],['k'],N,N,None,Y,,,,,,,Female,20,
5,11,86,10,10,2,['k'],['k'],Y,N,None,Y,,,,,,,Female,20,
5,12,87,9,9,2,['k'],['d'],N,Y,['space'],Y,,,,,,,Female,20,
5,13,88,4,4,2,['d'],['k'],N,Y,['space'],Y,,,,,,,Female,20,
5,14,89,9,9,2,['d'],['d'],Y,Y,['space'],Y,,,,,,,Female,20,
6,0,90,11,11,2,['d'],['d'],Y,Y,['space'],Y,,,,,,,Female,20,
6,1,91,13,13,2,['k'],['k'],Y,Y,['space'],Y,,,,,,,Female,20,
6,2,92,11,11,2,['d'],['d'],Y,N,None,Y,,,,,,,Female,20,
6,3,93,6,6,2,['k'],['d'],N,Y,['space'],Y,,,,,,,Female,20,
6,4,94,5,5,2,['d'],['d'],Y,N,None,Y,,,,,,,Female,20,
6,5,95,8,8,2,['d'],['d'],Y,Y,['space'],Y,,,,,,,Female,20,
6,6,96,11,11,2,['k'],['d'],N,N,['space'],N,,,,,,,Female,20,
6,7,97,9,9,2,['k'],['k'],Y,N,None,Y,,,,,,,Female,20,
6,8,98,3,3,2,['k'],['k'],Y,N,None,Y,,,,,,,Female,20,
6,9,99,13,13,2,['k'],['k'],Y,N,None,Y,28,40,25,,,,Female,20,
6,10,100,10,10,3,['d'],['k'],N,,,,,,,,,,Female,20,
6,11,101,14,14,3,['k'],['k'],Y,,,,,,,,,,Female,20,
6,12,102,3,3,3,['k'],['k'],Y,Y,['space'],Y,,,,,,,Female,20,
6,13,103,14,14,3,['k'],['k'],Y,N,None,Y,,,,,,,Female,20,
6,14,104,14,14,3,['d'],['k'],N,Y,['space'],Y,,,,,,,Female,20,
7,0,105,2,2,3,['k'],['k'],Y,N,None,Y,,,,,,,Female,20,
7,1,106,2,2,3,['d'],['k'],N,Y,['space'],Y,,,,,,,Female,20,
7,2,107,0,0,3,['k'],['k'],Y,Y,['space'],Y,,,,,,,Female,20,
7,3,108,12,12,3,['d'],['d'],Y,N,None,Y,,,,,,,Female,20,
7,4,109,4,4,3,['k'],['k'],Y,Y,['space'],Y,,,,,,,Female,20,
7,5,110,0,0,3,['d'],['d'],Y,N,['space'],N,,,,,,,Female,20,
7,6,111,0,0,3,['d'],['d'],Y,Y,['space'],Y,,,,,,,Female,20,
7,7,112,4,4,3,['k'],['d'],N,Y,['space'],Y,,,,,,,Female,20,
7,8,113,3,3,3,['d'],['d'],Y,Y,['space'],Y,,,,,,,Female,20,
7,9,114,14,14,3,['k'],['d'],N,Y,['space'],Y,,,,,,,Female,20,
7,10,115,9,9,3,['k'],['k'],Y,Y,['space'],Y,,,,,,,Female,20,
7,11,116,1,1,3,['k'],['k'],Y,Y,['space'],Y,,,,,,,Female,20,
7,12,117,2,2,3,['k'],['k'],Y,Y,['space'],Y,,,,,,,Female,20,
7,13,118,14,14,3,['d'],['d'],Y,Y,['space'],Y,,,,,,,Female,20,
7,14,119,14,14,3,['k'],['d'],N,N,None,Y,,,,,,,Female,20,
8,0,120,12,12,3,['k'],['d'],N,N,None,Y,,,,,,,Female,20,
8,1,121,6,6,3,['k'],['k'],Y,N,None,Y,,,,,,,Female,20,
8,2,122,7,7,3,['d'],['d'],Y,N,None,Y,,,,,,,Female,20,
8,3,123,3,3,3,['k'],['k'],Y,Y,['space'],Y,,,,,,,Female,20,
8,4,124,4,4,3,['k'],['k'],Y,N,None,Y,,,,,,,Female,20,
8,5,125,4,4,3,['k'],['k'],Y,Y,['space'],Y,,,,,,,Female,20,
8,6,126,0,0,3,['k'],['k'],Y,Y,['space'],Y,,,,,,,Female,20,
8,7,127,9,9,3,['k'],['k'],Y,Y,['space'],Y,,,,,,,Female,20,
8,8,128,10,10,3,['k'],['k'],Y,N,['space'],N,,,,,,,Female,20,
8,9,129,11,11,3,['k'],['k'],Y,N,None,Y,,,,,,,Female,20,
8,10,130,10,10,3,['d'],['d'],Y,Y,None,N,,,,,,,Female,20,
8,11,131,6,6,3,['d'],['k'],N,Y,['space'],Y,,,,,,,Female,20,
8,12,132,6,6,3,['k'],['k'],Y,Y,None,N,,,,,,,Female,20,
8,13,133,4,4,3,['k'],['k'],Y,Y,['space'],Y,,,,,,,Female,20,
8,14,134,0,0,3,['d'],['k'],N,N,None,Y,,,,,,,Female,20,
9,0,135,14,14,3,['d'],['d'],Y,N,None,Y,,,,,,,Female,20,
9,1,136,8,8,3,['k'],['k'],Y,Y,['space'],Y,,,,,,,Female,20,
9,2,137,12,12,3,['d'],['d'],Y,Y,['space'],Y,,,,,,,Female,20,
9,3,138,8,8,3,['k'],['k'],Y,Y,['space'],Y,,,,,,,Female,20,
9,4,139,5,5,3,['k'],['k'],Y,N,None,Y,,,,,,,Female,20,
9,5,140,1,1,3,['d'],['d'],Y,N,None,Y,,,,,,,Female,20,
9,6,141,11,11,3,['k'],['d'],N,Y,['space'],Y,,,,,,,Female,20,
9,7,142,3,3,3,['k'],['k'],Y,N,None,Y,,,,,,,Female,20,
9,8,143,4,4,3,['d'],['d'],Y,N,None,Y,,,,,,,Female,20,
9,9,144,4,4,3,['k'],['k'],Y,N,['space'],N,,,,,,,Female,20,
9,10,145,7,7,3,['d'],['d'],Y,N,None,Y,,,,,,,Female,20,
9,11,146,13,13,3,['d'],['d'],Y,N,None,Y,,,,,,,Female,20,
9,12,147,9,9,3,['k'],['k'],Y,N,None,Y,,,,,,,Female,20,
9,13,148,9,9,3,['k'],['k'],Y,N,None,Y,,,,,,,Female,20,
9,14,149,14,14,3,['k'],['k'],Y,N,None,Y,40,43,25,,,,Female,20,
10,0,150,0,0,4,['k'],['k'],Y,,,,,,,,,,Female,20,
10,1,151,7,7,4,['k'],['k'],Y,,,,,,,,,,Female,20,
10,2,152,2,2,4,['k'],['k'],Y,Y,['space'],Y,,,,,,,Female,20,
10,3,153,5,5,4,['k'],['k'],Y,N,None,Y,,,,,,,Female,20,
10,4,154,12,12,4,['k'],['k'],Y,N,None,Y,,,,,,,Female,20,
10,5,155,8,8,4,['k'],['k'],Y,N,None,Y,,,,,,,Female,20,
10,6,156,3,3,4,['k'],['k'],Y,Y,None,N,,,,,,,Female,20,
10,7,157,7,7,4,['d'],['d'],Y,N,None,Y,,,,,,,Female,20,
10,8,158,4,4,4,['k'],['k'],Y,N,None,Y,,,,,,,Female,20,
10,9,159,0,0,4,['d'],['k'],N,Y,['space'],Y,,,,,,,Female,20,
10,10,160,9,9,4,['k'],['k'],Y,N,None,Y,,,,,,,Female,20,
10,11,161,5,5,4,['k'],['d'],N,N,None,Y,,,,,,,Female,20,
10,12,162,9,9,4,['k'],['k'],Y,Y,['space'],Y,,,,,,,Female,20,
10,13,163,8,8,4,['k'],['d'],N,N,None,Y,,,,,,,Female,20,
10,14,164,11,11,4,['d'],['d'],Y,Y,['space'],Y,,,,,,,Female,20,
11,0,165,10,10,4,['k'],['k'],Y,Y,['space'],Y,,,,,,,Female,20,
11,1,166,7,7,4,['k'],['k'],Y,N,None,Y,,,,,,,Female,20,
11,2,167,9,9,4,['d'],['d'],Y,Y,['space'],Y,,,,,,,Female,20,
11,3,168,2,2,4,['d'],['d'],Y,N,None,Y,,,,,,,Female,20,
11,4,169,2,2,4,['k'],['k'],Y,Y,['space'],Y,,,,,,,Female,20,
11,5,170,2,2,4,['d'],['d'],Y,Y,['space'],Y,,,,,,,Female,20,
11,6,171,6,6,4,['k'],['k'],Y,Y,['space'],Y,,,,,,,Female,20,
11,7,172,14,14,4,['d'],['d'],Y,Y,['space'],Y,,,,,,,Female,20,
11,8,173,4,4,4,['d'],['k'],N,N,None,Y,,,,,,,Female,20,
11,9,174,3,3,4,['d'],['d'],Y,Y,['space'],Y,,,,,,,Female,20,
11,10,175,11,11,4,['k'],['k'],Y,Y,['space'],Y,,,,,,,Female,20,
11,11,176,3,3,4,['d'],['d'],Y,Y,['space'],Y,,,,,,,Female,20,
11,12,177,0,0,4,['d'],['d'],Y,N,None,Y,,,,,,,Female,20,
11,13,178,7,7,4,['k'],['k'],Y,N,None,Y,,,,,,,Female,20,
11,14,179,0,0,4,['d'],['k'],N,N,None,Y,,,,,,,Female,20,
12,0,180,2,2,4,['k'],['k'],Y,N,None,Y,,,,,,,Female,20,
12,1,181,10,10,4,['d'],['d'],Y,Y,['space'],Y,,,,,,,Female,20,
12,2,182,8,8,4,['k'],['k'],Y,N,None,Y,,,,,,,Female,20,
12,3,183,10,10,4,['k'],['d'],N,Y,['space'],Y,,,,,,,Female,20,
12,4,184,14,14,4,['k'],['k'],Y,N,None,Y,,,,,,,Female,20,
12,5,185,11,11,4,['k'],['k'],Y,N,['space'],N,,,,,,,Female,20,
12,6,186,9,9,4,['k'],['k'],Y,Y,['space'],Y,,,,,,,Female,20,
12,7,187,8,8,4,['k'],['k'],Y,Y,['space'],Y,,,,,,,Female,20,
12,8,188,9,9,4,['d'],['d'],Y,Y,['space'],Y,,,,,,,Female,20,
12,9,189,10,10,4,['d'],['d'],Y,Y,['space'],Y,,,,,,,Female,20,
12,10,190,7,7,4,['d'],['d'],Y,N,None,Y,,,,,,,Female,20,
12,11,191,13,13,4,['k'],['k'],Y,N,['space'],N,,,,,,,Female,20,
12,12,192,1,1,4,['k'],['k'],Y,N,None,Y,,,,,,,Female,20,
12,13,193,11,11,4,['k'],['k'],Y,Y,None,N,,,,,,,Female,20,
12,14,194,7,7,4,['d'],['d'],Y,N,None,Y,,,,,,,Female,20,
13,0,195,10,10,4,['k'],['d'],N,Y,['space'],Y,,,,,,,Female,20,
13,1,196,2,2,4,['k'],['k'],Y,N,None,Y,,,,,,,Female,20,
13,2,197,2,2,4,['k'],['k'],Y,Y,['space'],Y,,,,,,,Female,20,
13,3,198,3,3,4,['d'],['k'],N,N,None,Y,,,,,,,Female,20,
13,4,199,5,5,4,['d'],['k'],N,Y,['space'],Y,41,44,24,,,,Female,20,
13,5,200,12,12,5,['k'],['k'],Y,,,,,,,,,,Female,20,
13,6,201,8,8,5,['k'],['k'],Y,,,,,,,,,,Female,20,
13,7,202,13,13,5,['k'],['k'],Y,N,None,Y,,,,,,,Female,20,
13,8,203,0,0,5,['k'],['k'],Y,N,None,Y,,,,,,,Female,20,
13,9,204,11,11,5,['d'],['d'],Y,Y,['space'],Y,,,,,,,Female,20,
13,10,205,14,14,5,['d'],['d'],Y,N,None,Y,,,,,,,Female,20,
13,11,206,13,13,5,['k'],['d'],N,N,['space'],N,,,,,,,Female,20,
13,12,207,12,12,5,['d'],['d'],Y,Y,None,N,,,,,,,Female,20,
13,13,208,9,9,5,['k'],['k'],Y,N,None,Y,,,,,,,Female,20,
13,14,209,9,9,5,['k'],['k'],Y,Y,['space'],Y,,,,,,,Female,20,
14,0,210,13,13,5,['d'],['d'],Y,N,None,Y,,,,,,,Female,20,
14,1,211,1,1,5,['k'],['d'],N,N,None,Y,,,,,,,Female,20,
14,2,212,2,2,5,['k'],['k'],Y,Y,['space'],Y,,,,,,,Female,20,
14,3,213,0,0,5,['d'],['d'],Y,Y,['space'],Y,,,,,,,Female,20,
14,4,214,10,10,5,['k'],['k'],Y,N,None,Y,,,,,,,Female,20,
14,5,215,2,2,5,['d'],['d'],Y,N,None,Y,,,,,,,Female,20,
14,6,216,0,0,5,['k'],['d'],N,N,None,Y,,,,,,,Female,20,
14,7,217,7,7,5,['d'],['d'],Y,N,None,Y,,,,,,,Female,20,
14,8,218,9,9,5,['k'],['k'],Y,N,None,Y,,,,,,,Female,20,
14,9,219,3,3,5,['d'],['d'],Y,N,None,Y,,,,,,,Female,20,
14,10,220,10,10,5,['k'],['k'],Y,N,None,Y,,,,,,,Female,20,
14,11,221,1,1,5,['k'],['d'],N,N,None,Y,,,,,,,Female,20,
14,12,222,1,1,5,['d'],['k'],N,N,None,Y,,,,,,,Female,20,
14,13,223,11,11,5,['d'],['d'],Y,Y,['space'],Y,,,,,,,Female,20,
14,14,224,2,2,5,['k'],['k'],Y,N,None,Y,,,,,,,Female,20,
15,0,225,4,4,5,['k'],['d'],N,N,None,Y,,,,,,,Female,20,
15,1,226,12,12,5,['d'],['d'],Y,N,None,Y,,,,,,,Female,20,
15,2,227,1,1,5,['d'],['d'],Y,N,['space'],N,,,,,,,Female,20,
15,3,228,12,12,5,['k'],['k'],Y,N,None,Y,,,,,,,Female,20,
15,4,229,6,6,5,['d'],['d'],Y,Y,['space'],Y,,,,,,,Female,20,
15,5,230,11,11,5,['k'],['k'],Y,Y,['space'],Y,,,,,,,Female,20,
15,6,231,10,10,5,['d'],['d'],Y,N,None,Y,,,,,,,Female,20,
15,7,232,5,5,5,['d'],['d'],Y,Y,['space'],Y,,,,,,,Female,20,
15,8,233,10,10,5,['k'],['k'],Y,N,None,Y,,,,,,,Female,20,
15,9,234,0,0,5,['k'],['k'],Y,Y,['space'],Y,,,,,,,Female,20,
15,10,235,5,5,5,['d'],['k'],N,Y,['space'],Y,,,,,,,Female,20,
15,11,236,12,12,5,['d'],['d'],Y,N,None,Y,,,,,,,Female,20,
15,12,237,13,13,5,['k'],['k'],Y,Y,['space'],Y,,,,,,,Female,20,
15,13,238,10,10,5,['d'],['d'],Y,N,None,Y,,,,,,,Female,20,
15,14,239,14,14,5,['k'],['k'],Y,Y,['space'],Y,,,,,,,Female,20,
16,0,240,1,1,5,['k'],['k'],Y,N,None,Y,,,,,,,Female,20,
16,1,241,14,14,5,['d'],['d'],Y,N,None,Y,,,,,,,Female,20,
16,2,242,1,1,5,['d'],['d'],Y,Y,['space'],Y,,,,,,,Female,20,
16,3,243,3,3,5,['d'],['d'],Y,N,None,Y,,,,,,,Female,20,
16,4,244,14,14,5,['d'],['d'],Y,Y,['space'],Y,,,,,,,Female,20,
16,5,245,0,0,5,['k'],['k'],Y,N,None,Y,,,,,,,Female,20,
16,6,246,9,9,5,['k'],['k'],Y,Y,['space'],Y,,,,,,,Female,20,
16,7,247,10,10,5,['k'],['d'],N,Y,['space'],Y,,,,,,,Female,20,
16,8,248,2,2,5,['d'],['d'],Y,Y,['space'],Y,,,,,,,Female,20,
16,9,249,6,6,5,['k'],['k'],Y,Y,None,N,42,44,19,,,,Female,20,
16,10,250,8,8,6,['k'],['k'],Y,,,,,,,,,,Female,20,
16,11,251,0,0,6,['k'],['k'],Y,,,,,,,,,,Female,20,
16,12,252,8,8,6,['k'],['k'],Y,Y,['space'],Y,,,,,,,Female,20,
16,13,253,5,5,6,['k'],['d'],N,Y,['space'],Y,,,,,,,Female,20,
16,14,254,4,4,6,['d'],['d'],Y,N,None,Y,,,,,,,Female,20,
17,0,255,2,2,6,['k'],['k'],Y,N,None,Y,,,,,,,Female,20,
17,1,256,14,14,6,['d'],['d'],Y,N,None,Y,,,,,,,Female,20,
17,2,257,1,1,6,['k'],['k'],Y,Y,['space'],Y,,,,,,,Female,20,
17,3,258,6,6,6,['k'],['k'],Y,Y,['space'],Y,,,,,,,Female,20,
17,4,259,13,13,6,['k'],['d'],N,Y,['space'],Y,,,,,,,Female,20,
17,5,260,13,13,6,['k'],['k'],Y,N,None,Y,,,,,,,Female,20,
17,6,261,14,14,6,['d'],['d'],Y,N,None,Y,,,,,,,Female,20,
17,7,262,7,7,6,['k'],['k'],Y,Y,['space'],Y,,,,,,,Female,20,
17,8,263,8,8,6,['d'],['d'],Y,N,None,Y,,,,,,,Female,20,
17,9,264,1,1,6,['d'],['d'],Y,Y,['space'],Y,,,,,,,Female,20,
17,10,265,13,13,6,['d'],['d'],Y,N,['space'],N,,,,,,,Female,20,
17,11,266,9,9,6,['d'],['d'],Y,N,None,Y,,,,,,,Female,20,
17,12,267,3,3,6,['d'],['d'],Y,N,None,Y,,,,,,,Female,20,
17,13,268,5,5,6,['d'],['d'],Y,N,None,Y,,,,,,,Female,20,
17,14,269,5,5,6,['k'],['k'],Y,N,None,Y,,,,,,,Female,20,
18,0,270,13,13,6,['d'],['d'],Y,N,['space'],N,,,,,,,Female,20,
18,1,271,5,5,6,['d'],['d'],Y,N,None,Y,,,,,,,Female,20,
18,2,272,6,6,6,['k'],['k'],Y,N,None,Y,,,,,,,Female,20,
18,3,273,8,8,6,['k'],['k'],Y,Y,['space'],Y,,,,,,,Female,20,
18,4,274,7,7,6,['d'],['d'],Y,N,None,Y,,,,,,,Female,20,
18,5,275,12,12,6,['k'],['k'],Y,N,None,Y,,,,,,,Female,20,
18,6,276,12,12,6,['d'],['d'],Y,N,None,Y,,,,,,,Female,20,
18,7,277,10,10,6,['d'],['d'],Y,Y,['space'],Y,,,,,,,Female,20,
18,8,278,1,1,6,['k'],['k'],Y,N,None,Y,,,,,,,Female,20,
18,9,279,3,3,6,['d'],['d'],Y,N,None,Y,,,,,,,Female,20,
18,10,280,7,7,6,['k'],['k'],Y,Y,['space'],Y,,,,,,,Female,20,
18,11,281,10,10,6,['k'],['k'],Y,Y,['space'],Y,,,,,,,Female,20,
18,12,282,1,1,6,['k'],['d'],N,N,None,Y,,,,,,,Female,20,
18,13,283,5,5,6,['d'],['d'],Y,Y,['space'],Y,,,,,,,Female,20,
18,14,284,9,9,6,['k'],['k'],Y,N,['space'],N,,,,,,,Female,20,
19,0,285,14,14,6,['d'],['d'],Y,N,None,Y,,,,,,,Female,20,
19,1,286,11,11,6,['d'],['d'],Y,N,None,Y,,,,,,,Female,20,
19,2,287,3,3,6,['d'],['d'],Y,Y,['space'],Y,,,,,,,Female,20,
19,3,288,12,12,6,['k'],['d'],N,Y,['space'],Y,,,,,,,Female,20,
19,4,289,13,13,6,['k'],['d'],N,N,None,Y,,,,,,,Female,20,
19,5,290,0,0,6,['k'],['d'],N,N,None,Y,,,,,,,Female,20,
19,6,291,3,3,6,['d'],['d'],Y,Y,['space'],Y,,,,,,,Female,20,
19,7,292,6,6,6,['k'],['k'],Y,N,None,Y,,,,,,,Female,20,
19,8,293,3,3,6,['d'],['d'],Y,N,None,Y,,,,,,,Female,20,
19,9,294,12,12,6,['d'],['d'],Y,N,None,Y,,,,,,,Female,20,
19,10,295,8,8,6,['k'],['k'],Y,Y,None,N,,,,,,,Female,20,
19,11,296,2,2,6,['k'],['k'],Y,Y,['space'],Y,,,,,,,Female,20,
19,12,297,10,10,6,['k'],['k'],Y,Y,['space'],Y,,,,,,,Female,20,
19,13,298,4,4,6,['k'],['k'],Y,Y,['space'],Y,,,,,,,Female,20,
19,14,299,13,13,6,['k'],['k'],Y,Y,['space'],Y,44,44,20,,,,Female,20,
20,0,300,0,0,7,['d'],['d'],Y,,,,,,,,,,Female,20,
20,1,301,3,3,7,['d'],['d'],Y,,,,,,,,,,Female,20,
20,2,302,7,7,7,['k'],['k'],Y,Y,['space'],Y,,,,,,,Female,20,
20,3,303,8,8,7,['k'],['k'],Y,N,None,Y,,,,,,,Female,20,
20,4,304,10,10,7,['d'],['d'],Y,Y,['space'],Y,,,,,,,Female,20,
20,5,305,7,7,7,['d'],['d'],Y,Y,['space'],Y,,,,,,,Female,20,
20,6,306,10,10,7,['d'],['k'],N,N,None,Y,,,,,,,Female,20,
20,7,307,9,9,7,['d'],['d'],Y,N,None,Y,,,,,,,Female,20,
20,8,308,14,14,7,['d'],['d'],Y,N,None,Y,,,,,,,Female,20,
20,9,309,6,6,7,['d'],['d'],Y,Y,['space'],Y,,,,,,,Female,20,
20,10,310,7,7,7,['d'],['d'],Y,Y,['space'],Y,,,,,,,Female,20,
20,11,311,3,3,7,['d'],['d'],Y,Y,['space'],Y,,,,,,,Female,20,
20,12,312,14,14,7,['d'],['d'],Y,N,None,Y,,,,,,,Female,20,
20,13,313,3,3,7,['d'],['d'],Y,N,None,Y,,,,,,,Female,20,
20,14,314,3,3,7,['k'],['k'],Y,N,None,Y,,,,,,,Female,20,
21,0,315,11,11,7,['d'],['k'],N,N,None,Y,,,,,,,Female,20,
21,1,316,5,5,7,['k'],['k'],Y,Y,['space'],Y,,,,,,,Female,20,
21,2,317,3,3,7,['d'],['d'],Y,N,['space'],N,,,,,,,Female,20,
21,3,318,3,3,7,['d'],['d'],Y,N,None,Y,,,,,,,Female,20,
21,4,319,10,10,7,['k'],['k'],Y,N,None,Y,,,,,,,Female,20,
21,5,320,11,11,7,['d'],['d'],Y,N,None,Y,,,,,,,Female,20,
21,6,321,9,9,7,['d'],['d'],Y,Y,['space'],Y,,,,,,,Female,20,
21,7,322,7,7,7,['d'],['k'],N,N,None,Y,,,,,,,Female,20,
21,8,323,14,14,7,['k'],['k'],Y,Y,None,N,,,,,,,Female,20,
21,9,324,0,0,7,['d'],['d'],Y,Y,['space'],Y,,,,,,,Female,20,
21,10,325,6,6,7,['d'],['d'],Y,N,None,Y,,,,,,,Female,20,
21,11,326,5,5,7,['k'],['k'],Y,Y,['space'],Y,,,,,,,Female,20,
21,12,327,8,8,7,['d'],['d'],Y,N,None,Y,,,,,,,Female,20,
21,13,328,0,0,7,['d'],['d'],Y,Y,['space'],Y,,,,,,,Female,20,
21,14,329,12,12,7,['d'],['d'],Y,N,None,Y,,,,,,,Female,20,
22,0,330,5,5,7,['k'],['k'],Y,Y,['space'],Y,,,,,,,Female,20,
22,1,331,14,14,7,['d'],['d'],Y,N,None,Y,,,,,,,Female,20,
22,2,332,10,10,7,['k'],['d'],N,Y,['space'],Y,,,,,,,Female,20,
22,3,333,6,6,7,['k'],['k'],Y,N,None,Y,,,,,,,Female,20,
22,4,334,6,6,7,['k'],['k'],Y,Y,['space'],Y,,,,,,,Female,20,
22,5,335,9,9,7,['d'],['d'],Y,Y,['space'],Y,,,,,,,Female,20,
22,6,336,8,8,7,['k'],['k'],Y,N,None,Y,,,,,,,Female,20,
22,7,337,9,9,7,['d'],['d'],Y,N,['space'],N,,,,,,,Female,20,
22,8,338,12,12,7,['d'],['d'],Y,N,None,Y,,,,,,,Female,20,
22,9,339,13,13,7,['d'],['d'],Y,N,None,Y,,,,,,,Female,20,
22,10,340,14,14,7,['k'],['k'],Y,Y,None,N,,,,,,,Female,20,
22,11,341,11,11,7,['k'],['k'],Y,Y,['space'],Y,,,,,,,Female,20,
22,12,342,3,3,7,['k'],['d'],N,N,None,Y,,,,,,,Female,20,
22,13,343,6,6,7,['k'],['k'],Y,Y,['space'],Y,,,,,,,Female,20,
22,14,344,4,4,7,['d'],['d'],Y,N,None,Y,,,,,,,Female,20,
23,0,345,13,13,7,['k'],['k'],Y,N,None,Y,,,,,,,Female,20,
23,1,346,6,6,7,['k'],['k'],Y,N,None,Y,,,,,,,Female,20,
23,2,347,10,10,7,['k'],['k'],Y,Y,None,N,,,,,,,Female,20,
23,3,348,2,2,7,['d'],['d'],Y,Y,['space'],Y,,,,,,,Female,20,
23,4,349,4,4,7,['k'],['d'],N,Y,['space'],Y,44,43,22,,,,Female,20,
23,5,350,6,6,8,['k'],['d'],N,,,,,,,,,,Female,20,
23,6,351,8,8,8,['k'],['k'],Y,,,,,,,,,,Female,20,
23,7,352,12,12,8,['k'],['k'],Y,N,None,Y,,,,,,,Female,20,
23,8,353,10,10,8,['d'],['d'],Y,Y,['space'],Y,,,,,,,Female,20,
23,9,354,9,9,8,['d'],['d'],Y,Y,['space'],Y,,,,,,,Female,20,
23,10,355,7,7,8,['d'],['d'],Y,N,None,Y,,,,,,,Female,20,
23,11,356,5,5,8,['d'],['d'],Y,N,None,Y,,,,,,,Female,20,
23,12,357,1,1,8,['d'],['k'],N,N,None,Y,,,,,,,Female,20,
23,13,358,8,8,8,['d'],['d'],Y,N,['space'],N,,,,,,,Female,20,
23,14,359,1,1,8,['d'],['d'],Y,Y,['space'],Y,,,,,,,Female,20,
24,0,360,5,5,8,['d'],['d'],Y,N,None,Y,,,,,,,Female,20,
24,1,361,9,9,8,['k'],['k'],Y,Y,['space'],Y,,,,,,,Female,20,
24,2,362,11,11,8,['k'],['k'],Y,Y,['space'],Y,,,,,,,Female,20,
24,3,363,2,2,8,['d'],['d'],Y,Y,['space'],Y,,,,,,,Female,20,
24,4,364,3,3,8,['k'],['k'],Y,Y,['space'],Y,,,,,,,Female,20,
24,5,365,13,13,8,['k'],['k'],Y,Y,['space'],Y,,,,,,,Female,20,
24,6,366,13,13,8,['k'],['k'],Y,Y,['space'],Y,,,,,,,Female,20,
24,7,367,12,12,8,['d'],['k'],N,N,None,Y,,,,,,,Female,20,
24,8,368,8,8,8,['k'],['k'],Y,Y,['space'],Y,,,,,,,Female,20,
24,9,369,12,12,8,['d'],['d'],Y,N,None,Y,,,,,,,Female,20,
24,10,370,1,1,8,['d'],['d'],Y,N,None,Y,,,,,,,Female,20,
24,11,371,11,11,8,['k'],['k'],Y,N,None,Y,,,,,,,Female,20,
24,12,372,4,4,8,['k'],['k'],Y,N,None,Y,,,,,,,Female,20,
24,13,373,12,12,8,['k'],['k'],Y,Y,['space'],Y,,,,,,,Female,20,
24,14,374,14,14,8,['k'],['k'],Y,N,None,Y,,,,,,,Female,20,
25,0,375,3,3,8,['k'],['k'],Y,N,None,Y,,,,,,,Female,20,
25,1,376,14,14,8,['k'],['d'],N,N,None,Y,,,,,,,Female,20,
25,2,377,6,6,8,['d'],['d'],Y,N,None,Y,,,,,,,Female,20,
25,3,378,2,2,8,['k'],['k'],Y,Y,['space'],Y,,,,,,,Female,20,
25,4,379,1,1,8,['k'],['k'],Y,Y,['space'],Y,,,,,,,Female,20,
25,5,380,1,1,8,['d'],['d'],Y,N,None,Y,,,,,,,Female,20,
25,6,381,7,7,8,['k'],['k'],Y,Y,['space'],Y,,,,,,,Female,20,
25,7,382,5,5,8,['d'],['d'],Y,N,None,Y,,,,,,,Female,20,
25,8,383,13,13,8,['k'],['k'],Y,Y,['space'],Y,,,,,,,Female,20,
25,9,384,11,11,8,['k'],['k'],Y,Y,['space'],Y,,,,,,,Female,20,
25,10,385,5,5,8,['k'],['k'],Y,Y,['space'],Y,,,,,,,Female,20,
25,11,386,7,7,8,['d'],['d'],Y,N,None,Y,,,,,,,Female,20,
25,12,387,1,1,8,['k'],['d'],N,Y,None,N,,,,,,,Female,20,
25,13,388,13,13,8,['d'],['d'],Y,N,None,Y,,,,,,,Female,20,
25,14,389,11,11,8,['k'],['k'],Y,Y,['space'],Y,,,,,,,Female,20,
26,0,390,6,6,8,['d'],['d'],Y,N,None,Y,,,,,,,Female,20,
26,1,391,6,6,8,['d'],['d'],Y,Y,['space'],Y,,,,,,,Female,20,
26,2,392,7,7,8,['k'],['k'],Y,N,None,Y,,,,,,,Female,20,
26,3,393,4,4,8,['d'],['d'],Y,Y,['space'],Y,,,,,,,Female,20,
26,4,394,13,13,8,['k'],['k'],Y,N,None,Y,,,,,,,Female,20,
26,5,395,14,14,8,['k'],['k'],Y,N,None,Y,,,,,,,Female,20,
26,6,396,9,9,8,['d'],['d'],Y,Y,['space'],Y,,,,,,,Female,20,
26,7,397,1,1,8,['k'],['k'],Y,Y,['space'],Y,,,,,,,Female,20,
26,8,398,6,6,8,['k'],['k'],Y,N,None,Y,,,,,,,Female,20,
26,9,399,11,11,8,['d'],['d'],Y,Y,['space'],Y,45,46,24,,,,Female,20,
26,10,400,5,5,9,['d'],['d'],Y,,,,,,,,,,Female,20,
26,11,401,12,12,9,['k'],['k'],Y,,,,,,,,,,Female,20,
26,12,402,11,11,9,['k'],['k'],Y,Y,['space'],Y,,,,,,,Female,20,
26,13,403,12,12,9,['d'],['d'],Y,Y,['space'],Y,,,,,,,Female,20,
26,14,404,2,2,9,['d'],['d'],Y,N,None,Y,,,,,,,Female,20,
27,0,405,14,14,9,['k'],['k'],Y,Y,['space'],Y,,,,,,,Female,20,
27,1,406,1,1,9,['d'],['d'],Y,Y,['space'],Y,,,,,,,Female,20,
27,2,407,11,11,9,['k'],['d'],N,N,None,Y,,,,,,,Female,20,
27,3,408,10,10,9,['k'],['k'],Y,N,None,Y,,,,,,,Female,20,
27,4,409,13,13,9,['d'],['d'],Y,N,None,Y,,,,,,,Female,20,
27,5,410,12,12,9,['d'],['d'],Y,N,None,Y,,,,,,,Female,20,
27,6,411,2,2,9,['d'],['k'],N,N,None,Y,,,,,,,Female,20,
27,7,412,0,0,9,['d'],['d'],Y,N,None,Y,,,,,,,Female,20,
27,8,413,9,9,9,['d'],['k'],N,Y,['space'],Y,,,,,,,Female,20,
27,9,414,0,0,9,['k'],['d'],N,N,None,Y,,,,,,,Female,20,
27,10,415,8,8,9,['d'],['d'],Y,N,None,Y,,,,,,,Female,20,
27,11,416,8,8,9,['k'],['k'],Y,Y,['space'],Y,,,,,,,Female,20,
27,12,417,0,0,9,['d'],['d'],Y,N,None,Y,,,,,,,Female,20,
27,13,418,11,11,9,['k'],['d'],N,Y,['space'],Y,,,,,,,Female,20,
27,14,419,4,4,9,['d'],['k'],N,Y,['space'],Y,,,,,,,Female,20,
28,0,420,11,11,9,['d'],['d'],Y,Y,['space'],Y,,,,,,,Female,20,
28,1,421,6,6,9,['k'],['k'],Y,Y,['space'],Y,,,,,,,Female,20,
28,2,422,11,11,9,['k'],['k'],Y,N,None,Y,,,,,,,Female,20,
28,3,423,2,2,9,['d'],['d'],Y,Y,['space'],Y,,,,,,,Female,20,
28,4,424,9,9,9,['d'],['d'],Y,Y,['space'],Y,,,,,,,Female,20,
28,5,425,6,6,9,['d'],['k'],N,Y,['space'],Y,,,,,,,Female,20,
28,6,426,12,12,9,['d'],['d'],Y,N,None,Y,,,,,,,Female,20,
28,7,427,8,8,9,['k'],['k'],Y,Y,['space'],Y,,,,,,,Female,20,
28,8,428,5,5,9,['d'],['d'],Y,Y,['space'],Y,,,,,,,Female,20,
28,9,429,0,0,9,['d'],['d'],Y,Y,['space'],Y,,,,,,,Female,20,
28,10,430,11,11,9,['d'],['d'],Y,Y,['space'],Y,,,,,,,Female,20,
28,11,431,12,12,9,['k'],['k'],Y,Y,['space'],Y,,,,,,,Female,20,
28,12,432,1,1,9,['d'],['d'],Y,N,None,Y,,,,,,,Female,20,
28,13,433,0,0,9,['d'],['d'],Y,N,['space'],N,,,,,,,Female,20,
28,14,434,12,12,9,['k'],['k'],Y,Y,['space'],Y,,,,,,,Female,20,
29,0,435,5,5,9,['d'],['d'],Y,N,None,Y,,,,,,,Female,20,
29,1,436,5,5,9,['k'],['k'],Y,N,None,Y,,,,,,,Female,20,
29,2,437,4,4,9,['d'],['d'],Y,N,None,Y,,,,,,,Female,20,
29,3,438,7,7,9,['d'],['d'],Y,N,None,Y,,,,,,,Female,20,
29,4,439,3,3,9,['k'],['k'],Y,N,None,Y,,,,,,,Female,20,
29,5,440,10,10,9,['k'],['k'],Y,Y,['space'],Y,,,,,,,Female,20,
29,6,441,0,0,9,['d'],['d'],Y,Y,['space'],Y,,,,,,,Female,20,
29,7,442,7,7,9,['k'],['k'],Y,N,None,Y,,,,,,,Female,20,
29,8,443,1,1,9,['k'],['k'],Y,N,None,Y,,,,,,,Female,20,
29,9,444,7,7,9,['k'],['k'],Y,N,None,Y,,,,,,,Female,20,
29,10,445,9,9,9,['k'],['k'],Y,N,None,Y,,,,,,,Female,20,
29,11,446,6,6,9,['k'],['k'],Y,N,None,Y,,,,,,,Female,20,
29,12,447,6,6,9,['d'],['d'],Y,N,None,Y,,,,,,,Female,20,
29,13,448,3,3,9,['d'],['d'],Y,N,None,Y,,,,,,,Female,20,
29,14,449,0,0,9,['d'],['d'],Y,Y,None,N,43,46,22,,,,Female,20,
30,0,450,1,1,10,['k'],['k'],Y,,,,,,,,,,Female,20,
30,1,451,2,2,10,['k'],['k'],Y,,,,,,,,,,Female,20,
30,2,452,9,9,10,['k'],['k'],Y,N,None,Y,,,,,,,Female,20,
30,3,453,7,7,10,['d'],['d'],Y,Y,['space'],Y,,,,,,,Female,20,
30,4,454,1,1,10,['k'],['k'],Y,Y,['space'],Y,,,,,,,Female,20,
30,5,455,2,2,10,['k'],['d'],N,N,None,Y,,,,,,,Female,20,
30,6,456,12,12,10,['d'],['d'],Y,Y,['space'],Y,,,,,,,Female,20,
30,7,457,5,5,10,['k'],['k'],Y,Y,['space'],Y,,,,,,,Female,20,
30,8,458,4,4,10,['d'],['d'],Y,Y,['space'],Y,,,,,,,Female,20,
30,9,459,4,4,10,['d'],['d'],Y,N,None,Y,,,,,,,Female,20,
30,10,460,11,11,10,['d'],['d'],Y,Y,['space'],Y,,,,,,,Female,20,
30,11,461,4,4,10,['k'],['k'],Y,Y,['space'],Y,,,,,,,Female,20,
30,12,462,4,4,10,['k'],['k'],Y,N,None,Y,,,,,,,Female,20,
30,13,463,10,10,10,['k'],['k'],Y,N,None,Y,,,,,,,Female,20,
30,14,464,5,5,10,['d'],['d'],Y,Y,['space'],Y,,,,,,,Female,20,
31,0,465,8,8,10,['d'],['d'],Y,N,None,Y,,,,,,,Female,20,
31,1,466,14,14,10,['k'],['d'],N,N,None,Y,,,,,,,Female,20,
31,2,467,1,1,10,['d'],['d'],Y,N,None,Y,,,,,,,Female,20,
31,3,468,5,5,10,['k'],['k'],Y,N,None,Y,,,,,,,Female,20,
31,4,469,7,7,10,['d'],['d'],Y,Y,['space'],Y,,,,,,,Female,20,
31,5,470,5,5,10,['k'],['k'],Y,Y,['space'],Y,,,,,,,Female,20,
31,6,471,11,11,10,['d'],['d'],Y,N,None,Y,,,,,,,Female,20,
31,7,472,6,6,10,['k'],['k'],Y,Y,['space'],Y,,,,,,,Female,20,
31,8,473,3,3,10,['d'],['d'],Y,N,None,Y,,,,,,,Female,20,
31,9,474,10,10,10,['d'],['d'],Y,N,None,Y,,,,,,,Female,20,
31,10,475,0,0,10,['k'],['k'],Y,N,None,Y,,,,,,,Female,20,
31,11,476,10,10,10,['d'],['d'],Y,N,None,Y,,,,,,,Female,20,
31,12,477,5,5,10,['d'],['d'],Y,Y,['space'],Y,,,,,,,Female,20,
31,13,478,7,7,10,['k'],['k'],Y,Y,['space'],Y,,,,,,,Female,20,
31,14,479,5,5,10,['d'],['d'],Y,Y,['space'],Y,,,,,,,Female,20,
32,0,480,6,6,10,['d'],['d'],Y,N,None,Y,,,,,,,Female,20,
32,1,481,10,10,10,['k'],['d'],N,Y,['space'],Y,,,,,,,Female,20,
32,2,482,3,3,10,['d'],['d'],Y,Y,['space'],Y,,,,,,,Female,20,
32,3,483,13,13,10,['d'],['d'],Y,Y,['space'],Y,,,,,,,Female,20,
32,4,484,10,10,10,['k'],['k'],Y,Y,['space'],Y,,,,,,,Female,20,
32,5,485,5,5,10,['k'],['d'],N,N,None,Y,,,,,,,Female,20,
32,6,486,11,11,10,['d'],['d'],Y,Y,['space'],Y,,,,,,,Female,20,
32,7,487,6,6,10,['d'],['d'],Y,Y,['space'],Y,,,,,,,Female,20,
32,8,488,9,9,10,['k'],['k'],Y,N,None,Y,,,,,,,Female,20,
32,9,489,8,8,10,['k'],['k'],Y,N,None,Y,,,,,,,Female,20,
32,10,490,0,0,10,['k'],['k'],Y,Y,['space'],Y,,,,,,,Female,20,
32,11,491,11,11,10,['d'],['d'],Y,Y,['space'],Y,,,,,,,Female,20,
32,12,492,13,13,10,['k'],['k'],Y,N,None,Y,,,,,,,Female,20,
32,13,493,1,1,10,['d'],['k'],N,Y,['space'],Y,,,,,,,Female,20,
32,14,494,7,7,10,['k'],['k'],Y,N,None,Y,,,,,,,Female,20,
33,0,495,9,9,10,['k'],['k'],Y,Y,['space'],Y,,,,,,,Female,20,
33,1,496,6,6,10,['k'],['k'],Y,N,None,Y,,,,,,,Female,20,
33,2,497,1,1,10,['k'],['k'],Y,Y,['space'],Y,,,,,,,Female,20,
33,3,498,8,8,10,['k'],['d'],N,N,None,Y,,,,,,,Female,20,
33,4,499,2,2,10,['d'],['d'],Y,N,None,Y,44,48,25,,,,Female,20,
33,5,500,8,8,11,['d'],['k'],Y,,,,,,,Y,Y,Y,Female,20,
33,6,501,8,8,11,['k'],['d'],Y,,,,,,,,Y,Y,Female,20,
33,7,502,8,8,11,['k'],['d'],Y,N,None,Y,,,,,Y,Y,Female,20,
33,8,503,6,6,11,['k'],['d'],Y,N,None,Y,,,,,Y,Y,Female,20,
33,9,504,2,2,11,['k'],['d'],Y,Y,['d'],N,,,,,Y,Y,Female,20,
33,10,505,3,3,11,['d'],['d'],N,Y,['space'],Y,,,,,Y,Y,Female,20,
33,11,506,12,12,11,['k'],['d'],Y,Y,['space'],Y,,,,,Y,Y,Female,20,
33,12,507,14,14,11,['k'],['d'],Y,N,None,Y,,,,,Y,Y,Female,20,
33,13,508,14,14,11,None,,Timed out,N,None,Y,,,,,Y,Y,Female,20,
33,14,509,2,2,11,['k'],['k'],N,Y,['space'],Y,,,,,Y,Y,Female,20,
34,0,510,5,5,11,['k'],['d'],Y,N,None,Y,,,,,Y,Y,Female,20,
34,1,511,13,13,11,['d'],['k'],Y,N,None,Y,,,,,Y,Y,Female,20,
34,2,512,13,13,11,['d'],['k'],Y,Y,None,N,,,,,Y,Y,Female,20,
34,3,513,4,4,11,['k'],['d'],Y,N,None,Y,,,,,Y,Y,Female,20,
34,4,514,3,3,11,['k'],['d'],Y,Y,['space'],Y,,,,,Y,Y,Female,20,
34,5,515,0,0,11,['k'],['d'],Y,N,None,Y,,,,,Y,Y,Female,20,
34,6,516,10,10,11,['d'],['k'],Y,Y,['space'],Y,,,,,Y,Y,Female,20,
34,7,517,11,11,11,['d'],['k'],Y,Y,['space'],Y,,,,,Y,Y,Female,20,
34,8,518,9,9,11,['d'],['k'],Y,Y,['space'],Y,,,,,Y,Y,Female,20,
34,9,519,11,11,11,None,,Timed out,N,None,Y,,,,,Y,Y,Female,20,
34,10,520,1,1,11,['d'],['d'],N,N,None,Y,,,,,Y,Y,Female,20,
34,11,521,5,5,11,['d'],['k'],Y,Y,['space'],Y,,,,,Y,Y,Female,20,
34,12,522,14,14,11,['d'],['d'],N,N,None,Y,,,,,Y,Y,Female,20,
34,13,523,10,10,11,['d'],['d'],N,Y,['space'],Y,,,,,Y,Y,Female,20,
34,14,524,12,12,11,['d'],['k'],Y,Y,['space'],Y,,,,,Y,Y,Female,20,
35,0,525,12,12,11,['d'],['k'],Y,N,None,Y,,,,,Y,Y,Female,20,
35,1,526,2,2,11,['d'],['k'],Y,N,None,Y,,,,,Y,Y,Female,20,
35,2,527,1,1,11,['k'],['d'],Y,Y,['space'],Y,,,,,Y,Y,Female,20,
35,3,528,13,13,11,['k'],['d'],Y,N,None,Y,,,,,Y,Y,Female,20,
35,4,529,13,13,11,['k'],['k'],N,Y,['space'],Y,,,,,Y,Y,Female,20,
35,5,530,0,0,11,['d'],['k'],Y,N,None,Y,,,,,Y,Y,Female,20,
35,6,531,5,5,11,['d'],['k'],Y,Y,['space'],Y,,,,,Y,Y,Female,20,
35,7,532,8,8,11,['k'],['d'],Y,Y,['space'],Y,,,,,Y,Y,Female,20,
35,8,533,8,8,11,['d'],['k'],Y,N,None,Y,,,,,Y,Y,Female,20,
35,9,534,10,10,11,['k'],['d'],Y,Y,['space'],Y,,,,,Y,Y,Female,20,
35,10,535,4,4,11,None,,Timed out,N,None,Y,,,,,Y,Y,Female,20,
35,11,536,10,10,11,['k'],['d'],Y,N,None,Y,,,,,Y,Y,Female,20,
35,12,537,7,7,11,['k'],['d'],Y,N,None,Y,,,,,Y,Y,Female,20,
35,13,538,0,0,11,['d'],['d'],N,Y,['space'],Y,,,,,Y,Y,Female,20,
35,14,539,14,14,11,['d'],['d'],N,Y,['space'],Y,,,,,Y,Y,Female,20,
36,0,540,12,12,11,['k'],['k'],N,Y,['space'],Y,,,,,Y,Y,Female,20,
36,1,541,3,3,11,['d'],['k'],Y,N,None,Y,,,,,Y,Y,Female,20,
36,2,542,6,6,11,['k'],['k'],N,N,None,Y,,,,,Y,Y,Female,20,
36,3,543,6,6,11,['k'],['d'],Y,N,None,Y,,,,,Y,Y,Female,20,
36,4,544,7,7,11,['k'],['k'],N,N,None,Y,,,,,Y,Y,Female,20,
36,5,545,4,4,11,['k'],['k'],N,Y,['space'],Y,,,,,Y,Y,Female,20,
36,6,546,12,12,11,['k'],['d'],Y,Y,['space'],Y,,,,,Y,Y,Female,20,
36,7,547,12,12,11,['d'],['k'],Y,Y,['space'],Y,,,,,Y,Y,Female,20,
36,8,548,0,0,11,['k'],['k'],N,Y,['space'],Y,,,,,Y,Y,Female,20,
36,9,549,4,4,11,['d'],['k'],Y,Y,['space'],Y,34,46,25,,Y,Y,Female,20,
36,10,550,12,12,12,['k'],['d'],Y,,,,,,,,Y,Y,Female,20,
36,11,551,1,1,12,['k'],['d'],Y,,,,,,,,Y,Y,Female,20,
36,12,552,4,4,12,['d'],['k'],Y,N,None,Y,,,,,Y,Y,Female,20,
36,13,553,6,6,12,['k'],['d'],Y,Y,['space'],Y,,,,,Y,Y,Female,20,
36,14,554,10,10,12,['k'],['d'],Y,Y,['space'],Y,,,,,Y,Y,Female,20,
37,0,555,13,13,12,['d'],['k'],Y,N,None,Y,,,,,Y,Y,Female,20,
37,1,556,14,14,12,['k'],['k'],N,N,None,Y,,,,,Y,Y,Female,20,
37,2,557,3,3,12,['k'],['d'],Y,N,None,Y,,,,,Y,Y,Female,20,
37,3,558,12,12,12,['k'],['d'],Y,Y,['space'],Y,,,,,Y,Y,Female,20,
37,4,559,6,6,12,['k'],['k'],N,Y,['space'],Y,,,,,Y,Y,Female,20,
37,5,560,11,11,12,['d'],['d'],N,Y,['space'],Y,,,,,Y,Y,Female,20,
37,6,561,1,1,12,['d'],['k'],Y,N,None,Y,,,,,Y,Y,Female,20,
37,7,562,4,4,12,['k'],['d'],Y,N,None,Y,,,,,Y,Y,Female,20,
37,8,563,8,8,12,['k'],['d'],Y,Y,['space'],Y,,,,,Y,Y,Female,20,
37,9,564,9,9,12,['k'],['d'],Y,N,None,Y,,,,,Y,Y,Female,20,
37,10,565,1,1,12,None,,Timed out,Y,['space'],Y,,,,,Y,Y,Female,20,
37,11,566,0,0,12,['k'],['k'],N,N,None,Y,,,,,Y,Y,Female,20,
37,12,567,6,6,12,['d'],['k'],Y,N,None,Y,,,,,Y,Y,Female,20,
37,13,568,10,10,12,['k'],['k'],N,Y,['space'],Y,,,,,Y,Y,Female,20,
37,14,569,13,13,12,['k'],['d'],Y,N,None,Y,,,,,Y,Y,Female,20,
38,0,570,4,4,12,['k'],['d'],Y,Y,['space'],Y,,,,,Y,Y,Female,20,
38,1,571,0,0,12,['k'],['k'],N,Y,['space'],Y,,,,,Y,Y,Female,20,
38,2,572,6,6,12,['k'],['d'],Y,N,None,Y,,,,,Y,Y,Female,20,
38,3,573,6,6,12,['k'],['d'],Y,Y,None,N,,,,,Y,Y,Female,20,
38,4,574,3,3,12,['d'],['k'],Y,N,None,Y,,,,,Y,Y,Female,20,
38,5,575,7,7,12,['k'],['d'],Y,Y,['space'],Y,,,,,Y,Y,Female,20,
38,6,576,1,1,12,['d'],['k'],Y,N,None,Y,,,,,Y,Y,Female,20,
38,7,577,1,1,12,['d'],['k'],Y,Y,['space'],Y,,,,,Y,Y,Female,20,
38,8,578,13,13,12,['k'],['d'],Y,Y,None,N,,,,,Y,Y,Female,20,
38,9,579,13,13,12,['d'],['k'],Y,N,None,Y,,,,,Y,Y,Female,20,
38,10,580,2,2,12,['d'],['k'],Y,Y,['space'],Y,,,,,Y,Y,Female,20,
38,11,581,8,8,12,['k'],['d'],Y,N,None,Y,,,,,Y,Y,Female,20,
38,12,582,13,13,12,['d'],['k'],Y,Y,['space'],Y,,,,,Y,Y,Female,20,
38,13,583,14,14,12,['d'],['k'],Y,N,None,Y,,,,,Y,Y,Female,20,
38,14,584,12,12,12,['k'],['d'],Y,Y,['space'],Y,,,,,Y,Y,Female,20,
39,0,585,2,2,12,['k'],['k'],N,N,None,Y,,,,,Y,Y,Female,20,
39,1,586,3,3,12,['k'],['k'],N,N,None,Y,,,,,Y,Y,Female,20,
39,2,587,8,8,12,['d'],['k'],Y,N,None,Y,,,,,Y,Y,Female,20,
39,3,588,14,14,12,['d'],['d'],N,N,['space'],N,,,,,Y,Y,Female,20,
39,4,589,7,7,12,['k'],['k'],N,N,None,Y,,,,,Y,Y,Female,20,
39,5,590,8,8,12,['k'],['d'],Y,N,['space'],N,,,,,Y,Y,Female,20,
39,6,591,8,8,12,['k'],['d'],Y,Y,['space'],Y,,,,,Y,Y,Female,20,
39,7,592,5,5,12,['d'],['d'],N,Y,['space'],Y,,,,,Y,Y,Female,20,
39,8,593,12,12,12,['k'],['d'],Y,N,None,Y,,,,,Y,Y,Female,20,
39,9,594,10,10,12,['d'],['d'],N,N,None,Y,,,,,Y,Y,Female,20,
39,10,595,3,3,12,['d'],['k'],Y,Y,['space'],Y,,,,,Y,Y,Female,20,
39,11,596,2,2,12,['d'],['k'],Y,N,None,Y,,,,,Y,Y,Female,20,
39,12,597,9,9,12,['k'],['d'],Y,Y,['space'],Y,,,,,Y,Y,Female,20,
39,13,598,0,0,12,['d'],['k'],Y,Y,['space'],Y,,,,,Y,Y,Female,20,
39,14,599,14,14,12,['k'],['k'],N,N,None,Y,36,44,22,,Y,Y,Female,20,
