.thisRepN,.thisTrialN,.thisN,.thisIndex,.thisTrial,Block Number,Key pressed,Category,Correct?,Int Match?,Int Response,Int Correct?,Line Accuracy,Interference Accuracy,Matching Interferences,New instruction shown?,Buttons switched?,Fast?,gender,age,
0,0,0,3,3,1,['k'],['k'],Y,,,,,,,,,,f,20,
0,1,1,5,5,1,['d'],['k'],N,,,,,,,,,,f,20,
0,2,2,4,4,1,['k'],['d'],N,Y,None,N,,,,,,,f,20,
0,3,3,3,3,1,['d'],['d'],Y,Y,['space'],Y,,,,,,,f,20,
0,4,4,4,4,1,['k'],['d'],N,Y,None,N,,,,,,,f,20,
0,5,5,4,4,1,['d'],['d'],Y,N,None,Y,,,,,,,f,20,
0,6,6,6,6,1,['d'],['k'],N,N,None,Y,,,,,,,f,20,
0,7,7,4,4,1,['d'],['d'],Y,N,['space'],N,,,,,,,f,20,
0,8,8,10,10,1,['d'],['k'],N,Y,['space'],Y,,,,,,,f,20,
0,9,9,6,6,1,['d'],['k'],N,Y,['space'],Y,,,,,,,f,20,
0,10,10,8,8,1,['k'],['d'],N,Y,['space'],Y,,,,,,,f,20,
1,0,11,2,2,1,['d'],['k'],N,N,None,Y,,,,,,,f,20,
1,1,12,2,2,1,['k'],['k'],Y,N,None,Y,,,,,,,f,20,
1,2,13,3,3,1,['k'],['d'],N,N,None,Y,,,,,,,f,20,
1,3,14,7,7,1,['k'],['d'],N,Y,None,N,,,,,,,f,20,
1,4,15,9,9,1,['d'],['k'],N,Y,['space'],Y,,,,,,,f,20,
1,5,16,1,1,1,['k'],['d'],N,N,None,Y,,,,,,,f,20,
1,6,17,9,9,1,['d'],['k'],N,Y,['space'],Y,,,,,,,f,20,
1,7,18,5,5,1,['k'],['k'],Y,N,None,Y,,,,,,,f,20,
1,8,19,1,1,1,['k'],['d'],N,N,['space'],N,,,,,,,f,20,
1,9,20,5,5,1,['k'],['k'],Y,N,None,Y,,,,,,,f,20,
1,10,21,1,1,1,['k'],['d'],N,Y,['space'],Y,,,,,,,f,20,
2,0,22,3,3,1,['k'],['d'],N,Y,None,N,,,,,,,f,20,
2,1,23,5,5,1,['d'],['k'],N,N,['space'],N,,,,,,,f,20,
2,2,24,9,9,1,['k'],['k'],Y,Y,None,N,,,,,,,f,20,
2,3,25,10,10,1,['d'],['d'],Y,N,None,Y,,,,,,,f,20,
2,4,26,0,0,1,['d'],['d'],Y,N,None,Y,,,,,,,f,20,
2,5,27,3,3,1,['k'],['d'],N,Y,None,N,,,,,,,f,20,
2,6,28,5,5,1,['d'],['d'],Y,N,None,Y,,,,,,,f,20,
2,7,29,0,0,1,['d'],['k'],N,Y,None,N,,,,,,,f,20,
2,8,30,3,3,1,['k'],['d'],N,Y,['space'],Y,,,,,,,f,20,
2,9,31,8,8,1,['d'],['d'],Y,Y,['space'],Y,,,,,,,f,20,
2,10,32,2,2,1,['k'],['k'],Y,N,None,Y,,,,,,,f,20,
3,0,33,3,3,1,['k'],['d'],N,Y,None,N,,,,,,,f,20,
3,1,34,5,5,1,['d'],['k'],N,N,['space'],N,,,,,,,f,20,
3,2,35,4,4,1,['k'],['d'],N,Y,['k'],N,,,,,,,f,20,
3,3,36,1,1,1,['d'],['d'],Y,Y,['space'],Y,,,,,,,f,20,
3,4,37,0,0,1,['k'],['k'],Y,Y,None,N,,,,,,,f,20,
3,5,38,10,10,1,['k'],['k'],Y,N,None,Y,,,,,,,f,20,
3,6,39,5,5,1,['d'],['d'],Y,N,None,Y,,,,,,,f,20,
3,7,40,2,2,1,['d'],['k'],N,Y,['k'],N,,,,,,,f,20,
3,8,41,7,7,1,['k'],['d'],N,Y,['d'],N,,,,,,,f,20,
3,9,42,10,10,1,['k'],['k'],Y,Y,['space'],Y,,,,,,,f,20,
3,10,43,8,8,1,['k'],['d'],N,Y,None,N,,,,,,,f,20,
4,0,44,0,0,1,['k'],['k'],Y,Y,['space'],Y,,,,,,,f,20,
4,1,45,10,10,1,['k'],['d'],N,N,['space'],N,,,,,,,f,20,
4,2,46,6,6,1,['k'],['d'],N,N,None,Y,,,,,,,f,20,
4,3,47,8,8,1,['d'],['d'],Y,N,None,Y,,,,,,,f,20,
4,4,48,7,7,1,['d'],['d'],Y,N,None,Y,,,,,,,f,20,
4,5,49,6,6,1,['k'],['d'],N,N,['space'],N,21,29,25,,,,f,20,
4,6,50,2,2,2,['k'],['k'],Y,,,,,,,,,,f,20,
4,7,51,10,10,2,['k'],['d'],N,,,,,,,,,,f,20,
4,8,52,6,6,2,['d'],['d'],Y,Y,['space'],Y,,,,,,,f,20,
4,9,53,10,10,2,['d'],['d'],Y,N,None,Y,,,,,,,f,20,
4,10,54,2,2,2,['k'],['k'],Y,N,['space'],N,,,,,,,f,20,
5,0,55,8,8,2,['d'],['d'],Y,N,None,Y,,,,,,,f,20,
5,1,56,10,10,2,['k'],['k'],Y,Y,['space'],Y,,,,,,,f,20,
5,2,57,8,8,2,['d'],['d'],Y,N,None,Y,,,,,,,f,20,
5,3,58,7,7,2,['d'],['d'],Y,Y,['space'],Y,,,,,,,f,20,
5,4,59,4,4,2,['k'],['d'],N,N,None,Y,,,,,,,f,20,
5,5,60,3,3,2,['k'],['k'],Y,N,None,Y,,,,,,,f,20,
5,6,61,7,7,2,['k'],['k'],Y,Y,None,N,,,,,,,f,20,
5,7,62,10,10,2,['d'],['d'],Y,N,['space'],N,,,,,,,f,20,
5,8,63,6,6,2,['k'],['d'],N,Y,['space'],Y,,,,,,,f,20,
5,9,64,10,10,2,['d'],['d'],Y,N,None,Y,,,,,,,f,20,
5,10,65,2,2,2,['d'],['d'],Y,Y,['space'],Y,,,,,,,f,20,
6,0,66,3,3,2,['k'],['k'],Y,N,None,Y,,,,,,,f,20,
6,1,67,3,3,2,['d'],['k'],N,Y,['space'],Y,,,,,,,f,20,
6,2,68,4,4,2,['k'],['k'],Y,Y,['space'],Y,,,,,,,f,20,
6,3,69,6,6,2,['k'],['k'],Y,N,None,Y,,,,,,,f,20,
6,4,70,5,5,2,['d'],['d'],Y,N,None,Y,,,,,,,f,20,
6,5,71,4,4,2,['d'],['k'],N,Y,['space'],Y,,,,,,,f,20,
6,6,72,1,1,2,['k'],['k'],Y,N,None,Y,,,,,,,f,20,
6,7,73,7,7,2,['d'],['d'],Y,N,None,Y,,,,,,,f,20,
6,8,74,9,9,2,['k'],['k'],Y,Y,['space'],Y,,,,,,,f,20,
6,9,75,10,10,2,['k'],['k'],Y,Y,None,N,,,,,,,f,20,
6,10,76,4,4,2,['d'],['k'],N,N,['space'],N,,,,,,,f,20,
7,0,77,8,8,2,['k'],['k'],Y,N,None,Y,,,,,,,f,20,
7,1,78,0,0,2,['d'],['d'],Y,N,None,Y,,,,,,,f,20,
7,2,79,2,2,2,['k'],['d'],N,Y,['space'],Y,,,,,,,f,20,
7,3,80,2,2,2,['d'],['d'],Y,Y,['space'],Y,,,,,,,f,20,
7,4,81,6,6,2,['k'],['k'],Y,N,None,Y,,,,,,,f,20,
7,5,82,2,2,2,['d'],['k'],N,N,['space'],N,,,,,,,f,20,
7,6,83,9,9,2,['k'],['k'],Y,Y,None,N,,,,,,,f,20,
7,7,84,9,9,2,['k'],['d'],N,Y,['space'],Y,,,,,,,f,20,
7,8,85,1,1,2,['d'],['k'],N,N,None,Y,,,,,,,f,20,
7,9,86,3,3,2,['k'],['d'],N,Y,['space'],Y,,,,,,,f,20,
7,10,87,7,7,2,['k'],['d'],N,N,None,Y,,,,,,,f,20,
8,0,88,3,3,2,['k'],['d'],N,Y,['space'],Y,,,,,,,f,20,
8,1,89,8,8,2,['d'],['k'],N,Y,None,N,,,,,,,f,20,
8,2,90,0,0,2,['k'],['k'],Y,N,None,Y,,,,,,,f,20,
8,3,91,4,4,2,['k'],['d'],N,N,None,Y,,,,,,,f,20,
8,4,92,1,1,2,['k'],['k'],Y,N,['space'],N,,,,,,,f,20,
8,5,93,2,2,2,['d'],['d'],Y,Y,['space'],Y,,,,,,,f,20,
8,6,94,8,8,2,['k'],['d'],N,N,None,Y,,,,,,,f,20,
8,7,95,5,5,2,['d'],['d'],Y,Y,['space'],Y,,,,,,,f,20,
8,8,96,1,1,2,['d'],['k'],N,Y,['space'],Y,,,,,,,f,20,
8,9,97,2,2,2,['d'],['k'],N,N,None,Y,,,,,,,f,20,
8,10,98,3,3,2,['k'],['k'],Y,N,['space'],N,,,,,,,f,20,
9,0,99,10,10,2,['k'],['d'],N,Y,['space'],Y,31,38,22,,,,f,20,
9,1,100,10,10,3,['d'],['d'],Y,,,,,,,,,,f,20,
9,2,101,6,6,3,['d'],['d'],Y,,,,,,,,,,f,20,
9,3,102,3,3,3,['k'],['d'],N,N,None,Y,,,,,,,f,20,
9,4,103,9,9,3,['k'],['k'],Y,N,None,Y,,,,,,,f,20,
9,5,104,2,2,3,['d'],['d'],Y,N,None,Y,,,,,,,f,20,
9,6,105,8,8,3,['d'],['d'],Y,Y,['space'],Y,,,,,,,f,20,
9,7,106,7,7,3,['k'],['d'],N,N,None,Y,,,,,,,f,20,
9,8,107,3,3,3,['d'],['d'],Y,N,None,Y,,,,,,,f,20,
9,9,108,0,0,3,['d'],['d'],Y,N,None,Y,,,,,,,f,20,
9,10,109,6,6,3,['d'],['d'],Y,Y,['space'],Y,,,,,,,f,20,
10,0,110,9,9,3,['k'],['d'],N,Y,None,N,,,,,,,f,20,
10,1,111,1,1,3,['d'],['k'],N,Y,None,N,,,,,,,f,20,
10,2,112,3,3,3,['k'],['k'],Y,Y,['space'],Y,,,,,,,f,20,
10,3,113,3,3,3,['k'],['k'],Y,Y,['space'],Y,,,,,,,f,20,
10,4,114,10,10,3,['k'],['d'],N,N,None,Y,,,,,,,f,20,
10,5,115,7,7,3,['d'],['d'],Y,N,None,Y,,,,,,,f,20,
10,6,116,8,8,3,['d'],['d'],Y,Y,['space'],Y,,,,,,,f,20,
10,7,117,1,1,3,['d'],['k'],N,N,None,Y,,,,,,,f,20,
10,8,118,1,1,3,['k'],['k'],Y,N,None,Y,,,,,,,f,20,
10,9,119,8,8,3,['d'],['d'],Y,Y,['space'],Y,,,,,,,f,20,
10,10,120,0,0,3,['k'],['k'],Y,Y,['space'],Y,,,,,,,f,20,
11,0,121,4,4,3,['k'],['k'],Y,Y,['space'],Y,,,,,,,f,20,
11,1,122,4,4,3,['d'],['d'],Y,Y,['space'],Y,,,,,,,f,20,
11,2,123,3,3,3,['k'],['d'],N,N,None,Y,,,,,,,f,20,
11,3,124,9,9,3,['k'],['d'],N,N,None,Y,,,,,,,f,20,
11,4,125,3,3,3,['d'],['d'],Y,Y,['space'],Y,,,,,,,f,20,
11,5,126,7,7,3,['d'],['k'],N,N,None,Y,,,,,,,f,20,
11,6,127,4,4,3,['d'],['k'],N,Y,['space'],Y,,,,,,,f,20,
11,7,128,5,5,3,['k'],['d'],N,Y,['space'],Y,,,,,,,f,20,
11,8,129,8,8,3,['d'],['d'],Y,N,None,Y,,,,,,,f,20,
11,9,130,6,6,3,['d'],['k'],N,Y,['space'],Y,,,,,,,f,20,
11,10,131,1,1,3,['k'],['d'],N,N,None,Y,,,,,,,f,20,
12,0,132,10,10,3,['k'],['k'],Y,Y,['space'],Y,,,,,,,f,20,
12,1,133,1,1,3,['k'],['k'],Y,Y,None,N,,,,,,,f,20,
12,2,134,9,9,3,['d'],['k'],N,N,None,Y,,,,,,,f,20,
12,3,135,1,1,3,['k'],['k'],Y,N,None,Y,,,,,,,f,20,
12,4,136,3,3,3,['k'],['k'],Y,Y,None,N,,,,,,,f,20,
12,5,137,10,10,3,['d'],['d'],Y,Y,['space'],Y,,,,,,,f,20,
12,6,138,2,2,3,['d'],['d'],Y,N,None,Y,,,,,,,f,20,
12,7,139,0,0,3,['k'],['d'],N,N,None,Y,,,,,,,f,20,
12,8,140,2,2,3,['k'],['d'],N,Y,['space'],Y,,,,,,,f,20,
12,9,141,5,5,3,['d'],['d'],Y,Y,['space'],Y,,,,,,,f,20,
12,10,142,3,3,3,['k'],['k'],Y,N,['space'],N,,,,,,,f,20,
13,0,143,4,4,3,['d'],['k'],N,N,None,Y,,,,,,,f,20,
13,1,144,4,4,3,['k'],['d'],N,Y,['space'],Y,,,,,,,f,20,
13,2,145,6,6,3,['d'],['d'],Y,N,None,Y,,,,,,,f,20,
13,3,146,3,3,3,['d'],['d'],Y,Y,['space'],Y,,,,,,,f,20,
13,4,147,10,10,3,['k'],['d'],N,Y,['space'],Y,,,,,,,f,20,
13,5,148,6,6,3,['k'],['d'],N,N,['space'],N,,,,,,,f,20,
13,6,149,6,6,3,['k'],['d'],N,N,None,Y,29,42,24,,,,f,20,
13,7,150,10,10,4,['d'],['d'],Y,,,,,,,,,,f,20,
13,8,151,5,5,4,['d'],['k'],N,,,,,,,,,,f,20,
13,9,152,6,6,4,['d'],['k'],N,N,None,Y,,,,,,,f,20,
13,10,153,4,4,4,['k'],['d'],N,Y,['space'],Y,,,,,,,f,20,
14,0,154,4,4,4,['k'],['k'],Y,N,None,Y,,,,,,,f,20,
14,1,155,2,2,4,['d'],['k'],N,Y,['k'],N,,,,,,,f,20,
14,2,156,6,6,4,['k'],['k'],Y,N,['space'],N,,,,,,,f,20,
14,3,157,2,2,4,['d'],['d'],Y,Y,['space'],Y,,,,,,,f,20,
14,4,158,6,6,4,['d'],['d'],Y,Y,None,N,,,,,,,f,20,
14,5,159,5,5,4,['d'],['d'],Y,N,None,Y,,,,,,,f,20,
14,6,160,5,5,4,['k'],['d'],N,N,['space'],N,,,,,,,f,20,
14,7,161,7,7,4,['d'],['d'],Y,Y,None,N,,,,,,,f,20,
14,8,162,5,5,4,['d'],['d'],Y,Y,None,N,,,,,,,f,20,
14,9,163,0,0,4,['d'],['k'],N,Y,['space'],Y,,,,,,,f,20,
14,10,164,8,8,4,['k'],['k'],Y,N,None,Y,,,,,,,f,20,
15,0,165,8,8,4,['k'],['k'],Y,N,['space'],N,,,,,,,f,20,
15,1,166,10,10,4,['k'],['k'],Y,N,None,Y,,,,,,,f,20,
15,2,167,4,4,4,['k'],['k'],Y,N,None,Y,,,,,,,f,20,
15,3,168,4,4,4,['d'],['d'],Y,Y,['space'],Y,,,,,,,f,20,
15,4,169,10,10,4,['k'],['k'],Y,N,None,Y,,,,,,,f,20,
15,5,170,7,7,4,['k'],['k'],Y,Y,['space'],Y,,,,,,,f,20,
15,6,171,0,0,4,['d'],['d'],Y,Y,['space'],Y,,,,,,,f,20,
15,7,172,7,7,4,['d'],['d'],Y,N,None,Y,,,,,,,f,20,
15,8,173,0,0,4,['d'],['d'],Y,N,None,Y,,,,,,,f,20,
15,9,174,10,10,4,['d'],['d'],Y,Y,None,N,,,,,,,f,20,
15,10,175,9,9,4,['k'],['d'],N,N,None,Y,,,,,,,f,20,
16,0,176,4,4,4,['k'],['k'],Y,N,None,Y,,,,,,,f,20,
16,1,177,2,2,4,['k'],['d'],N,Y,['d'],N,,,,,,,f,20,
16,2,178,2,2,4,['k'],['k'],Y,Y,None,N,,,,,,,f,20,
16,3,179,1,1,4,['k'],['k'],Y,Y,['space'],Y,,,,,,,f,20,
16,4,180,7,7,4,['d'],['d'],Y,N,None,Y,,,,,,,f,20,
16,5,181,6,6,4,['d'],['d'],Y,N,None,Y,,,,,,,f,20,
16,6,182,7,7,4,['k'],['k'],Y,Y,['space'],Y,,,,,,,f,20,
16,7,183,0,0,4,['d'],['d'],Y,N,None,Y,,,,,,,f,20,
16,8,184,7,7,4,['k'],['k'],Y,Y,['space'],Y,,,,,,,f,20,
16,9,185,5,5,4,['k'],['k'],Y,N,None,Y,,,,,,,f,20,
16,10,186,2,2,4,['d'],['k'],N,Y,['space'],Y,,,,,,,f,20,
17,0,187,6,6,4,['k'],['k'],Y,Y,['space'],Y,,,,,,,f,20,
17,1,188,6,6,4,['k'],['k'],Y,N,None,Y,,,,,,,f,20,
17,2,189,6,6,4,['d'],['d'],Y,Y,None,N,,,,,,,f,20,
17,3,190,9,9,4,['d'],['d'],Y,N,None,Y,,,,,,,f,20,
17,4,191,0,0,4,['k'],['k'],Y,Y,['space'],Y,,,,,,,f,20,
17,5,192,8,8,4,['k'],['k'],Y,Y,None,N,,,,,,,f,20,
17,6,193,5,5,4,['k'],['k'],Y,N,None,Y,,,,,,,f,20,
17,7,194,1,1,4,['k'],['k'],Y,Y,['space'],Y,,,,,,,f,20,
17,8,195,9,9,4,['k'],['k'],Y,Y,['space'],Y,,,,,,,f,20,
17,9,196,3,3,4,['d'],['d'],Y,Y,['space'],Y,,,,,,,f,20,
17,10,197,8,8,4,['k'],['k'],Y,N,None,Y,,,,,,,f,20,
18,0,198,8,8,4,['d'],['d'],Y,Y,['space'],Y,,,,,,,f,20,
18,1,199,9,9,4,['k'],['k'],Y,N,['space'],N,41,35,25,,,,f,20,
18,2,200,8,8,5,['k'],['k'],Y,,,,,,,,,,f,20,
18,3,201,7,7,5,['d'],['d'],Y,,,,,,,,,,f,20,
18,4,202,4,4,5,['d'],['d'],Y,Y,['space'],Y,,,,,,,f,20,
18,5,203,6,6,5,['k'],['d'],N,N,None,Y,,,,,,,f,20,
18,6,204,8,8,5,['d'],['d'],Y,N,None,Y,,,,,,,f,20,
18,7,205,3,3,5,['d'],['d'],Y,Y,['space'],Y,,,,,,,f,20,
18,8,206,6,6,5,['d'],['d'],Y,N,['space'],N,,,,,,,f,20,
18,9,207,4,4,5,['k'],['d'],N,Y,['space'],Y,,,,,,,f,20,
18,10,208,0,0,5,['d'],['d'],Y,N,None,Y,,,,,,,f,20,
19,0,209,10,10,5,['d'],['d'],Y,N,None,Y,,,,,,,f,20,
19,1,210,3,3,5,['k'],['d'],N,N,None,Y,,,,,,,f,20,
19,2,211,2,2,5,['k'],['k'],Y,Y,['space'],Y,,,,,,,f,20,
19,3,212,7,7,5,['k'],['d'],N,Y,None,N,,,,,,,f,20,
19,4,213,0,0,5,['k'],['k'],Y,Y,['space'],Y,,,,,,,f,20,
19,5,214,0,0,5,['k'],['k'],Y,Y,None,N,,,,,,,f,20,
19,6,215,8,8,5,['d'],['d'],Y,Y,['space'],Y,,,,,,,f,20,
19,7,216,6,6,5,['d'],['d'],Y,Y,None,N,,,,,,,f,20,
19,8,217,9,9,5,['d'],['d'],Y,Y,['space'],Y,,,,,,,f,20,
19,9,218,3,3,5,['k'],['k'],Y,Y,['space'],Y,,,,,,,f,20,
19,10,219,9,9,5,['d'],['d'],Y,N,None,Y,,,,,,,f,20,
20,0,220,0,0,5,['d'],['d'],Y,Y,['space'],Y,,,,,,,f,20,
20,1,221,4,4,5,['d'],['d'],Y,Y,['space'],Y,,,,,,,f,20,
20,2,222,10,10,5,['k'],['k'],Y,Y,['space'],Y,,,,,,,f,20,
20,3,223,4,4,5,['k'],['k'],Y,N,None,Y,,,,,,,f,20,
20,4,224,7,7,5,['d'],['d'],Y,Y,None,N,,,,,,,f,20,
20,5,225,5,5,5,['k'],['k'],Y,N,None,Y,,,,,,,f,20,
20,6,226,4,4,5,['d'],['d'],Y,Y,['space'],Y,,,,,,,f,20,
20,7,227,10,10,5,['k'],['k'],Y,N,None,Y,,,,,,,f,20,
20,8,228,2,2,5,['d'],['d'],Y,N,None,Y,,,,,,,f,20,
20,9,229,9,9,5,['d'],['d'],Y,N,None,Y,,,,,,,f,20,
20,10,230,8,8,5,['k'],['k'],Y,Y,None,N,,,,,,,f,20,
21,0,231,4,4,5,['d'],['d'],Y,N,['space'],N,,,,,,,f,20,
21,1,232,0,0,5,['k'],['k'],Y,Y,['space'],Y,,,,,,,f,20,
21,2,233,9,9,5,['k'],['k'],Y,N,['space'],N,,,,,,,f,20,
21,3,234,10,10,5,['d'],['d'],Y,N,None,Y,,,,,,,f,20,
21,4,235,10,10,5,['d'],['d'],Y,Y,['space'],Y,,,,,,,f,20,
21,5,236,10,10,5,['k'],['k'],Y,N,None,Y,,,,,,,f,20,
21,6,237,2,2,5,['k'],['k'],Y,Y,['space'],Y,,,,,,,f,20,
21,7,238,9,9,5,['d'],['d'],Y,Y,['space'],Y,,,,,,,f,20,
21,8,239,10,10,5,['k'],['k'],Y,N,['space'],N,,,,,,,f,20,
21,9,240,9,9,5,['k'],['k'],Y,Y,['space'],Y,,,,,,,f,20,
21,10,241,6,6,5,['d'],['d'],Y,N,None,Y,,,,,,,f,20,
22,0,242,9,9,5,['d'],['d'],Y,N,None,Y,,,,,,,f,20,
22,1,243,10,10,5,['d'],['d'],Y,Y,['space'],Y,,,,,,,f,20,
22,2,244,3,3,5,['d'],['k'],N,N,None,Y,,,,,,,f,20,
22,3,245,6,6,5,['k'],['k'],Y,N,['space'],N,,,,,,,f,20,
22,4,246,7,7,5,['k'],['k'],Y,N,None,Y,,,,,,,f,20,
22,5,247,9,9,5,['k'],['k'],Y,N,None,Y,,,,,,,f,20,
22,6,248,10,10,5,['k'],['k'],Y,Y,['space'],Y,,,,,,,f,20,
22,7,249,10,10,5,['k'],['k'],Y,N,None,Y,45,38,24,,,,f,20,
22,8,250,9,9,6,['d'],['d'],Y,,,,,,,,,,f,20,
22,9,251,0,0,6,['k'],['k'],Y,,,,,,,,,,f,20,
22,10,252,9,9,6,['k'],['k'],Y,Y,['space'],Y,,,,,,,f,20,
23,0,253,3,3,6,['k'],['k'],Y,Y,['space'],Y,,,,,,,f,20,
23,1,254,10,10,6,['k'],['k'],Y,Y,['space'],Y,,,,,,,f,20,
23,2,255,9,9,6,['d'],['k'],N,Y,None,N,,,,,,,f,20,
23,3,256,4,4,6,['d'],['d'],Y,Y,['space'],Y,,,,,,,f,20,
23,4,257,4,4,6,['d'],['d'],Y,N,None,Y,,,,,,,f,20,
23,5,258,9,9,6,['k'],['k'],Y,Y,None,N,,,,,,,f,20,
23,6,259,9,9,6,['k'],['k'],Y,N,['space'],N,,,,,,,f,20,
23,7,260,6,6,6,['k'],['k'],Y,N,None,Y,,,,,,,f,20,
23,8,261,4,4,6,['k'],['k'],Y,N,['space'],N,,,,,,,f,20,
23,9,262,9,9,6,['d'],['d'],Y,N,['space'],N,,,,,,,f,20,
23,10,263,3,3,6,['d'],['d'],Y,Y,['space'],Y,,,,,,,f,20,
24,0,264,1,1,6,['d'],['d'],Y,Y,['space'],Y,,,,,,,f,20,
24,1,265,10,10,6,['k'],['k'],Y,Y,None,N,,,,,,,f,20,
24,2,266,5,5,6,['k'],['k'],Y,N,None,Y,,,,,,,f,20,
24,3,267,4,4,6,['d'],['d'],Y,Y,None,N,,,,,,,f,20,
24,4,268,3,3,6,['k'],['k'],Y,N,None,Y,,,,,,,f,20,
24,5,269,2,2,6,['d'],['d'],Y,Y,['space'],Y,,,,,,,f,20,
24,6,270,0,0,6,['d'],['d'],Y,Y,None,N,,,,,,,f,20,
24,7,271,7,7,6,['k'],['k'],Y,Y,['space'],Y,,,,,,,f,20,
24,8,272,8,8,6,['d'],['d'],Y,N,None,Y,,,,,,,f,20,
24,9,273,6,6,6,['k'],['k'],Y,N,['space'],N,,,,,,,f,20,
24,10,274,3,3,6,['k'],['k'],Y,Y,['space'],Y,,,,,,,f,20,
25,0,275,6,6,6,['d'],['d'],Y,N,['space'],N,,,,,,,f,20,
25,1,276,3,3,6,['k'],['k'],Y,Y,['space'],Y,,,,,,,f,20,
25,2,277,6,6,6,['d'],['d'],Y,N,None,Y,,,,,,,f,20,
25,3,278,0,0,6,['d'],['d'],Y,Y,['space'],Y,,,,,,,f,20,
25,4,279,0,0,6,['k'],['k'],Y,Y,['space'],Y,,,,,,,f,20,
25,5,280,4,4,6,['k'],['k'],Y,Y,['d'],N,,,,,,,f,20,
25,6,281,5,5,6,['d'],['d'],Y,N,None,Y,,,,,,,f,20,
25,7,282,4,4,6,['k'],['k'],Y,N,None,Y,,,,,,,f,20,
25,8,283,3,3,6,['d'],['d'],Y,N,None,Y,,,,,,,f,20,
25,9,284,3,3,6,['k'],['k'],Y,Y,['space'],Y,,,,,,,f,20,
25,10,285,10,10,6,['k'],['k'],Y,N,None,Y,,,,,,,f,20,
26,0,286,6,6,6,['d'],['d'],Y,Y,['space'],Y,,,,,,,f,20,
26,1,287,5,5,6,['d'],['d'],Y,N,None,Y,,,,,,,f,20,
26,2,288,3,3,6,['d'],['d'],Y,N,None,Y,,,,,,,f,20,
26,3,289,9,9,6,['d'],['d'],Y,N,None,Y,,,,,,,f,20,
26,4,290,6,6,6,['k'],['k'],Y,Y,['space'],Y,,,,,,,f,20,
26,5,291,7,7,6,['d'],['d'],Y,N,None,Y,,,,,,,f,20,
26,6,292,8,8,6,['k'],['k'],Y,N,None,Y,,,,,,,f,20,
26,7,293,5,5,6,['k'],['k'],Y,N,None,Y,,,,,,,f,20,
26,8,294,7,7,6,['d'],['d'],Y,Y,['space'],Y,,,,,,,f,20,
26,9,295,7,7,6,['d'],['k'],N,Y,['space'],Y,,,,,,,f,20,
26,10,296,10,10,6,['k'],['k'],Y,N,None,Y,,,,,,,f,20,
27,0,297,4,4,6,['k'],['k'],Y,Y,['space'],Y,,,,,,,f,20,
27,1,298,6,6,6,['k'],['k'],Y,Y,['space'],Y,,,,,,,f,20,
27,2,299,6,6,6,['d'],['d'],Y,N,None,Y,48,37,25,,,,f,20,
27,3,300,2,2,7,['d'],['d'],Y,,,,,,,,,,f,20,
27,4,301,2,2,7,['d'],['d'],Y,,,,,,,,,,f,20,
27,5,302,6,6,7,['k'],['d'],N,N,None,Y,,,,,,,f,20,
27,6,303,10,10,7,['d'],['d'],Y,N,None,Y,,,,,,,f,20,
27,7,304,7,7,7,['k'],['k'],Y,N,None,Y,,,,,,,f,20,
27,8,305,10,10,7,['k'],['k'],Y,Y,None,N,,,,,,,f,20,
27,9,306,5,5,7,['d'],['d'],Y,N,None,Y,,,,,,,f,20,
27,10,307,4,4,7,['k'],['k'],Y,N,None,Y,,,,,,,f,20,
28,0,308,8,8,7,['k'],['k'],Y,N,None,Y,,,,,,,f,20,
28,1,309,1,1,7,['k'],['k'],Y,Y,['space'],Y,,,,,,,f,20,
28,2,310,1,1,7,['k'],['k'],Y,N,None,Y,,,,,,,f,20,
28,3,311,6,6,7,['d'],['d'],Y,N,['space'],N,,,,,,,f,20,
28,4,312,1,1,7,['k'],['d'],N,N,['space'],N,,,,,,,f,20,
28,5,313,1,1,7,['d'],['d'],Y,N,['space'],N,,,,,,,f,20,
28,6,314,5,5,7,['d'],['d'],Y,Y,['space'],Y,,,,,,,f,20,
28,7,315,2,2,7,['k'],['k'],Y,N,None,Y,,,,,,,f,20,
28,8,316,4,4,7,['k'],['d'],N,Y,['space'],Y,,,,,,,f,20,
28,9,317,2,2,7,['d'],['d'],Y,N,None,Y,,,,,,,f,20,
28,10,318,1,1,7,['d'],['d'],Y,Y,['space'],Y,,,,,,,f,20,
29,0,319,1,1,7,['d'],['d'],Y,N,None,Y,,,,,,,f,20,
29,1,320,7,7,7,['d'],['d'],Y,Y,['space'],Y,,,,,,,f,20,
29,2,321,10,10,7,['d'],['d'],Y,Y,['space'],Y,,,,,,,f,20,
29,3,322,2,2,7,['k'],['k'],Y,N,None,Y,,,,,,,f,20,
29,4,323,5,5,7,['k'],['k'],Y,N,None,Y,,,,,,,f,20,
29,5,324,3,3,7,['d'],['d'],Y,N,['space'],N,,,,,,,f,20,
29,6,325,10,10,7,['d'],['d'],Y,N,None,Y,,,,,,,f,20,
29,7,326,5,5,7,['d'],['d'],Y,Y,['space'],Y,,,,,,,f,20,
29,8,327,1,1,7,['d'],['d'],Y,N,None,Y,,,,,,,f,20,
29,9,328,8,8,7,['k'],['k'],Y,Y,['space'],Y,,,,,,,f,20,
29,10,329,5,5,7,['d'],['d'],Y,Y,['space'],Y,,,,,,,f,20,
30,0,330,2,2,7,['k'],['d'],N,N,None,Y,,,,,,,f,20,
30,1,331,8,8,7,['k'],['d'],N,Y,['space'],Y,,,,,,,f,20,
30,2,332,7,7,7,['d'],['d'],Y,Y,['space'],Y,,,,,,,f,20,
30,3,333,1,1,7,['k'],['k'],Y,Y,['space'],Y,,,,,,,f,20,
30,4,334,1,1,7,['k'],['k'],Y,N,['space'],N,,,,,,,f,20,
30,5,335,0,0,7,['k'],['k'],Y,Y,['space'],Y,,,,,,,f,20,
30,6,336,5,5,7,['d'],['d'],Y,N,None,Y,,,,,,,f,20,
30,7,337,2,2,7,['k'],['k'],Y,Y,['space'],Y,,,,,,,f,20,
30,8,338,0,0,7,['d'],['d'],Y,N,None,Y,,,,,,,f,20,
30,9,339,4,4,7,['d'],['d'],Y,N,None,Y,,,,,,,f,20,
30,10,340,8,8,7,['k'],['k'],Y,N,None,Y,,,,,,,f,20,
31,0,341,6,6,7,['k'],['d'],N,N,None,Y,,,,,,,f,20,
31,1,342,10,10,7,['d'],['d'],Y,Y,['space'],Y,,,,,,,f,20,
31,2,343,2,2,7,['k'],['d'],N,Y,['space'],Y,,,,,,,f,20,
31,3,344,6,6,7,['d'],['d'],Y,N,None,Y,,,,,,,f,20,
31,4,345,0,0,7,['d'],['d'],Y,Y,['space'],Y,,,,,,,f,20,
31,5,346,0,0,7,['d'],['d'],Y,N,None,Y,,,,,,,f,20,
31,6,347,2,2,7,['d'],['d'],Y,Y,['space'],Y,,,,,,,f,20,
31,7,348,0,0,7,['d'],['d'],Y,N,None,Y,,,,,,,f,20,
31,8,349,7,7,7,['k'],['k'],Y,N,None,Y,43,42,19,,,,f,20,
31,9,350,5,5,8,['d'],['d'],Y,,,,,,,,,,f,20,
31,10,351,7,7,8,['d'],['d'],Y,,,,,,,,,,f,20,
32,0,352,0,0,8,['k'],['k'],Y,N,None,Y,,,,,,,f,20,
32,1,353,0,0,8,['k'],['k'],Y,Y,['space'],Y,,,,,,,f,20,
32,2,354,6,6,8,['k'],['k'],Y,Y,['space'],Y,,,,,,,f,20,
32,3,355,2,2,8,['k'],['k'],Y,N,None,Y,,,,,,,f,20,
32,4,356,7,7,8,['k'],['k'],Y,N,['space'],N,,,,,,,f,20,
32,5,357,7,7,8,['d'],['d'],Y,N,['space'],N,,,,,,,f,20,
32,6,358,7,7,8,['k'],['k'],Y,Y,['space'],Y,,,,,,,f,20,
32,7,359,8,8,8,['d'],['d'],Y,Y,['space'],Y,,,,,,,f,20,
32,8,360,2,2,8,['k'],['k'],Y,N,None,Y,,,,,,,f,20,
32,9,361,2,2,8,['k'],['k'],Y,N,None,Y,,,,,,,f,20,
32,10,362,4,4,8,['d'],['d'],Y,N,None,Y,,,,,,,f,20,
33,0,363,4,4,8,['d'],['d'],Y,N,None,Y,,,,,,,f,20,
33,1,364,8,8,8,['k'],['k'],Y,N,None,Y,,,,,,,f,20,
33,2,365,1,1,8,['k'],['k'],Y,N,None,Y,,,,,,,f,20,
33,3,366,6,6,8,['k'],['k'],Y,N,None,Y,,,,,,,f,20,
33,4,367,1,1,8,['k'],['k'],Y,N,None,Y,,,,,,,f,20,
33,5,368,9,9,8,['k'],['k'],Y,Y,None,N,,,,,,,f,20,
33,6,369,7,7,8,['k'],['k'],Y,Y,None,N,,,,,,,f,20,
33,7,370,1,1,8,['k'],['k'],Y,Y,['space'],Y,,,,,,,f,20,
33,8,371,2,2,8,['d'],['d'],Y,N,None,Y,,,,,,,f,20,
33,9,372,2,2,8,['k'],['k'],Y,N,None,Y,,,,,,,f,20,
33,10,373,10,10,8,['k'],['k'],Y,Y,None,N,,,,,,,f,20,
34,0,374,8,8,8,['k'],['k'],Y,N,None,Y,,,,,,,f,20,
34,1,375,3,3,8,['d'],['d'],Y,N,None,Y,,,,,,,f,20,
34,2,376,9,9,8,['d'],['d'],Y,Y,['space'],Y,,,,,,,f,20,
34,3,377,0,0,8,['k'],['k'],Y,N,None,Y,,,,,,,f,20,
34,4,378,4,4,8,['d'],['d'],Y,Y,['space'],Y,,,,,,,f,20,
34,5,379,7,7,8,['k'],['k'],Y,N,None,Y,,,,,,,f,20,
34,6,380,1,1,8,['d'],['d'],Y,Y,['space'],Y,,,,,,,f,20,
34,7,381,0,0,8,['d'],['d'],Y,Y,None,N,,,,,,,f,20,
34,8,382,9,9,8,['k'],['k'],Y,Y,['space'],Y,,,,,,,f,20,
34,9,383,5,5,8,['k'],['k'],Y,Y,None,N,,,,,,,f,20,
34,10,384,7,7,8,['k'],['d'],N,Y,['space'],Y,,,,,,,f,20,
35,0,385,1,1,8,['d'],['d'],Y,N,None,Y,,,,,,,f,20,
35,1,386,5,5,8,['k'],['d'],N,N,None,Y,,,,,,,f,20,
35,2,387,2,2,8,['k'],['k'],Y,Y,None,N,,,,,,,f,20,
35,3,388,6,6,8,['d'],['d'],Y,N,None,Y,,,,,,,f,20,
35,4,389,9,9,8,['d'],['d'],Y,Y,['space'],Y,,,,,,,f,20,
35,5,390,7,7,8,['d'],['d'],Y,N,None,Y,,,,,,,f,20,
35,6,391,8,8,8,['k'],['k'],Y,Y,['space'],Y,,,,,,,f,20,
35,7,392,0,0,8,['d'],['d'],Y,Y,['space'],Y,,,,,,,f,20,
35,8,393,8,8,8,['d'],['d'],Y,Y,['space'],Y,,,,,,,f,20,
35,9,394,9,9,8,['k'],['k'],Y,Y,['space'],Y,,,,,,,f,20,
35,10,395,9,9,8,['d'],['d'],Y,N,None,Y,,,,,,,f,20,
36,0,396,9,9,8,['k'],['k'],Y,N,None,Y,,,,,,,f,20,
36,1,397,5,5,8,['k'],['k'],Y,N,None,Y,,,,,,,f,20,
36,2,398,6,6,8,['k'],['k'],Y,N,None,Y,,,,,,,f,20,
36,3,399,1,1,8,['d'],['d'],Y,N,None,Y,48,40,21,,,,f,20,
36,4,400,5,5,9,['d'],['d'],Y,,,,,,,,,,f,20,
36,5,401,9,9,9,['d'],['d'],Y,,,,,,,,,,f,20,
36,6,402,4,4,9,['k'],['k'],Y,Y,['space'],Y,,,,,,,f,20,
36,7,403,1,1,9,['d'],['d'],Y,N,None,Y,,,,,,,f,20,
36,8,404,5,5,9,['d'],['d'],Y,Y,['space'],Y,,,,,,,f,20,
36,9,405,6,6,9,['k'],['k'],Y,Y,['space'],Y,,,,,,,f,20,
36,10,406,9,9,9,['k'],['k'],Y,Y,['space'],Y,,,,,,,f,20,
37,0,407,7,7,9,['k'],['k'],Y,N,None,Y,,,,,,,f,20,
37,1,408,1,1,9,['k'],['k'],Y,N,['space'],N,,,,,,,f,20,
37,2,409,8,8,9,['k'],['k'],Y,Y,None,N,,,,,,,f,20,
37,3,410,2,2,9,['d'],['d'],Y,Y,['space'],Y,,,,,,,f,20,
37,4,411,8,8,9,['d'],['d'],Y,Y,['space'],Y,,,,,,,f,20,
37,5,412,6,6,9,['d'],['d'],Y,Y,['space'],Y,,,,,,,f,20,
37,6,413,8,8,9,['d'],['d'],Y,Y,['space'],Y,,,,,,,f,20,
37,7,414,2,2,9,['k'],['k'],Y,Y,['space'],Y,,,,,,,f,20,
37,8,415,10,10,9,['k'],['k'],Y,N,None,Y,,,,,,,f,20,
37,9,416,6,6,9,['d'],['d'],Y,Y,['space'],Y,,,,,,,f,20,
37,10,417,5,5,9,['d'],['d'],Y,N,None,Y,,,,,,,f,20,
38,0,418,7,7,9,['k'],['k'],Y,Y,['space'],Y,,,,,,,f,20,
38,1,419,2,2,9,['k'],['k'],Y,Y,None,N,,,,,,,f,20,
38,2,420,7,7,9,['k'],['k'],Y,N,['space'],N,,,,,,,f,20,
38,3,421,2,2,9,['d'],['d'],Y,N,None,Y,,,,,,,f,20,
38,4,422,3,3,9,['k'],['k'],Y,N,None,Y,,,,,,,f,20,
38,5,423,3,3,9,['d'],['d'],Y,N,None,Y,,,,,,,f,20,
38,6,424,4,4,9,['d'],['d'],Y,N,None,Y,,,,,,,f,20,
38,7,425,3,3,9,['d'],['d'],Y,Y,['d'],N,,,,,,,f,20,
38,8,426,10,10,9,['k'],['k'],Y,Y,['space'],Y,,,,,,,f,20,
38,9,427,5,5,9,['d'],['d'],Y,Y,['space'],Y,,,,,,,f,20,
38,10,428,0,0,9,['k'],['k'],Y,N,None,Y,,,,,,,f,20,
39,0,429,6,6,9,['d'],['d'],Y,Y,['space'],Y,,,,,,,f,20,
39,1,430,1,1,9,['k'],['k'],Y,N,None,Y,,,,,,,f,20,
39,2,431,9,9,9,['k'],['k'],Y,N,None,Y,,,,,,,f,20,
39,3,432,8,8,9,['k'],['k'],Y,Y,None,N,,,,,,,f,20,
39,4,433,8,8,9,['d'],['d'],Y,N,None,Y,,,,,,,f,20,
39,5,434,7,7,9,['k'],['k'],Y,Y,['space'],Y,,,,,,,f,20,
39,6,435,5,5,9,['k'],['k'],Y,Y,['space'],Y,,,,,,,f,20,
39,7,436,1,1,9,['d'],['d'],Y,Y,['space'],Y,,,,,,,f,20,
39,8,437,5,5,9,['k'],['k'],Y,Y,['space'],Y,,,,,,,f,20,
39,9,438,2,2,9,['d'],['k'],N,N,None,Y,,,,,,,f,20,
39,10,439,8,8,9,['d'],['d'],Y,N,None,Y,,,,,,,f,20,
40,0,440,4,4,9,['k'],['k'],Y,N,None,Y,,,,,,,f,20,
40,1,441,5,5,9,['d'],['d'],Y,N,None,Y,,,,,,,f,20,
40,2,442,2,2,9,['d'],['k'],N,Y,None,N,,,,,,,f,20,
40,3,443,3,3,9,['k'],['k'],Y,N,None,Y,,,,,,,f,20,
40,4,444,8,8,9,['k'],['k'],Y,N,None,Y,,,,,,,f,20,
40,5,445,3,3,9,['k'],['k'],Y,N,['space'],N,,,,,,,f,20,
40,6,446,8,8,9,['k'],['k'],Y,N,['space'],N,,,,,,,f,20,
40,7,447,3,3,9,['k'],['k'],Y,N,None,Y,,,,,,,f,20,
40,8,448,10,10,9,['d'],['d'],Y,N,None,Y,,,,,,,f,20,
40,9,449,9,9,9,['k'],['k'],Y,Y,['space'],Y,48,39,24,,,,f,20,
40,10,450,8,8,10,['k'],['k'],Y,,,,,,,,,,f,20,
41,0,451,5,5,10,['d'],['k'],N,,,,,,,,,,f,20,
41,1,452,4,4,10,['k'],['d'],N,Y,['space'],Y,,,,,,,f,20,
41,2,453,0,0,10,['d'],['d'],Y,N,None,Y,,,,,,,f,20,
41,3,454,1,1,10,['k'],['k'],Y,Y,['space'],Y,,,,,,,f,20,
41,4,455,3,3,10,['k'],['k'],Y,N,None,Y,,,,,,,f,20,
41,5,456,2,2,10,['d'],['d'],Y,N,['space'],N,,,,,,,f,20,
41,6,457,0,0,10,['k'],['k'],Y,Y,['space'],Y,,,,,,,f,20,
41,7,458,7,7,10,['d'],['d'],Y,Y,['space'],Y,,,,,,,f,20,
41,8,459,0,0,10,['k'],['k'],Y,N,None,Y,,,,,,,f,20,
41,9,460,1,1,10,['d'],['d'],Y,N,None,Y,,,,,,,f,20,
41,10,461,6,6,10,['d'],['d'],Y,N,None,Y,,,,,,,f,20,
42,0,462,1,1,10,['d'],['d'],Y,N,None,Y,,,,,,,f,20,
42,1,463,4,4,10,['k'],['k'],Y,Y,['space'],Y,,,,,,,f,20,
42,2,464,9,9,10,['k'],['k'],Y,N,None,Y,,,,,,,f,20,
42,3,465,3,3,10,['k'],['k'],Y,N,None,Y,,,,,,,f,20,
42,4,466,6,6,10,['d'],['d'],Y,Y,['space'],Y,,,,,,,f,20,
42,5,467,3,3,10,['d'],['d'],Y,N,None,Y,,,,,,,f,20,
42,6,468,7,7,10,['k'],['k'],Y,Y,['space'],Y,,,,,,,f,20,
42,7,469,1,1,10,['d'],['d'],Y,N,None,Y,,,,,,,f,20,
42,8,470,1,1,10,['k'],['k'],Y,N,['space'],N,,,,,,,f,20,
42,9,471,9,9,10,['d'],['d'],Y,Y,['space'],Y,,,,,,,f,20,
42,10,472,3,3,10,['k'],['k'],Y,Y,['space'],Y,,,,,,,f,20,
43,0,473,1,1,10,['d'],['d'],Y,N,None,Y,,,,,,,f,20,
43,1,474,5,5,10,['d'],['d'],Y,N,None,Y,,,,,,,f,20,
43,2,475,9,9,10,['k'],['k'],Y,N,None,Y,,,,,,,f,20,
43,3,476,4,4,10,['k'],['k'],Y,Y,['space'],Y,,,,,,,f,20,
43,4,477,9,9,10,['k'],['k'],Y,N,None,Y,,,,,,,f,20,
43,5,478,5,5,10,['d'],['d'],Y,N,['space'],N,,,,,,,f,20,
43,6,479,0,0,10,['k'],['k'],Y,Y,None,N,,,,,,,f,20,
43,7,480,7,7,10,['d'],['d'],Y,Y,['m'],N,,,,,,,f,20,
43,8,481,1,1,10,['d'],['d'],Y,Y,None,N,,,,,,,f,20,
43,9,482,6,6,10,['d'],['d'],Y,Y,['space'],Y,,,,,,,f,20,
43,10,483,0,0,10,['d'],['d'],Y,Y,['space'],Y,,,,,,,f,20,
44,0,484,6,6,10,['k'],['d'],N,Y,['space'],Y,,,,,,,f,20,
44,1,485,0,0,10,['k'],['k'],Y,N,None,Y,,,,,,,f,20,
44,2,486,1,1,10,['d'],['d'],Y,N,None,Y,,,,,,,f,20,
44,3,487,8,8,10,['d'],['d'],Y,N,None,Y,,,,,,,f,20,
44,4,488,0,0,10,['d'],['d'],Y,N,None,Y,,,,,,,f,20,
44,5,489,8,8,10,['k'],['k'],Y,N,None,Y,,,,,,,f,20,
44,6,490,5,5,10,['k'],['k'],Y,Y,['space'],Y,,,,,,,f,20,
44,7,491,6,6,10,['d'],['d'],Y,N,None,Y,,,,,,,f,20,
44,8,492,2,2,10,['k'],['k'],Y,Y,None,N,,,,,,,f,20,
44,9,493,8,8,10,['d'],['d'],Y,N,None,Y,,,,,,,f,20,
44,10,494,7,7,10,['k'],['k'],Y,N,None,Y,,,,,,,f,20,
45,0,495,9,9,10,['k'],['k'],Y,N,None,Y,,,,,,,f,20,
45,1,496,8,8,10,['d'],['d'],Y,N,None,Y,,,,,,,f,20,
45,2,497,6,6,10,['k'],['k'],Y,N,None,Y,,,,,,,f,20,
45,3,498,9,9,10,['k'],['k'],Y,N,['space'],N,,,,,,,f,20,
45,4,499,7,7,10,['d'],['d'],Y,N,['space'],N,47,39,18,,,,f,20,
45,5,500,2,2,11,['d'],['k'],Y,,,,,,,Y,Y,Y,f,20,
45,6,501,1,1,11,['d'],['k'],Y,,,,,,,,Y,Y,f,20,
45,7,502,10,10,11,['d'],['k'],Y,Y,None,N,,,,,Y,Y,f,20,
45,8,503,0,0,11,['d'],['k'],Y,N,None,Y,,,,,Y,Y,f,20,
45,9,504,1,1,11,['d'],['k'],Y,Y,['space'],Y,,,,,Y,Y,f,20,
45,10,505,0,0,11,['k'],['d'],Y,Y,['space'],Y,,,,,Y,Y,f,20,
46,0,506,7,7,11,['d'],['k'],Y,Y,['space'],Y,,,,,Y,Y,f,20,
46,1,507,0,0,11,['k'],['d'],Y,Y,['space'],Y,,,,,Y,Y,f,20,
46,2,508,4,4,11,['k'],['d'],Y,N,None,Y,,,,,Y,Y,f,20,
46,3,509,10,10,11,['k'],['k'],N,N,None,Y,,,,,Y,Y,f,20,
46,4,510,5,5,11,['d'],['k'],Y,N,None,Y,,,,,Y,Y,f,20,
46,5,511,0,0,11,['d'],['k'],Y,N,['space'],N,,,,,Y,Y,f,20,
46,6,512,4,4,11,['k'],['d'],Y,N,None,Y,,,,,Y,Y,f,20,
46,7,513,8,8,11,['k'],['d'],Y,Y,['space'],Y,,,,,Y,Y,f,20,
46,8,514,0,0,11,['d'],['k'],Y,Y,['space'],Y,,,,,Y,Y,f,20,
46,9,515,0,0,11,['d'],['k'],Y,N,None,Y,,,,,Y,Y,f,20,
46,10,516,9,9,11,['d'],['k'],Y,Y,None,N,,,,,Y,Y,f,20,
47,0,517,9,9,11,['d'],['k'],Y,Y,None,N,,,,,Y,Y,f,20,
47,1,518,4,4,11,['d'],['k'],Y,Y,['space'],Y,,,,,Y,Y,f,20,
47,2,519,10,10,11,['k'],['d'],Y,Y,['space'],Y,,,,,Y,Y,f,20,
47,3,520,5,5,11,['d'],['k'],Y,N,None,Y,,,,,Y,Y,f,20,
47,4,521,5,5,11,['d'],['k'],Y,N,None,Y,,,,,Y,Y,f,20,
47,5,522,3,3,11,['k'],['d'],Y,Y,['space'],Y,,,,,Y,Y,f,20,
47,6,523,5,5,11,['k'],['d'],Y,N,None,Y,,,,,Y,Y,f,20,
47,7,524,1,1,11,['d'],['k'],Y,N,None,Y,,,,,Y,Y,f,20,
47,8,525,3,3,11,['d'],['k'],Y,N,None,Y,,,,,Y,Y,f,20,
47,9,526,9,9,11,['d'],['k'],Y,Y,['space'],Y,,,,,Y,Y,f,20,
47,10,527,4,4,11,['d'],['k'],Y,N,None,Y,,,,,Y,Y,f,20,
48,0,528,5,5,11,['k'],['d'],Y,Y,['space'],Y,,,,,Y,Y,f,20,
48,1,529,8,8,11,['k'],['d'],Y,Y,None,N,,,,,Y,Y,f,20,
48,2,530,9,9,11,['d'],['k'],Y,Y,['space'],Y,,,,,Y,Y,f,20,
48,3,531,4,4,11,['d'],['k'],Y,Y,None,N,,,,,Y,Y,f,20,
48,4,532,5,5,11,['k'],['d'],Y,N,None,Y,,,,,Y,Y,f,20,
48,5,533,7,7,11,['d'],['k'],Y,Y,['space'],Y,,,,,Y,Y,f,20,
48,6,534,8,8,11,['d'],['k'],Y,Y,['space'],Y,,,,,Y,Y,f,20,
48,7,535,4,4,11,['k'],['d'],Y,Y,['space'],Y,,,,,Y,Y,f,20,
48,8,536,5,5,11,['k'],['d'],Y,Y,['space'],Y,,,,,Y,Y,f,20,
48,9,537,0,0,11,['d'],['k'],Y,N,None,Y,,,,,Y,Y,f,20,
48,10,538,9,9,11,['d'],['k'],Y,N,None,Y,,,,,Y,Y,f,20,
49,0,539,7,7,11,['k'],['d'],Y,N,None,Y,,,,,Y,Y,f,20,
49,1,540,6,6,11,['k'],['d'],Y,N,None,Y,,,,,Y,Y,f,20,
49,2,541,7,7,11,['d'],['k'],Y,Y,['space'],Y,,,,,Y,Y,f,20,
49,3,542,1,1,11,['d'],['k'],Y,Y,['space'],Y,,,,,Y,Y,f,20,
49,4,543,3,3,11,['d'],['k'],Y,Y,['space'],Y,,,,,Y,Y,f,20,
49,5,544,9,9,11,['k'],['d'],Y,N,None,Y,,,,,Y,Y,f,20,
49,6,545,10,10,11,['k'],['d'],Y,N,None,Y,,,,,Y,Y,f,20,
49,7,546,10,10,11,['d'],['k'],Y,N,None,Y,,,,,Y,Y,f,20,
49,8,547,8,8,11,['d'],['k'],Y,N,None,Y,,,,,Y,Y,f,20,
49,9,548,3,3,11,['d'],['k'],Y,N,None,Y,,,,,Y,Y,f,20,
49,10,549,7,7,11,['d'],['k'],Y,N,None,Y,49,42,24,,Y,Y,f,20,
50,0,550,9,9,12,['d'],['k'],Y,,,,,,,,Y,Y,f,20,
50,1,551,5,5,12,['k'],['d'],Y,,,,,,,,Y,Y,f,20,
50,2,552,0,0,12,['d'],['k'],Y,Y,['space'],Y,,,,,Y,Y,f,20,
50,3,553,3,3,12,['d'],['k'],Y,Y,['space'],Y,,,,,Y,Y,f,20,
50,4,554,8,8,12,['d'],['k'],Y,Y,['space'],Y,,,,,Y,Y,f,20,
50,5,555,2,2,12,['d'],['k'],Y,N,None,Y,,,,,Y,Y,f,20,
50,6,556,1,1,12,['d'],['k'],Y,Y,['space'],Y,,,,,Y,Y,f,20,
50,7,557,8,8,12,['d'],['k'],Y,Y,['space'],Y,,,,,Y,Y,f,20,
50,8,558,0,0,12,['k'],['d'],Y,Y,['space'],Y,,,,,Y,Y,f,20,
50,9,559,1,1,12,['k'],['d'],Y,Y,None,N,,,,,Y,Y,f,20,
50,10,560,10,10,12,['k'],['d'],Y,Y,['space'],Y,,,,,Y,Y,f,20,
51,0,561,10,10,12,['d'],['d'],N,Y,['space'],Y,,,,,Y,Y,f,20,
51,1,562,10,10,12,['k'],['d'],Y,Y,['space'],Y,,,,,Y,Y,f,20,
51,2,563,4,4,12,['d'],['k'],Y,Y,['space'],Y,,,,,Y,Y,f,20,
51,3,564,7,7,12,['d'],['k'],Y,N,None,Y,,,,,Y,Y,f,20,
51,4,565,7,7,12,['d'],['k'],Y,Y,['space'],Y,,,,,Y,Y,f,20,
51,5,566,4,4,12,['k'],['d'],Y,N,None,Y,,,,,Y,Y,f,20,
51,6,567,1,1,12,['k'],['d'],Y,N,None,Y,,,,,Y,Y,f,20,
51,7,568,3,3,12,['k'],['d'],Y,Y,['space'],Y,,,,,Y,Y,f,20,
51,8,569,2,2,12,['d'],['k'],Y,Y,['space'],Y,,,,,Y,Y,f,20,
51,9,570,1,1,12,['d'],['k'],Y,N,None,Y,,,,,Y,Y,f,20,
51,10,571,8,8,12,['k'],['d'],Y,N,None,Y,,,,,Y,Y,f,20,
52,0,572,2,2,12,['d'],['k'],Y,Y,['space'],Y,,,,,Y,Y,f,20,
52,1,573,2,2,12,['d'],['k'],Y,Y,['space'],Y,,,,,Y,Y,f,20,
52,2,574,9,9,12,['d'],['k'],Y,Y,['space'],Y,,,,,Y,Y,f,20,
52,3,575,7,7,12,['d'],['k'],Y,Y,['space'],Y,,,,,Y,Y,f,20,
52,4,576,5,5,12,['k'],['d'],Y,Y,['space'],Y,,,,,Y,Y,f,20,
52,5,577,5,5,12,['d'],['d'],N,Y,['space'],Y,,,,,Y,Y,f,20,
52,6,578,1,1,12,['d'],['k'],Y,Y,['space'],Y,,,,,Y,Y,f,20,
52,7,579,2,2,12,['d'],['k'],Y,Y,['space'],Y,,,,,Y,Y,f,20,
52,8,580,1,1,12,['d'],['k'],Y,Y,['space'],Y,,,,,Y,Y,f,20,
52,9,581,10,10,12,['k'],['d'],Y,Y,['space'],Y,,,,,Y,Y,f,20,
52,10,582,6,6,12,['d'],['k'],Y,Y,['space'],Y,,,,,Y,Y,f,20,
53,0,583,0,0,12,None,,Timed out,N,None,Y,,,,,Y,Y,f,20,
53,1,584,3,3,12,['k'],['d'],Y,N,None,Y,,,,,Y,Y,f,20,
53,2,585,0,0,12,['d'],['k'],Y,N,None,Y,,,,,Y,Y,f,20,
53,3,586,8,8,12,['d'],['k'],Y,N,None,Y,,,,,Y,Y,f,20,
53,4,587,7,7,12,['d'],['k'],Y,N,None,Y,,,,,Y,Y,f,20,
53,5,588,7,7,12,['d'],['k'],Y,N,None,Y,,,,,Y,Y,f,20,
53,6,589,2,2,12,['k'],['d'],Y,N,None,Y,,,,,Y,Y,f,20,
53,7,590,6,6,12,['k'],['d'],Y,N,None,Y,,,,,Y,Y,f,20,
53,8,591,9,9,12,['d'],['k'],Y,N,None,Y,,,,,Y,Y,f,20,
53,9,592,4,4,12,['k'],['d'],Y,N,None,Y,,,,,Y,Y,f,20,
53,10,593,0,0,12,['k'],['d'],Y,N,None,Y,,,,,Y,Y,f,20,
54,0,594,0,0,12,['d'],['k'],Y,N,None,Y,,,,,Y,Y,f,20,
54,1,595,5,5,12,['k'],['d'],Y,N,None,Y,,,,,Y,Y,f,20,
54,2,596,8,8,12,['d'],['k'],Y,N,None,Y,,,,,Y,Y,f,20,
54,3,597,10,10,12,['d'],['k'],Y,N,None,Y,,,,,Y,Y,f,20,
54,4,598,3,3,12,['k'],['d'],Y,N,None,Y,,,,,Y,Y,f,20,
54,5,599,4,4,12,['d'],['d'],N,N,None,Y,46,47,25,,Y,Y,f,20,
