.thisRepN,.thisTrialN,.thisN,.thisIndex,.thisTrial,Block Number,Key pressed,Category,Correct?,Int Match?,Int Response,Int Correct?,Line Accuracy,Interference Accuracy,Matching Interferences,New instruction shown?,Buttons switched?,Fast?,gender,age,
0,0,0,11,11,1,['d'],['d'],Y,,,,,,,,,,m,19,
0,1,1,11,11,1,['d'],['k'],N,,,,,,,,,,m,19,
0,2,2,8,8,1,['k'],['k'],Y,Y,None,N,,,,,,,m,19,
0,3,3,5,5,1,['k'],['k'],Y,Y,None,N,,,,,,,m,19,
0,4,4,7,7,1,['k'],['k'],Y,N,None,Y,,,,,,,m,19,
0,5,5,14,14,1,['k'],['d'],N,N,None,Y,,,,,,,m,19,
0,6,6,14,14,1,['k'],['d'],N,N,None,Y,,,,,,,m,19,
0,7,7,10,10,1,['d'],['d'],Y,Y,None,N,,,,,,,m,19,
0,8,8,8,8,1,['k'],['k'],Y,N,None,Y,,,,,,,m,19,
0,9,9,0,0,1,['k'],['k'],Y,N,None,Y,,,,,,,m,19,
0,10,10,6,6,1,['d'],['d'],Y,Y,None,N,,,,,,,m,19,
0,11,11,10,10,1,['k'],['k'],Y,Y,None,N,,,,,,,m,19,
0,12,12,4,4,1,['k'],['k'],Y,N,None,Y,,,,,,,m,19,
0,13,13,14,14,1,['k'],['k'],Y,N,['space'],N,,,,,,,m,19,
0,14,14,0,0,1,['k'],['k'],Y,N,None,Y,,,,,,,m,19,
1,0,15,11,11,1,['k'],['k'],Y,N,None,Y,,,,,,,m,19,
1,1,16,1,1,1,['k'],['k'],Y,Y,['space'],Y,,,,,,,m,19,
1,2,17,11,11,1,['k'],['k'],Y,N,None,Y,,,,,,,m,19,
1,3,18,5,5,1,['d'],['d'],Y,N,None,Y,,,,,,,m,19,
1,4,19,14,14,1,['k'],['k'],Y,Y,None,N,,,,,,,m,19,
1,5,20,2,2,1,['d'],['d'],Y,Y,['space'],Y,,,,,,,m,19,
1,6,21,13,13,1,['d'],['d'],Y,N,None,Y,,,,,,,m,19,
1,7,22,8,8,1,['d'],['d'],Y,N,None,Y,,,,,,,m,19,
1,8,23,6,6,1,['k'],['k'],Y,N,None,Y,,,,,,,m,19,
1,9,24,14,14,1,['d'],['k'],N,N,None,Y,,,,,,,m,19,
1,10,25,9,9,1,['d'],['d'],Y,Y,None,N,,,,,,,m,19,
1,11,26,11,11,1,['d'],['d'],Y,Y,None,N,,,,,,,m,19,
1,12,27,5,5,1,['k'],['k'],Y,Y,['space'],Y,,,,,,,m,19,
1,13,28,10,10,1,['d'],['k'],N,N,None,Y,,,,,,,m,19,
1,14,29,3,3,1,['d'],['d'],Y,Y,['space'],Y,,,,,,,m,19,
2,0,30,8,8,1,['k'],['k'],Y,N,None,Y,,,,,,,m,19,
2,1,31,10,10,1,['k'],['k'],Y,N,['space'],N,,,,,,,m,19,
2,2,32,9,9,1,['k'],['k'],Y,Y,['space'],Y,,,,,,,m,19,
2,3,33,6,6,1,['d'],['d'],Y,N,['space'],N,,,,,,,m,19,
2,4,34,3,3,1,['k'],['k'],Y,Y,['space'],Y,,,,,,,m,19,
2,5,35,13,13,1,['k'],['k'],Y,Y,['space'],Y,,,,,,,m,19,
2,6,36,13,13,1,['d'],['d'],Y,Y,['space'],Y,,,,,,,m,19,
2,7,37,12,12,1,['d'],['d'],Y,Y,['space'],Y,,,,,,,m,19,
2,8,38,6,6,1,['k'],['k'],Y,Y,['space'],Y,,,,,,,m,19,
2,9,39,11,11,1,['k'],['k'],Y,N,None,Y,,,,,,,m,19,
2,10,40,1,1,1,['k'],['k'],Y,Y,None,N,,,,,,,m,19,
2,11,41,2,2,1,['d'],['d'],Y,Y,['space'],Y,,,,,,,m,19,
2,12,42,7,7,1,['k'],['k'],Y,Y,['space'],Y,,,,,,,m,19,
2,13,43,6,6,1,['d'],['d'],Y,Y,['space'],Y,,,,,,,m,19,
2,14,44,10,10,1,['d'],['d'],Y,N,None,Y,,,,,,,m,19,
3,0,45,14,14,1,['d'],['d'],Y,N,None,Y,,,,,,,m,19,
3,1,46,2,2,1,['d'],['d'],Y,N,None,Y,,,,,,,m,19,
3,2,47,2,2,1,['k'],['k'],Y,Y,['space'],Y,,,,,,,m,19,
3,3,48,12,12,1,['k'],['k'],Y,N,None,Y,,,,,,,m,19,
3,4,49,9,9,1,['k'],['k'],Y,Y,['space'],Y,45,36,24,,,,m,19,
3,5,50,0,0,2,['d'],['d'],Y,,,,,,,,,,m,19,
3,6,51,12,12,2,['k'],['k'],Y,,,,,,,,,,m,19,
3,7,52,2,2,2,['d'],['d'],Y,Y,['space'],Y,,,,,,,m,19,
3,8,53,11,11,2,['k'],['k'],Y,N,None,Y,,,,,,,m,19,
3,9,54,5,5,2,['d'],['d'],Y,Y,None,N,,,,,,,m,19,
3,10,55,11,11,2,['k'],['k'],Y,N,None,Y,,,,,,,m,19,
3,11,56,3,3,2,['d'],['d'],Y,N,None,Y,,,,,,,m,19,
3,12,57,9,9,2,['k'],['k'],Y,N,None,Y,,,,,,,m,19,
3,13,58,6,6,2,['k'],['k'],Y,Y,None,N,,,,,,,m,19,
3,14,59,4,4,2,['k'],['k'],Y,N,None,Y,,,,,,,m,19,
4,0,60,8,8,2,['d'],['d'],Y,N,None,Y,,,,,,,m,19,
4,1,61,6,6,2,['d'],['d'],Y,N,None,Y,,,,,,,m,19,
4,2,62,13,13,2,['k'],['k'],Y,Y,['space'],Y,,,,,,,m,19,
4,3,63,12,12,2,['d'],['d'],Y,Y,['space'],Y,,,,,,,m,19,
4,4,64,3,3,2,['k'],['k'],Y,Y,['space'],Y,,,,,,,m,19,
4,5,65,14,14,2,['d'],['d'],Y,N,None,Y,,,,,,,m,19,
4,6,66,2,2,2,['k'],['k'],Y,Y,['space'],Y,,,,,,,m,19,
4,7,67,9,9,2,['d'],['d'],Y,Y,['space'],Y,,,,,,,m,19,
4,8,68,8,8,2,['d'],['d'],Y,Y,['space'],Y,,,,,,,m,19,
4,9,69,3,3,2,['d'],['d'],Y,N,None,Y,,,,,,,m,19,
4,10,70,10,10,2,['k'],['k'],Y,Y,['space'],Y,,,,,,,m,19,
4,11,71,3,3,2,['d'],['d'],Y,N,None,Y,,,,,,,m,19,
4,12,72,9,9,2,['d'],['d'],Y,Y,['space'],Y,,,,,,,m,19,
4,13,73,2,2,2,['k'],['k'],Y,Y,['space'],Y,,,,,,,m,19,
4,14,74,3,3,2,['d'],['d'],Y,Y,['space'],Y,,,,,,,m,19,
5,0,75,7,7,2,['d'],['d'],Y,Y,['space'],Y,,,,,,,m,19,
5,1,76,12,12,2,['d'],['d'],Y,Y,['space'],Y,,,,,,,m,19,
5,2,77,12,12,2,['d'],['d'],Y,Y,['space'],Y,,,,,,,m,19,
5,3,78,9,9,2,['k'],['k'],Y,Y,['space'],Y,,,,,,,m,19,
5,4,79,7,7,2,['d'],['d'],Y,Y,['d'],N,,,,,,,m,19,
5,5,80,5,5,2,['d'],['d'],Y,N,None,Y,,,,,,,m,19,
5,6,81,5,5,2,['d'],['d'],Y,Y,None,N,,,,,,,m,19,
5,7,82,7,7,2,['d'],['d'],Y,N,None,Y,,,,,,,m,19,
5,8,83,11,11,2,['d'],['d'],Y,Y,['space'],Y,,,,,,,m,19,
5,9,84,12,12,2,['d'],['d'],Y,N,None,Y,,,,,,,m,19,
5,10,85,14,14,2,['k'],['k'],Y,N,None,Y,,,,,,,m,19,
5,11,86,6,6,2,['d'],['k'],N,Y,['space'],Y,,,,,,,m,19,
5,12,87,14,14,2,['k'],['k'],Y,N,None,Y,,,,,,,m,19,
5,13,88,13,13,2,['k'],['k'],Y,N,None,Y,,,,,,,m,19,
5,14,89,10,10,2,['k'],['k'],Y,N,None,Y,,,,,,,m,19,
6,0,90,13,13,2,['d'],['d'],Y,N,['space'],N,,,,,,,m,19,
6,1,91,0,0,2,['k'],['k'],Y,N,None,Y,,,,,,,m,19,
6,2,92,11,11,2,['d'],['d'],Y,N,None,Y,,,,,,,m,19,
6,3,93,14,14,2,['d'],['d'],Y,N,None,Y,,,,,,,m,19,
6,4,94,14,14,2,['d'],['d'],Y,Y,['space'],Y,,,,,,,m,19,
6,5,95,4,4,2,['k'],['k'],Y,Y,['space'],Y,,,,,,,m,19,
6,6,96,12,12,2,['d'],['d'],Y,Y,['space'],Y,,,,,,,m,19,
6,7,97,8,8,2,['d'],['d'],Y,Y,['space'],Y,,,,,,,m,19,
6,8,98,1,1,2,['k'],['k'],Y,N,None,Y,,,,,,,m,19,
6,9,99,12,12,2,['d'],['d'],Y,N,None,Y,49,43,25,,,,m,19,
6,10,100,1,1,3,['d'],['d'],Y,,,,,,,,,,m,19,
6,11,101,1,1,3,['d'],['d'],Y,,,,,,,,,,m,19,
6,12,102,13,13,3,['k'],['k'],Y,Y,['space'],Y,,,,,,,m,19,
6,13,103,9,9,3,['k'],['k'],Y,N,None,Y,,,,,,,m,19,
6,14,104,1,1,3,['k'],['k'],Y,N,None,Y,,,,,,,m,19,
7,0,105,13,13,3,['d'],['d'],Y,Y,['space'],Y,,,,,,,m,19,
7,1,106,9,9,3,['d'],['d'],Y,N,None,Y,,,,,,,m,19,
7,2,107,1,1,3,['d'],['d'],Y,Y,['space'],Y,,,,,,,m,19,
7,3,108,14,14,3,['d'],['d'],Y,Y,['space'],Y,,,,,,,m,19,
7,4,109,8,8,3,['k'],['k'],Y,Y,['space'],Y,,,,,,,m,19,
7,5,110,9,9,3,['k'],['k'],Y,Y,['space'],Y,,,,,,,m,19,
7,6,111,12,12,3,['d'],['d'],Y,Y,['space'],Y,,,,,,,m,19,
7,7,112,11,11,3,['k'],['k'],Y,Y,['space'],Y,,,,,,,m,19,
7,8,113,4,4,3,['k'],['k'],Y,Y,['space'],Y,,,,,,,m,19,
7,9,114,8,8,3,['k'],['k'],Y,Y,['space'],Y,,,,,,,m,19,
7,10,115,5,5,3,['d'],['d'],Y,Y,['space'],Y,,,,,,,m,19,
7,11,116,13,13,3,['k'],['d'],N,N,None,Y,,,,,,,m,19,
7,12,117,2,2,3,['d'],['d'],Y,N,None,Y,,,,,,,m,19,
7,13,118,1,1,3,['k'],['k'],Y,N,None,Y,,,,,,,m,19,
7,14,119,13,13,3,['d'],['d'],Y,N,None,Y,,,,,,,m,19,
8,0,120,13,13,3,['d'],['d'],Y,N,None,Y,,,,,,,m,19,
8,1,121,13,13,3,['d'],['d'],Y,Y,['space'],Y,,,,,,,m,19,
8,2,122,5,5,3,['k'],['k'],Y,N,None,Y,,,,,,,m,19,
8,3,123,10,10,3,['k'],['k'],Y,N,None,Y,,,,,,,m,19,
8,4,124,10,10,3,['d'],['d'],Y,N,None,Y,,,,,,,m,19,
8,5,125,4,4,3,['d'],['d'],Y,N,None,Y,,,,,,,m,19,
8,6,126,12,12,3,['d'],['d'],Y,Y,['space'],Y,,,,,,,m,19,
8,7,127,3,3,3,['d'],['d'],Y,N,None,Y,,,,,,,m,19,
8,8,128,2,2,3,['k'],['k'],Y,N,None,Y,,,,,,,m,19,
8,9,129,0,0,3,['k'],['k'],Y,N,None,Y,,,,,,,m,19,
8,10,130,1,1,3,['k'],['k'],Y,Y,['space'],Y,,,,,,,m,19,
8,11,131,8,8,3,['k'],['k'],Y,Y,['space'],Y,,,,,,,m,19,
8,12,132,5,5,3,['k'],['k'],Y,Y,['space'],Y,,,,,,,m,19,
8,13,133,7,7,3,['d'],['d'],Y,N,None,Y,,,,,,,m,19,
8,14,134,6,6,3,['d'],['d'],Y,N,None,Y,,,,,,,m,19,
9,0,135,8,8,3,['k'],['k'],Y,N,None,Y,,,,,,,m,19,
9,1,136,14,14,3,['k'],['k'],Y,Y,['space'],Y,,,,,,,m,19,
9,2,137,4,4,3,['d'],['d'],Y,Y,['space'],Y,,,,,,,m,19,
9,3,138,7,7,3,['k'],['k'],Y,Y,['space'],Y,,,,,,,m,19,
9,4,139,10,10,3,['k'],['k'],Y,N,None,Y,,,,,,,m,19,
9,5,140,3,3,3,['k'],['k'],Y,Y,None,N,,,,,,,m,19,
9,6,141,6,6,3,['k'],['k'],Y,N,['space'],N,,,,,,,m,19,
9,7,142,4,4,3,['d'],['d'],Y,Y,['space'],Y,,,,,,,m,19,
9,8,143,1,1,3,['d'],['d'],Y,Y,['space'],Y,,,,,,,m,19,
9,9,144,2,2,3,['d'],['d'],Y,N,None,Y,,,,,,,m,19,
9,10,145,3,3,3,['d'],['d'],Y,N,None,Y,,,,,,,m,19,
9,11,146,13,13,3,['k'],['k'],Y,Y,['space'],Y,,,,,,,m,19,
9,12,147,1,1,3,['d'],['d'],Y,Y,['space'],Y,,,,,,,m,19,
9,13,148,9,9,3,['d'],['d'],Y,Y,['space'],Y,,,,,,,m,19,
9,14,149,12,12,3,['k'],['k'],Y,N,None,Y,49,46,25,,,,m,19,
10,0,150,13,13,4,['d'],['d'],Y,,,,,,,,,,m,19,
10,1,151,14,14,4,['d'],['d'],Y,,,,,,,,,,m,19,
10,2,152,5,5,4,['k'],['k'],Y,N,None,Y,,,,,,,m,19,
10,3,153,5,5,4,['k'],['k'],Y,N,None,Y,,,,,,,m,19,
10,4,154,12,12,4,['d'],['d'],Y,N,None,Y,,,,,,,m,19,
10,5,155,1,1,4,['k'],['k'],Y,Y,['space'],Y,,,,,,,m,19,
10,6,156,10,10,4,['d'],['k'],N,Y,['space'],Y,,,,,,,m,19,
10,7,157,0,0,4,['k'],['k'],Y,N,None,Y,,,,,,,m,19,
10,8,158,8,8,4,['k'],['k'],Y,Y,['space'],Y,,,,,,,m,19,
10,9,159,9,9,4,['d'],['d'],Y,N,None,Y,,,,,,,m,19,
10,10,160,13,13,4,['k'],['k'],Y,N,None,Y,,,,,,,m,19,
10,11,161,1,1,4,['k'],['k'],Y,Y,['space'],Y,,,,,,,m,19,
10,12,162,5,5,4,['d'],['d'],Y,Y,['space'],Y,,,,,,,m,19,
10,13,163,14,14,4,['d'],['d'],Y,N,None,Y,,,,,,,m,19,
10,14,164,0,0,4,['d'],['d'],Y,N,None,Y,,,,,,,m,19,
11,0,165,0,0,4,['d'],['d'],Y,N,None,Y,,,,,,,m,19,
11,1,166,7,7,4,['k'],['k'],Y,N,None,Y,,,,,,,m,19,
11,2,167,0,0,4,['d'],['d'],Y,Y,['space'],Y,,,,,,,m,19,
11,3,168,13,13,4,['k'],['k'],Y,Y,['space'],Y,,,,,,,m,19,
11,4,169,12,12,4,['d'],['d'],Y,Y,['space'],Y,,,,,,,m,19,
11,5,170,1,1,4,['d'],['d'],Y,Y,['space'],Y,,,,,,,m,19,
11,6,171,10,10,4,['k'],['k'],Y,Y,['space'],Y,,,,,,,m,19,
11,7,172,2,2,4,['d'],['d'],Y,N,None,Y,,,,,,,m,19,
11,8,173,1,1,4,['d'],['d'],Y,N,None,Y,,,,,,,m,19,
11,9,174,8,8,4,['k'],['k'],Y,Y,['space'],Y,,,,,,,m,19,
11,10,175,14,14,4,['d'],['d'],Y,Y,['space'],Y,,,,,,,m,19,
11,11,176,12,12,4,['d'],['d'],Y,Y,['space'],Y,,,,,,,m,19,
11,12,177,13,13,4,['k'],['k'],Y,Y,['space'],Y,,,,,,,m,19,
11,13,178,1,1,4,['d'],['d'],Y,Y,['space'],Y,,,,,,,m,19,
11,14,179,1,1,4,['d'],['d'],Y,Y,['space'],Y,,,,,,,m,19,
12,0,180,6,6,4,['k'],['k'],Y,Y,['space'],Y,,,,,,,m,19,
12,1,181,6,6,4,['k'],['k'],Y,N,None,Y,,,,,,,m,19,
12,2,182,0,0,4,['k'],['k'],Y,N,None,Y,,,,,,,m,19,
12,3,183,10,10,4,['d'],['d'],Y,N,None,Y,,,,,,,m,19,
12,4,184,6,6,4,['d'],['d'],Y,N,None,Y,,,,,,,m,19,
12,5,185,14,14,4,['d'],['d'],Y,N,None,Y,,,,,,,m,19,
12,6,186,6,6,4,['d'],['d'],Y,Y,['space'],Y,,,,,,,m,19,
12,7,187,2,2,4,['k'],['k'],Y,Y,['space'],Y,,,,,,,m,19,
12,8,188,6,6,4,['d'],['d'],Y,Y,['space'],Y,,,,,,,m,19,
12,9,189,12,12,4,['d'],['d'],Y,Y,['space'],Y,,,,,,,m,19,
12,10,190,12,12,4,['d'],['d'],Y,N,None,Y,,,,,,,m,19,
12,11,191,13,13,4,['d'],['d'],Y,N,None,Y,,,,,,,m,19,
12,12,192,10,10,4,['k'],['k'],Y,N,None,Y,,,,,,,m,19,
12,13,193,6,6,4,['k'],['k'],Y,Y,['space'],Y,,,,,,,m,19,
12,14,194,3,3,4,['d'],['d'],Y,Y,None,N,,,,,,,m,19,
13,0,195,6,6,4,['d'],['d'],Y,Y,['space'],Y,,,,,,,m,19,
13,1,196,1,1,4,['d'],['k'],N,Y,['space'],Y,,,,,,,m,19,
13,2,197,8,8,4,['d'],['d'],Y,N,None,Y,,,,,,,m,19,
13,3,198,9,9,4,['d'],['d'],Y,N,None,Y,,,,,,,m,19,
13,4,199,8,8,4,['k'],['k'],Y,N,None,Y,48,47,25,,,,m,19,
13,5,200,14,14,5,['k'],['k'],Y,,,,,,,,,,m,19,
13,6,201,6,6,5,['k'],['k'],Y,,,,,,,,,,m,19,
13,7,202,0,0,5,['d'],['d'],Y,N,None,Y,,,,,,,m,19,
13,8,203,2,2,5,['d'],['d'],Y,N,None,Y,,,,,,,m,19,
13,9,204,6,6,5,['d'],['d'],Y,Y,['space'],Y,,,,,,,m,19,
13,10,205,3,3,5,['d'],['d'],Y,N,None,Y,,,,,,,m,19,
13,11,206,3,3,5,['d'],['d'],Y,N,None,Y,,,,,,,m,19,
13,12,207,7,7,5,['d'],['k'],N,Y,['space'],Y,,,,,,,m,19,
13,13,208,9,9,5,['d'],['d'],Y,N,None,Y,,,,,,,m,19,
13,14,209,8,8,5,['k'],['k'],Y,N,None,Y,,,,,,,m,19,
14,0,210,8,8,5,['k'],['k'],Y,N,None,Y,,,,,,,m,19,
14,1,211,3,3,5,['d'],['d'],Y,N,None,Y,,,,,,,m,19,
14,2,212,6,6,5,['k'],['k'],Y,N,None,Y,,,,,,,m,19,
14,3,213,5,5,5,['d'],['k'],N,Y,['space'],Y,,,,,,,m,19,
14,4,214,2,2,5,['d'],['d'],Y,N,None,Y,,,,,,,m,19,
14,5,215,3,3,5,['d'],['k'],N,N,None,Y,,,,,,,m,19,
14,6,216,7,7,5,['k'],['k'],Y,Y,['space'],Y,,,,,,,m,19,
14,7,217,0,0,5,['k'],['k'],Y,N,None,Y,,,,,,,m,19,
14,8,218,11,11,5,['k'],['k'],Y,Y,None,N,,,,,,,m,19,
14,9,219,11,11,5,['d'],['d'],Y,N,None,Y,,,,,,,m,19,
14,10,220,9,9,5,['k'],['k'],Y,Y,['space'],Y,,,,,,,m,19,
14,11,221,2,2,5,['d'],['d'],Y,Y,['space'],Y,,,,,,,m,19,
14,12,222,6,6,5,['k'],['k'],Y,N,None,Y,,,,,,,m,19,
14,13,223,14,14,5,['k'],['k'],Y,N,None,Y,,,,,,,m,19,
14,14,224,4,4,5,['d'],['d'],Y,N,None,Y,,,,,,,m,19,
15,0,225,1,1,5,['k'],['k'],Y,Y,['space'],Y,,,,,,,m,19,
15,1,226,10,10,5,['d'],['d'],Y,N,None,Y,,,,,,,m,19,
15,2,227,4,4,5,['k'],['k'],Y,Y,['space'],Y,,,,,,,m,19,
15,3,228,14,14,5,['d'],['d'],Y,Y,['space'],Y,,,,,,,m,19,
15,4,229,0,0,5,['d'],['d'],Y,N,None,Y,,,,,,,m,19,
15,5,230,5,5,5,['d'],['d'],Y,Y,['space'],Y,,,,,,,m,19,
15,6,231,6,6,5,['k'],['k'],Y,Y,['space'],Y,,,,,,,m,19,
15,7,232,11,11,5,['d'],['d'],Y,N,None,Y,,,,,,,m,19,
15,8,233,2,2,5,['d'],['d'],Y,Y,['space'],Y,,,,,,,m,19,
15,9,234,1,1,5,['k'],['k'],Y,N,None,Y,,,,,,,m,19,
15,10,235,4,4,5,['d'],['k'],N,N,None,Y,,,,,,,m,19,
15,11,236,1,1,5,['d'],['d'],Y,N,None,Y,,,,,,,m,19,
15,12,237,7,7,5,['k'],['k'],Y,N,None,Y,,,,,,,m,19,
15,13,238,2,2,5,['d'],['d'],Y,N,None,Y,,,,,,,m,19,
15,14,239,2,2,5,['k'],['k'],Y,N,None,Y,,,,,,,m,19,
16,0,240,8,8,5,['k'],['k'],Y,N,None,Y,,,,,,,m,19,
16,1,241,11,11,5,['d'],['d'],Y,Y,['space'],Y,,,,,,,m,19,
16,2,242,7,7,5,['k'],['k'],Y,Y,['space'],Y,,,,,,,m,19,
16,3,243,2,2,5,['k'],['k'],Y,N,None,Y,,,,,,,m,19,
16,4,244,6,6,5,['k'],['k'],Y,Y,None,N,,,,,,,m,19,
16,5,245,6,6,5,['k'],['k'],Y,Y,['space'],Y,,,,,,,m,19,
16,6,246,0,0,5,['d'],['d'],Y,Y,['space'],Y,,,,,,,m,19,
16,7,247,4,4,5,['k'],['k'],Y,N,None,Y,,,,,,,m,19,
16,8,248,7,7,5,['k'],['k'],Y,Y,['space'],Y,,,,,,,m,19,
16,9,249,14,14,5,['k'],['d'],N,N,None,Y,45,46,19,,,,m,19,
16,10,250,8,8,6,['k'],['d'],N,,,,,,,,,,m,19,
16,11,251,4,4,6,['k'],['k'],Y,,,,,,,,,,m,19,
16,12,252,7,7,6,['d'],['d'],Y,Y,['space'],Y,,,,,,,m,19,
16,13,253,2,2,6,['k'],['k'],Y,N,None,Y,,,,,,,m,19,
16,14,254,1,1,6,['d'],['d'],Y,Y,['space'],Y,,,,,,,m,19,
17,0,255,13,13,6,['k'],['k'],Y,Y,['space'],Y,,,,,,,m,19,
17,1,256,3,3,6,['d'],['k'],N,N,None,Y,,,,,,,m,19,
17,2,257,12,12,6,['k'],['k'],Y,Y,['space'],Y,,,,,,,m,19,
17,3,258,7,7,6,['k'],['k'],Y,N,None,Y,,,,,,,m,19,
17,4,259,1,1,6,['k'],['k'],Y,N,None,Y,,,,,,,m,19,
17,5,260,0,0,6,['k'],['k'],Y,N,None,Y,,,,,,,m,19,
17,6,261,14,14,6,['d'],['d'],Y,N,None,Y,,,,,,,m,19,
17,7,262,2,2,6,['d'],['d'],Y,N,None,Y,,,,,,,m,19,
17,8,263,9,9,6,['d'],['d'],Y,Y,['space'],Y,,,,,,,m,19,
17,9,264,12,12,6,['d'],['d'],Y,Y,['space'],Y,,,,,,,m,19,
17,10,265,9,9,6,['k'],['k'],Y,Y,None,N,,,,,,,m,19,
17,11,266,14,14,6,['k'],['k'],Y,Y,None,N,,,,,,,m,19,
17,12,267,13,13,6,['d'],['d'],Y,Y,['space'],Y,,,,,,,m,19,
17,13,268,10,10,6,['d'],['d'],Y,Y,['space'],Y,,,,,,,m,19,
17,14,269,7,7,6,['d'],['d'],Y,Y,['space'],Y,,,,,,,m,19,
18,0,270,11,11,6,['d'],['d'],Y,Y,['space'],Y,,,,,,,m,19,
18,1,271,9,9,6,['k'],['k'],Y,Y,['space'],Y,,,,,,,m,19,
18,2,272,13,13,6,['k'],['k'],Y,Y,['space'],Y,,,,,,,m,19,
18,3,273,10,10,6,['k'],['k'],Y,Y,['space'],Y,,,,,,,m,19,
18,4,274,11,11,6,['k'],['k'],Y,Y,['space'],Y,,,,,,,m,19,
18,5,275,7,7,6,['d'],['d'],Y,N,None,Y,,,,,,,m,19,
18,6,276,5,5,6,['d'],['d'],Y,N,None,Y,,,,,,,m,19,
18,7,277,12,12,6,['k'],['k'],Y,N,None,Y,,,,,,,m,19,
18,8,278,10,10,6,['d'],['d'],Y,Y,['space'],Y,,,,,,,m,19,
18,9,279,4,4,6,['k'],['k'],Y,N,None,Y,,,,,,,m,19,
18,10,280,13,13,6,['k'],['k'],Y,Y,['space'],Y,,,,,,,m,19,
18,11,281,13,13,6,['d'],['d'],Y,N,None,Y,,,,,,,m,19,
18,12,282,3,3,6,['k'],['k'],Y,N,None,Y,,,,,,,m,19,
18,13,283,2,2,6,['d'],['d'],Y,Y,None,N,,,,,,,m,19,
18,14,284,3,3,6,['k'],['k'],Y,Y,['space'],Y,,,,,,,m,19,
19,0,285,9,9,6,['k'],['k'],Y,Y,['space'],Y,,,,,,,m,19,
19,1,286,0,0,6,['d'],['d'],Y,Y,None,N,,,,,,,m,19,
19,2,287,7,7,6,['k'],['k'],Y,N,None,Y,,,,,,,m,19,
19,3,288,2,2,6,['d'],['d'],Y,N,None,Y,,,,,,,m,19,
19,4,289,2,2,6,['k'],['k'],Y,N,None,Y,,,,,,,m,19,
19,5,290,11,11,6,['d'],['d'],Y,Y,['space'],Y,,,,,,,m,19,
19,6,291,6,6,6,['k'],['k'],Y,Y,None,N,,,,,,,m,19,
19,7,292,1,1,6,['k'],['k'],Y,N,None,Y,,,,,,,m,19,
19,8,293,3,3,6,['k'],['k'],Y,N,None,Y,,,,,,,m,19,
19,9,294,7,7,6,['d'],['d'],Y,Y,['space'],Y,,,,,,,m,19,
19,10,295,13,13,6,['k'],['k'],Y,N,None,Y,,,,,,,m,19,
19,11,296,12,12,6,['d'],['d'],Y,N,None,Y,,,,,,,m,19,
19,12,297,2,2,6,['k'],['k'],Y,N,None,Y,,,,,,,m,19,
19,13,298,9,9,6,['d'],['d'],Y,N,None,Y,,,,,,,m,19,
19,14,299,8,8,6,['k'],['k'],Y,N,None,Y,48,43,25,,,,m,19,
20,0,300,14,14,7,['d'],['d'],Y,,,,,,,,,,m,19,
20,1,301,10,10,7,['d'],['d'],Y,,,,,,,,,,m,19,
20,2,302,14,14,7,['k'],['k'],Y,Y,['space'],Y,,,,,,,m,19,
20,3,303,9,9,7,['d'],['d'],Y,Y,['d'],N,,,,,,,m,19,
20,4,304,3,3,7,['d'],['d'],Y,N,None,Y,,,,,,,m,19,
20,5,305,8,8,7,['k'],['k'],Y,N,None,Y,,,,,,,m,19,
20,6,306,13,13,7,['k'],['k'],Y,Y,['space'],Y,,,,,,,m,19,
20,7,307,1,1,7,['d'],['d'],Y,N,None,Y,,,,,,,m,19,
20,8,308,13,13,7,['k'],['k'],Y,Y,['space'],Y,,,,,,,m,19,
20,9,309,3,3,7,['d'],['k'],N,Y,['space'],Y,,,,,,,m,19,
20,10,310,0,0,7,['k'],['d'],N,Y,['space'],Y,,,,,,,m,19,
20,11,311,6,6,7,['k'],['k'],Y,N,None,Y,,,,,,,m,19,
20,12,312,1,1,7,['k'],['k'],Y,Y,['space'],Y,,,,,,,m,19,
20,13,313,11,11,7,['d'],['d'],Y,N,None,Y,,,,,,,m,19,
20,14,314,0,0,7,['k'],['k'],Y,N,None,Y,,,,,,,m,19,
21,0,315,13,13,7,['d'],['d'],Y,Y,['space'],Y,,,,,,,m,19,
21,1,316,8,8,7,['d'],['d'],Y,N,['space'],N,,,,,,,m,19,
21,2,317,8,8,7,['k'],['k'],Y,Y,['space'],Y,,,,,,,m,19,
21,3,318,9,9,7,['k'],['k'],Y,N,None,Y,,,,,,,m,19,
21,4,319,3,3,7,['d'],['d'],Y,N,None,Y,,,,,,,m,19,
21,5,320,10,10,7,['k'],['k'],Y,Y,['space'],Y,,,,,,,m,19,
21,6,321,0,0,7,['k'],['k'],Y,Y,None,N,,,,,,,m,19,
21,7,322,12,12,7,['k'],['k'],Y,Y,['space'],Y,,,,,,,m,19,
21,8,323,4,4,7,['d'],['d'],Y,N,None,Y,,,,,,,m,19,
21,9,324,2,2,7,['k'],['k'],Y,N,None,Y,,,,,,,m,19,
21,10,325,9,9,7,['d'],['d'],Y,Y,['space'],Y,,,,,,,m,19,
21,11,326,5,5,7,['k'],['k'],Y,N,None,Y,,,,,,,m,19,
21,12,327,2,2,7,['d'],['d'],Y,N,None,Y,,,,,,,m,19,
21,13,328,0,0,7,['k'],['d'],N,Y,None,N,,,,,,,m,19,
21,14,329,5,5,7,['d'],['d'],Y,Y,['space'],Y,,,,,,,m,19,
22,0,330,3,3,7,['d'],['d'],Y,Y,['space'],Y,,,,,,,m,19,
22,1,331,14,14,7,['k'],['k'],Y,Y,['space'],Y,,,,,,,m,19,
22,2,332,8,8,7,['k'],['k'],Y,Y,['space'],Y,,,,,,,m,19,
22,3,333,5,5,7,['k'],['k'],Y,N,['space'],N,,,,,,,m,19,
22,4,334,14,14,7,['d'],['d'],Y,N,None,Y,,,,,,,m,19,
22,5,335,7,7,7,['k'],['k'],Y,N,None,Y,,,,,,,m,19,
22,6,336,0,0,7,['d'],['d'],Y,N,None,Y,,,,,,,m,19,
22,7,337,10,10,7,['k'],['k'],Y,Y,None,N,,,,,,,m,19,
22,8,338,11,11,7,['k'],['k'],Y,N,None,Y,,,,,,,m,19,
22,9,339,4,4,7,['d'],['d'],Y,N,None,Y,,,,,,,m,19,
22,10,340,2,2,7,['d'],['d'],Y,N,None,Y,,,,,,,m,19,
22,11,341,8,8,7,['k'],['k'],Y,N,None,Y,,,,,,,m,19,
22,12,342,13,13,7,['d'],['d'],Y,N,None,Y,,,,,,,m,19,
22,13,343,12,12,7,['k'],['k'],Y,Y,None,N,,,,,,,m,19,
22,14,344,7,7,7,['d'],['d'],Y,N,None,Y,,,,,,,m,19,
23,0,345,12,12,7,['k'],['d'],N,Y,['space'],Y,,,,,,,m,19,
23,1,346,12,12,7,['k'],['k'],Y,N,None,Y,,,,,,,m,19,
23,2,347,14,14,7,['k'],['k'],Y,N,None,Y,,,,,,,m,19,
23,3,348,9,9,7,['d'],['k'],N,Y,['space'],Y,,,,,,,m,19,
23,4,349,6,6,7,['k'],['k'],Y,Y,['space'],Y,45,41,23,,,,m,19,
23,5,350,9,9,8,['k'],['k'],Y,,,,,,,,,,m,19,
23,6,351,13,13,8,['d'],['k'],N,,,,,,,,,,m,19,
23,7,352,1,1,8,['d'],['d'],Y,N,None,Y,,,,,,,m,19,
23,8,353,4,4,8,['d'],['d'],Y,N,['space'],N,,,,,,,m,19,
23,9,354,11,11,8,['d'],['d'],Y,Y,['space'],Y,,,,,,,m,19,
23,10,355,3,3,8,['d'],['d'],Y,Y,['space'],Y,,,,,,,m,19,
23,11,356,11,11,8,['k'],['k'],Y,Y,['space'],Y,,,,,,,m,19,
23,12,357,3,3,8,['d'],['d'],Y,N,None,Y,,,,,,,m,19,
23,13,358,5,5,8,['d'],['d'],Y,Y,None,N,,,,,,,m,19,
23,14,359,0,0,8,['k'],['k'],Y,N,None,Y,,,,,,,m,19,
24,0,360,13,13,8,['k'],['k'],Y,Y,['space'],Y,,,,,,,m,19,
24,1,361,7,7,8,['k'],['k'],Y,N,None,Y,,,,,,,m,19,
24,2,362,5,5,8,['k'],['k'],Y,Y,['space'],Y,,,,,,,m,19,
24,3,363,9,9,8,['d'],['d'],Y,Y,['d'],N,,,,,,,m,19,
24,4,364,3,3,8,['d'],['d'],Y,N,None,Y,,,,,,,m,19,
24,5,365,5,5,8,['d'],['d'],Y,Y,['space'],Y,,,,,,,m,19,
24,6,366,5,5,8,['d'],['d'],Y,N,None,Y,,,,,,,m,19,
24,7,367,4,4,8,['k'],['k'],Y,Y,['space'],Y,,,,,,,m,19,
24,8,368,7,7,8,['k'],['k'],Y,Y,['space'],Y,,,,,,,m,19,
24,9,369,4,4,8,['k'],['k'],Y,N,None,Y,,,,,,,m,19,
24,10,370,0,0,8,['d'],['k'],N,Y,['space'],Y,,,,,,,m,19,
24,11,371,14,14,8,['k'],['k'],Y,N,None,Y,,,,,,,m,19,
24,12,372,12,12,8,['d'],['d'],Y,N,None,Y,,,,,,,m,19,
24,13,373,14,14,8,['k'],['k'],Y,Y,['space'],Y,,,,,,,m,19,
24,14,374,5,5,8,['d'],['d'],Y,N,None,Y,,,,,,,m,19,
25,0,375,0,0,8,['k'],['k'],Y,Y,['space'],Y,,,,,,,m,19,
25,1,376,9,9,8,['d'],['d'],Y,Y,['space'],Y,,,,,,,m,19,
25,2,377,1,1,8,['k'],['k'],Y,Y,['space'],Y,,,,,,,m,19,
25,3,378,5,5,8,['d'],['d'],Y,Y,['space'],Y,,,,,,,m,19,
25,4,379,8,8,8,['d'],['d'],Y,Y,['space'],Y,,,,,,,m,19,
25,5,380,8,8,8,['d'],['d'],Y,Y,['space'],Y,,,,,,,m,19,
25,6,381,7,7,8,['d'],['d'],Y,Y,['space'],Y,,,,,,,m,19,
25,7,382,11,11,8,['k'],['k'],Y,N,None,Y,,,,,,,m,19,
25,8,383,1,1,8,['k'],['k'],Y,Y,['space'],Y,,,,,,,m,19,
25,9,384,1,1,8,['d'],['d'],Y,Y,['space'],Y,,,,,,,m,19,
25,10,385,7,7,8,['k'],['k'],Y,N,None,Y,,,,,,,m,19,
25,11,386,4,4,8,['k'],['k'],Y,N,None,Y,,,,,,,m,19,
25,12,387,9,9,8,['d'],['d'],Y,Y,['space'],Y,,,,,,,m,19,
25,13,388,11,11,8,['k'],['k'],Y,N,['space'],N,,,,,,,m,19,
25,14,389,2,2,8,['k'],['k'],Y,Y,['space'],Y,,,,,,,m,19,
26,0,390,14,14,8,['k'],['k'],Y,N,None,Y,,,,,,,m,19,
26,1,391,8,8,8,['d'],['k'],N,Y,['space'],Y,,,,,,,m,19,
26,2,392,0,0,8,['d'],['d'],Y,Y,['space'],Y,,,,,,,m,19,
26,3,393,1,1,8,['k'],['k'],Y,N,None,Y,,,,,,,m,19,
26,4,394,0,0,8,['k'],['k'],Y,N,None,Y,,,,,,,m,19,
26,5,395,10,10,8,['d'],['d'],Y,N,None,Y,,,,,,,m,19,
26,6,396,0,0,8,['d'],['d'],Y,N,None,Y,,,,,,,m,19,
26,7,397,0,0,8,['k'],['k'],Y,N,['space'],N,,,,,,,m,19,
26,8,398,10,10,8,['d'],['d'],Y,N,None,Y,,,,,,,m,19,
26,9,399,2,2,8,['d'],['d'],Y,N,None,Y,47,43,25,,,,m,19,
26,10,400,10,10,9,['d'],['d'],Y,,,,,,,,,,m,19,
26,11,401,10,10,9,['d'],['d'],Y,,,,,,,,,,m,19,
26,12,402,2,2,9,['k'],['k'],Y,Y,['space'],Y,,,,,,,m,19,
26,13,403,3,3,9,['k'],['k'],Y,N,None,Y,,,,,,,m,19,
26,14,404,8,8,9,['k'],['k'],Y,N,None,Y,,,,,,,m,19,
27,0,405,8,8,9,['d'],['d'],Y,N,None,Y,,,,,,,m,19,
27,1,406,1,1,9,['k'],['k'],Y,N,None,Y,,,,,,,m,19,
27,2,407,13,13,9,['d'],['d'],Y,N,None,Y,,,,,,,m,19,
27,3,408,4,4,9,['k'],['k'],Y,N,None,Y,,,,,,,m,19,
27,4,409,7,7,9,['k'],['k'],Y,Y,['space'],Y,,,,,,,m,19,
27,5,410,7,7,9,['d'],['d'],Y,N,None,Y,,,,,,,m,19,
27,6,411,6,6,9,['k'],['k'],Y,Y,['space'],Y,,,,,,,m,19,
27,7,412,8,8,9,['d'],['d'],Y,N,None,Y,,,,,,,m,19,
27,8,413,6,6,9,['d'],['d'],Y,Y,['space'],Y,,,,,,,m,19,
27,9,414,0,0,9,['k'],['k'],Y,Y,['space'],Y,,,,,,,m,19,
27,10,415,5,5,9,['d'],['d'],Y,N,None,Y,,,,,,,m,19,
27,11,416,11,11,9,['d'],['d'],Y,Y,['space'],Y,,,,,,,m,19,
27,12,417,4,4,9,['k'],['d'],N,Y,['space'],Y,,,,,,,m,19,
27,13,418,11,11,9,['k'],['k'],Y,N,None,Y,,,,,,,m,19,
27,14,419,6,6,9,['k'],['k'],Y,Y,['space'],Y,,,,,,,m,19,
28,0,420,4,4,9,['d'],['d'],Y,Y,['space'],Y,,,,,,,m,19,
28,1,421,5,5,9,['k'],['k'],Y,N,None,Y,,,,,,,m,19,
28,2,422,12,12,9,['d'],['d'],Y,N,None,Y,,,,,,,m,19,
28,3,423,0,0,9,['k'],['k'],Y,Y,['space'],Y,,,,,,,m,19,
28,4,424,10,10,9,['d'],['d'],Y,Y,['space'],Y,,,,,,,m,19,
28,5,425,7,7,9,['k'],['k'],Y,Y,['space'],Y,,,,,,,m,19,
28,6,426,5,5,9,['d'],['d'],Y,Y,['space'],Y,,,,,,,m,19,
28,7,427,14,14,9,['d'],['d'],Y,N,None,Y,,,,,,,m,19,
28,8,428,0,0,9,['d'],['d'],Y,N,None,Y,,,,,,,m,19,
28,9,429,10,10,9,['d'],['d'],Y,Y,None,N,,,,,,,m,19,
28,10,430,13,13,9,['k'],['k'],Y,Y,['space'],Y,,,,,,,m,19,
28,11,431,12,12,9,['k'],['k'],Y,N,None,Y,,,,,,,m,19,
28,12,432,1,1,9,['d'],['d'],Y,Y,['space'],Y,,,,,,,m,19,
28,13,433,7,7,9,['k'],['k'],Y,N,None,Y,,,,,,,m,19,
28,14,434,8,8,9,['k'],['k'],Y,Y,['space'],Y,,,,,,,m,19,
29,0,435,12,12,9,['k'],['k'],Y,N,None,Y,,,,,,,m,19,
29,1,436,0,0,9,['k'],['k'],Y,N,None,Y,,,,,,,m,19,
29,2,437,11,11,9,['d'],['d'],Y,Y,['space'],Y,,,,,,,m,19,
29,3,438,2,2,9,['k'],['k'],Y,N,None,Y,,,,,,,m,19,
29,4,439,6,6,9,['d'],['k'],N,Y,None,N,,,,,,,m,19,
29,5,440,10,10,9,['k'],['k'],Y,Y,['space'],Y,,,,,,,m,19,
29,6,441,12,12,9,['d'],['d'],Y,Y,['space'],Y,,,,,,,m,19,
29,7,442,10,10,9,['d'],['d'],Y,Y,None,N,,,,,,,m,19,
29,8,443,4,4,9,['k'],['d'],N,N,None,Y,,,,,,,m,19,
29,9,444,1,1,9,['k'],['k'],Y,Y,['space'],Y,,,,,,,m,19,
29,10,445,5,5,9,['d'],['d'],Y,Y,['space'],Y,,,,,,,m,19,
29,11,446,4,4,9,['k'],['k'],Y,N,None,Y,,,,,,,m,19,
29,12,447,6,6,9,['d'],['d'],Y,Y,['space'],Y,,,,,,,m,19,
29,13,448,4,4,9,['d'],['d'],Y,N,['space'],N,,,,,,,m,19,
29,14,449,9,9,9,['d'],['d'],Y,N,None,Y,47,44,25,,,,m,19,
30,0,450,13,13,10,['d'],['d'],Y,,,,,,,,,,m,19,
30,1,451,4,4,10,['k'],['k'],Y,,,,,,,,,,m,19,
30,2,452,0,0,10,['k'],['k'],Y,N,None,Y,,,,,,,m,19,
30,3,453,5,5,10,['k'],['k'],Y,Y,['space'],Y,,,,,,,m,19,
30,4,454,11,11,10,['d'],['d'],Y,N,None,Y,,,,,,,m,19,
30,5,455,0,0,10,['d'],['d'],Y,Y,None,N,,,,,,,m,19,
30,6,456,3,3,10,['d'],['d'],Y,N,None,Y,,,,,,,m,19,
30,7,457,2,2,10,['d'],['d'],Y,Y,['space'],Y,,,,,,,m,19,
30,8,458,14,14,10,['d'],['d'],Y,Y,['space'],Y,,,,,,,m,19,
30,9,459,3,3,10,['d'],['d'],Y,Y,['space'],Y,,,,,,,m,19,
30,10,460,2,2,10,['d'],['d'],Y,N,None,Y,,,,,,,m,19,
30,11,461,10,10,10,['k'],['d'],N,N,None,Y,,,,,,,m,19,
30,12,462,9,9,10,['d'],['d'],Y,Y,['space'],Y,,,,,,,m,19,
30,13,463,4,4,10,['k'],['k'],Y,N,None,Y,,,,,,,m,19,
30,14,464,6,6,10,['k'],['k'],Y,Y,['space'],Y,,,,,,,m,19,
31,0,465,12,12,10,['d'],['d'],Y,Y,['space'],Y,,,,,,,m,19,
31,1,466,3,3,10,['k'],['k'],Y,Y,['space'],Y,,,,,,,m,19,
31,2,467,5,5,10,['k'],['k'],Y,Y,['d'],N,,,,,,,m,19,
31,3,468,12,12,10,['k'],['k'],Y,Y,['d'],N,,,,,,,m,19,
31,4,469,12,12,10,['d'],['d'],Y,Y,['space'],Y,,,,,,,m,19,
31,5,470,10,10,10,['k'],['k'],Y,Y,['space'],Y,,,,,,,m,19,
31,6,471,3,3,10,['d'],['d'],Y,N,None,Y,,,,,,,m,19,
31,7,472,7,7,10,['k'],['k'],Y,N,None,Y,,,,,,,m,19,
31,8,473,8,8,10,['k'],['k'],Y,Y,['space'],Y,,,,,,,m,19,
31,9,474,9,9,10,['k'],['k'],Y,Y,['space'],Y,,,,,,,m,19,
31,10,475,8,8,10,['k'],['k'],Y,N,None,Y,,,,,,,m,19,
31,11,476,9,9,10,['d'],['d'],Y,N,None,Y,,,,,,,m,19,
31,12,477,1,1,10,['d'],['d'],Y,Y,['space'],Y,,,,,,,m,19,
31,13,478,9,9,10,['k'],['k'],Y,Y,['space'],Y,,,,,,,m,19,
31,14,479,7,7,10,['k'],['k'],Y,Y,['space'],Y,,,,,,,m,19,
32,0,480,4,4,10,['k'],['k'],Y,Y,None,N,,,,,,,m,19,
32,1,481,3,3,10,['d'],['d'],Y,N,None,Y,,,,,,,m,19,
32,2,482,7,7,10,['k'],['k'],Y,N,None,Y,,,,,,,m,19,
32,3,483,4,4,10,['k'],['k'],Y,N,None,Y,,,,,,,m,19,
32,4,484,2,2,10,['d'],['d'],Y,Y,None,N,,,,,,,m,19,
32,5,485,6,6,10,['k'],['d'],N,Y,['space'],Y,,,,,,,m,19,
32,6,486,14,14,10,['d'],['d'],Y,Y,['space'],Y,,,,,,,m,19,
32,7,487,11,11,10,['d'],['d'],Y,Y,['space'],Y,,,,,,,m,19,
32,8,488,5,5,10,['d'],['d'],Y,Y,['space'],Y,,,,,,,m,19,
32,9,489,4,4,10,['k'],['k'],Y,N,None,Y,,,,,,,m,19,
32,10,490,9,9,10,['d'],['d'],Y,N,None,Y,,,,,,,m,19,
32,11,491,2,2,10,['k'],['k'],Y,N,None,Y,,,,,,,m,19,
32,12,492,0,0,10,['d'],['d'],Y,Y,['space'],Y,,,,,,,m,19,
32,13,493,7,7,10,['d'],['d'],Y,N,['space'],N,,,,,,,m,19,
32,14,494,8,8,10,['k'],['k'],Y,N,None,Y,,,,,,,m,19,
33,0,495,5,5,10,['k'],['k'],Y,N,None,Y,,,,,,,m,19,
33,1,496,1,1,10,['k'],['k'],Y,N,None,Y,,,,,,,m,19,
33,2,497,10,10,10,['k'],['k'],Y,N,None,Y,,,,,,,m,19,
33,3,498,3,3,10,['k'],['k'],Y,N,None,Y,,,,,,,m,19,
33,4,499,3,3,10,['d'],['d'],Y,N,None,Y,48,42,25,,,,m,19,
33,5,500,13,13,11,['k'],['k'],N,,,,,,,Y,Y,Y,m,19,
33,6,501,5,5,11,['k'],['d'],Y,,,,,,,,Y,Y,m,19,
33,7,502,10,10,11,['k'],['d'],Y,Y,['space'],Y,,,,,Y,Y,m,19,
33,8,503,13,13,11,['k'],['d'],Y,Y,['space'],Y,,,,,Y,Y,m,19,
33,9,504,8,8,11,['d'],['k'],Y,N,None,Y,,,,,Y,Y,m,19,
33,10,505,4,4,11,['k'],['d'],Y,N,None,Y,,,,,Y,Y,m,19,
33,11,506,6,6,11,['k'],['d'],Y,Y,['space'],Y,,,,,Y,Y,m,19,
33,12,507,1,1,11,['k'],['d'],Y,N,None,Y,,,,,Y,Y,m,19,
33,13,508,14,14,11,['k'],['d'],Y,Y,None,N,,,,,Y,Y,m,19,
33,14,509,0,0,11,['d'],['k'],Y,Y,['space'],Y,,,,,Y,Y,m,19,
34,0,510,13,13,11,['k'],['d'],Y,N,None,Y,,,,,Y,Y,m,19,
34,1,511,5,5,11,['d'],['k'],Y,N,None,Y,,,,,Y,Y,m,19,
34,2,512,9,9,11,['k'],['k'],N,Y,['space'],Y,,,,,Y,Y,m,19,
34,3,513,1,1,11,['d'],['k'],Y,Y,['space'],Y,,,,,Y,Y,m,19,
34,4,514,10,10,11,['k'],['d'],Y,N,None,Y,,,,,Y,Y,m,19,
34,5,515,9,9,11,['k'],['d'],Y,N,None,Y,,,,,Y,Y,m,19,
34,6,516,9,9,11,['d'],['k'],Y,Y,['space'],Y,,,,,Y,Y,m,19,
34,7,517,8,8,11,['d'],['k'],Y,N,None,Y,,,,,Y,Y,m,19,
34,8,518,10,10,11,['d'],['k'],Y,Y,['space'],Y,,,,,Y,Y,m,19,
34,9,519,12,12,11,['k'],['d'],Y,N,None,Y,,,,,Y,Y,m,19,
34,10,520,14,14,11,['k'],['d'],Y,Y,['space'],Y,,,,,Y,Y,m,19,
34,11,521,13,13,11,['k'],['d'],Y,Y,['space'],Y,,,,,Y,Y,m,19,
34,12,522,11,11,11,['k'],['d'],Y,N,None,Y,,,,,Y,Y,m,19,
34,13,523,7,7,11,['d'],['k'],Y,Y,['space'],Y,,,,,Y,Y,m,19,
34,14,524,11,11,11,['k'],['d'],Y,Y,['space'],Y,,,,,Y,Y,m,19,
35,0,525,0,0,11,['k'],['d'],Y,Y,['space'],Y,,,,,Y,Y,m,19,
35,1,526,12,12,11,['d'],['k'],Y,Y,['space'],Y,,,,,Y,Y,m,19,
35,2,527,11,11,11,['d'],['k'],Y,Y,['space'],Y,,,,,Y,Y,m,19,
35,3,528,5,5,11,['d'],['k'],Y,Y,['space'],Y,,,,,Y,Y,m,19,
35,4,529,8,8,11,['d'],['k'],Y,Y,['space'],Y,,,,,Y,Y,m,19,
35,5,530,7,7,11,['d'],['k'],Y,N,None,Y,,,,,Y,Y,m,19,
35,6,531,11,11,11,['k'],['d'],Y,N,None,Y,,,,,Y,Y,m,19,
35,7,532,11,11,11,['k'],['d'],Y,Y,['space'],Y,,,,,Y,Y,m,19,
35,8,533,4,4,11,['d'],['k'],Y,N,None,Y,,,,,Y,Y,m,19,
35,9,534,7,7,11,['k'],['d'],Y,N,None,Y,,,,,Y,Y,m,19,
35,10,535,12,12,11,['d'],['k'],Y,N,None,Y,,,,,Y,Y,m,19,
35,11,536,7,7,11,['k'],['d'],Y,N,None,Y,,,,,Y,Y,m,19,
35,12,537,12,12,11,['d'],['k'],Y,Y,['space'],Y,,,,,Y,Y,m,19,
35,13,538,4,4,11,['k'],['d'],Y,Y,['space'],Y,,,,,Y,Y,m,19,
35,14,539,6,6,11,['d'],['d'],N,Y,['space'],Y,,,,,Y,Y,m,19,
36,0,540,4,4,11,['k'],['d'],Y,N,None,Y,,,,,Y,Y,m,19,
36,1,541,10,10,11,['k'],['d'],Y,N,None,Y,,,,,Y,Y,m,19,
36,2,542,3,3,11,['d'],['k'],Y,Y,['space'],Y,,,,,Y,Y,m,19,
36,3,543,12,12,11,['d'],['k'],Y,N,None,Y,,,,,Y,Y,m,19,
36,4,544,11,11,11,['k'],['d'],Y,N,None,Y,,,,,Y,Y,m,19,
36,5,545,4,4,11,['k'],['d'],Y,Y,['space'],Y,,,,,Y,Y,m,19,
36,6,546,3,3,11,['d'],['k'],Y,N,None,Y,,,,,Y,Y,m,19,
36,7,547,5,5,11,['k'],['k'],N,N,None,Y,,,,,Y,Y,m,19,
36,8,548,11,11,11,['k'],['d'],Y,Y,['space'],Y,,,,,Y,Y,m,19,
36,9,549,9,9,11,['k'],['d'],Y,N,None,Y,46,47,25,,Y,Y,m,19,
36,10,550,9,9,12,['k'],['d'],Y,,,,,,,,Y,Y,m,19,
36,11,551,11,11,12,['d'],['k'],Y,,,,,,,,Y,Y,m,19,
36,12,552,14,14,12,['k'],['d'],Y,Y,['space'],Y,,,,,Y,Y,m,19,
36,13,553,2,2,12,['k'],['d'],Y,Y,['space'],Y,,,,,Y,Y,m,19,
36,14,554,6,6,12,['k'],['d'],Y,Y,['space'],Y,,,,,Y,Y,m,19,
37,0,555,3,3,12,['d'],['k'],Y,N,None,Y,,,,,Y,Y,m,19,
37,1,556,3,3,12,['d'],['k'],Y,N,None,Y,,,,,Y,Y,m,19,
37,2,557,14,14,12,['k'],['d'],Y,N,None,Y,,,,,Y,Y,m,19,
37,3,558,4,4,12,['k'],['d'],Y,Y,['space'],Y,,,,,Y,Y,m,19,
37,4,559,6,6,12,['d'],['k'],Y,N,None,Y,,,,,Y,Y,m,19,
37,5,560,13,13,12,['k'],['d'],Y,N,None,Y,,,,,Y,Y,m,19,
37,6,561,7,7,12,['k'],['d'],Y,Y,['space'],Y,,,,,Y,Y,m,19,
37,7,562,11,11,12,['k'],['d'],Y,N,None,Y,,,,,Y,Y,m,19,
37,8,563,4,4,12,['d'],['k'],Y,N,['space'],N,,,,,Y,Y,m,19,
37,9,564,7,7,12,['k'],['d'],Y,Y,['space'],Y,,,,,Y,Y,m,19,
37,10,565,4,4,12,['d'],['k'],Y,N,None,Y,,,,,Y,Y,m,19,
37,11,566,10,10,12,['d'],['k'],Y,Y,['space'],Y,,,,,Y,Y,m,19,
37,12,567,5,5,12,['d'],['k'],Y,N,None,Y,,,,,Y,Y,m,19,
37,13,568,0,0,12,['d'],['k'],Y,Y,None,N,,,,,Y,Y,m,19,
37,14,569,10,10,12,['k'],['d'],Y,Y,['space'],Y,,,,,Y,Y,m,19,
38,0,570,5,5,12,['d'],['k'],Y,N,['space'],N,,,,,Y,Y,m,19,
38,1,571,10,10,12,['d'],['k'],Y,Y,['space'],Y,,,,,Y,Y,m,19,
38,2,572,11,11,12,['d'],['k'],Y,N,None,Y,,,,,Y,Y,m,19,
38,3,573,1,1,12,['k'],['d'],Y,N,None,Y,,,,,Y,Y,m,19,
38,4,574,2,2,12,['k'],['d'],Y,N,None,Y,,,,,Y,Y,m,19,
38,5,575,2,2,12,['k'],['d'],Y,N,None,Y,,,,,Y,Y,m,19,
38,6,576,2,2,12,['d'],['k'],Y,N,None,Y,,,,,Y,Y,m,19,
38,7,577,3,3,12,['d'],['k'],Y,N,None,Y,,,,,Y,Y,m,19,
38,8,578,7,7,12,['d'],['k'],Y,Y,['space'],Y,,,,,Y,Y,m,19,
38,9,579,9,9,12,['k'],['d'],Y,Y,['space'],Y,,,,,Y,Y,m,19,
38,10,580,0,0,12,['d'],['k'],Y,N,None,Y,,,,,Y,Y,m,19,
38,11,581,8,8,12,['d'],['k'],Y,Y,['space'],Y,,,,,Y,Y,m,19,
38,12,582,6,6,12,['k'],['d'],Y,N,None,Y,,,,,Y,Y,m,19,
38,13,583,10,10,12,['d'],['k'],Y,N,None,Y,,,,,Y,Y,m,19,
38,14,584,4,4,12,['d'],['k'],Y,N,None,Y,,,,,Y,Y,m,19,
39,0,585,4,4,12,['d'],['k'],Y,N,None,Y,,,,,Y,Y,m,19,
39,1,586,14,14,12,['d'],['k'],Y,Y,['space'],Y,,,,,Y,Y,m,19,
39,2,587,5,5,12,['k'],['d'],Y,Y,['space'],Y,,,,,Y,Y,m,19,
39,3,588,0,0,12,['k'],['d'],Y,Y,['space'],Y,,,,,Y,Y,m,19,
39,4,589,12,12,12,['k'],['d'],Y,N,None,Y,,,,,Y,Y,m,19,
39,5,590,14,14,12,['k'],['d'],Y,N,None,Y,,,,,Y,Y,m,19,
39,6,591,5,5,12,['d'],['d'],N,Y,['space'],Y,,,,,Y,Y,m,19,
39,7,592,3,3,12,['d'],['k'],Y,Y,['space'],Y,,,,,Y,Y,m,19,
39,8,593,13,13,12,['k'],['d'],Y,Y,['space'],Y,,,,,Y,Y,m,19,
39,9,594,13,13,12,['d'],['k'],Y,Y,['space'],Y,,,,,Y,Y,m,19,
39,10,595,8,8,12,['d'],['k'],Y,Y,['space'],Y,,,,,Y,Y,m,19,
39,11,596,6,6,12,['d'],['k'],Y,Y,['space'],Y,,,,,Y,Y,m,19,
39,12,597,11,11,12,['k'],['d'],Y,Y,['space'],Y,,,,,Y,Y,m,19,
39,13,598,12,12,12,['k'],['d'],Y,N,None,Y,,,,,Y,Y,m,19,
39,14,599,1,1,12,['k'],['d'],Y,Y,['space'],Y,49,45,24,,Y,Y,m,19,
