.thisRepN,.thisTrialN,.thisN,.thisIndex,.thisTrial,Block Number,Key pressed,Category,Correct?,Int Match?,Int Response,Int Correct?,Line Accuracy,Interference Accuracy,Matching Interferences,New instruction shown?,Buttons switched?,Fast?,gender,age,
0,0,0,5,5,1,['d'],['k'],N,,,,,,,,,,female,18,
0,1,1,6,6,1,['d'],['d'],Y,,,,,,,,,,female,18,
0,2,2,10,10,1,['k'],['d'],N,N,None,Y,,,,,,,female,18,
0,3,3,2,2,1,['d'],['d'],Y,Y,['space'],Y,,,,,,,female,18,
0,4,4,4,4,1,['d'],['k'],N,Y,['space'],Y,,,,,,,female,18,
0,5,5,5,5,1,['k'],['k'],Y,Y,['space'],Y,,,,,,,female,18,
0,6,6,5,5,1,['d'],['d'],Y,Y,['space'],Y,,,,,,,female,18,
0,7,7,0,0,1,['k'],['d'],N,Y,['space'],Y,,,,,,,female,18,
0,8,8,1,1,1,['d'],['k'],N,N,['space'],N,,,,,,,female,18,
0,9,9,7,7,1,['k'],['k'],Y,N,None,Y,,,,,,,female,18,
0,10,10,5,5,1,['d'],['k'],N,N,['space'],N,,,,,,,female,18,
1,0,11,10,10,1,['k'],['k'],Y,Y,None,N,,,,,,,female,18,
1,1,12,6,6,1,['d'],['d'],Y,N,None,Y,,,,,,,female,18,
1,2,13,0,0,1,['k'],['d'],N,N,None,Y,,,,,,,female,18,
1,3,14,3,3,1,['k'],['k'],Y,N,None,Y,,,,,,,female,18,
1,4,15,8,8,1,['d'],['d'],Y,N,None,Y,,,,,,,female,18,
1,5,16,0,0,1,['d'],['d'],Y,N,['space'],N,,,,,,,female,18,
1,6,17,1,1,1,['k'],['k'],Y,N,None,Y,,,,,,,female,18,
1,7,18,9,9,1,['d'],['k'],N,Y,None,N,,,,,,,female,18,
1,8,19,2,2,1,['k'],['d'],N,Y,None,N,,,,,,,female,18,
1,9,20,9,9,1,['d'],['d'],Y,N,None,Y,,,,,,,female,18,
1,10,21,8,8,1,['d'],['d'],Y,Y,['space'],Y,,,,,,,female,18,
2,0,22,8,8,1,['k'],['d'],N,Y,['space'],Y,,,,,,,female,18,
2,1,23,8,8,1,['k'],['k'],Y,Y,['space'],Y,,,,,,,female,18,
2,2,24,2,2,1,['d'],['d'],Y,N,None,Y,,,,,,,female,18,
2,3,25,10,10,1,['d'],['d'],Y,N,['space'],N,,,,,,,female,18,
2,4,26,10,10,1,['k'],['d'],N,N,None,Y,,,,,,,female,18,
2,5,27,4,4,1,['d'],['k'],N,Y,['space'],Y,,,,,,,female,18,
2,6,28,3,3,1,['k'],['d'],N,Y,['space'],Y,,,,,,,female,18,
2,7,29,10,10,1,['d'],['d'],Y,N,None,Y,,,,,,,female,18,
2,8,30,1,1,1,['k'],['k'],Y,Y,['space'],Y,,,,,,,female,18,
2,9,31,1,1,1,['k'],['k'],Y,N,None,Y,,,,,,,female,18,
2,10,32,3,3,1,['k'],['d'],N,N,None,Y,,,,,,,female,18,
3,0,33,1,1,1,['k'],['k'],Y,N,None,Y,,,,,,,female,18,
3,1,34,4,4,1,['d'],['k'],N,Y,None,N,,,,,,,female,18,
3,2,35,7,7,1,['d'],['k'],N,N,None,Y,,,,,,,female,18,
3,3,36,7,7,1,['k'],['k'],Y,N,['space'],N,,,,,,,female,18,
3,4,37,1,1,1,['d'],['d'],Y,N,None,Y,,,,,,,female,18,
3,5,38,6,6,1,['k'],['k'],Y,N,None,Y,,,,,,,female,18,
3,6,39,1,1,1,['d'],['d'],Y,Y,['space'],Y,,,,,,,female,18,
3,7,40,5,5,1,['k'],['d'],N,N,None,Y,,,,,,,female,18,
3,8,41,2,2,1,['d'],['d'],Y,N,['space'],N,,,,,,,female,18,
3,9,42,4,4,1,['k'],['d'],N,N,None,Y,,,,,,,female,18,
3,10,43,10,10,1,['k'],['k'],Y,Y,['space'],Y,,,,,,,female,18,
4,0,44,7,7,1,['d'],['k'],N,N,['space'],N,,,,,,,female,18,
4,1,45,3,3,1,['d'],['d'],Y,Y,['space'],Y,,,,,,,female,18,
4,2,46,0,0,1,['d'],['k'],N,Y,None,N,,,,,,,female,18,
4,3,47,7,7,1,['k'],['k'],Y,Y,None,N,,,,,,,female,18,
4,4,48,2,2,1,['k'],['k'],Y,N,None,Y,,,,,,,female,18,
4,5,49,3,3,1,['d'],['d'],Y,N,None,Y,30,35,20,,,,female,18,
4,6,50,6,6,2,['k'],['k'],Y,,,,,,,,,,female,18,
4,7,51,9,9,2,['d'],['d'],Y,,,,,,,,,,female,18,
4,8,52,6,6,2,['d'],['d'],Y,Y,['space'],Y,,,,,,,female,18,
4,9,53,1,1,2,['k'],['d'],N,Y,['space'],Y,,,,,,,female,18,
4,10,54,8,8,2,['d'],['k'],N,N,None,Y,,,,,,,female,18,
5,0,55,8,8,2,['k'],['d'],N,N,['space'],N,,,,,,,female,18,
5,1,56,2,2,2,['k'],['k'],Y,Y,['space'],Y,,,,,,,female,18,
5,2,57,6,6,2,['k'],['d'],N,Y,['space'],Y,,,,,,,female,18,
5,3,58,6,6,2,['k'],['k'],Y,N,None,Y,,,,,,,female,18,
5,4,59,2,2,2,['d'],['k'],N,N,None,Y,,,,,,,female,18,
5,5,60,10,10,2,['k'],['k'],Y,Y,['space'],Y,,,,,,,female,18,
5,6,61,7,7,2,['d'],['k'],N,N,None,Y,,,,,,,female,18,
5,7,62,1,1,2,['k'],['d'],N,N,None,Y,,,,,,,female,18,
5,8,63,4,4,2,['k'],['k'],Y,N,None,Y,,,,,,,female,18,
5,9,64,5,5,2,['d'],['d'],Y,Y,['space'],Y,,,,,,,female,18,
5,10,65,7,7,2,['d'],['d'],Y,N,['space'],N,,,,,,,female,18,
6,0,66,7,7,2,['d'],['k'],N,N,['space'],N,,,,,,,female,18,
6,1,67,0,0,2,['d'],['k'],N,Y,['space'],Y,,,,,,,female,18,
6,2,68,8,8,2,['k'],['k'],Y,Y,['space'],Y,,,,,,,female,18,
6,3,69,5,5,2,['k'],['k'],Y,Y,['space'],Y,,,,,,,female,18,
6,4,70,9,9,2,['d'],['k'],N,Y,['space'],Y,,,,,,,female,18,
6,5,71,9,9,2,['d'],['d'],Y,N,None,Y,,,,,,,female,18,
6,6,72,3,3,2,['d'],['k'],N,N,None,Y,,,,,,,female,18,
6,7,73,10,10,2,['k'],['d'],N,Y,['space'],Y,,,,,,,female,18,
6,8,74,8,8,2,['k'],['d'],N,Y,['space'],Y,,,,,,,female,18,
6,9,75,2,2,2,['d'],['d'],Y,Y,None,N,,,,,,,female,18,
6,10,76,7,7,2,['k'],['k'],Y,N,['space'],N,,,,,,,female,18,
7,0,77,4,4,2,['d'],['d'],Y,N,None,Y,,,,,,,female,18,
7,1,78,9,9,2,['d'],['d'],Y,Y,None,N,,,,,,,female,18,
7,2,79,4,4,2,['d'],['k'],N,Y,['space'],Y,,,,,,,female,18,
7,3,80,1,1,2,['k'],['d'],N,N,None,Y,,,,,,,female,18,
7,4,81,2,2,2,['k'],['d'],N,Y,None,N,,,,,,,female,18,
7,5,82,7,7,2,['d'],['d'],Y,N,None,Y,,,,,,,female,18,
7,6,83,8,8,2,['k'],['k'],Y,Y,None,N,,,,,,,female,18,
7,7,84,7,7,2,['k'],['d'],N,N,None,Y,,,,,,,female,18,
7,8,85,4,4,2,['k'],['k'],Y,N,None,Y,,,,,,,female,18,
7,9,86,9,9,2,['d'],['k'],N,Y,['space'],Y,,,,,,,female,18,
7,10,87,2,2,2,['d'],['k'],N,Y,['space'],Y,,,,,,,female,18,
8,0,88,6,6,2,['k'],['d'],N,Y,None,N,,,,,,,female,18,
8,1,89,8,8,2,['d'],['k'],N,Y,['space'],Y,,,,,,,female,18,
8,2,90,0,0,2,['k'],['d'],N,N,['space'],N,,,,,,,female,18,
8,3,91,9,9,2,['d'],['k'],N,Y,['space'],Y,,,,,,,female,18,
8,4,92,10,10,2,['k'],['d'],N,Y,['space'],Y,,,,,,,female,18,
8,5,93,10,10,2,['d'],['d'],Y,Y,['space'],Y,,,,,,,female,18,
8,6,94,7,7,2,['d'],['k'],N,N,None,Y,,,,,,,female,18,
8,7,95,1,1,2,['d'],['k'],N,Y,['space'],Y,,,,,,,female,18,
8,8,96,3,3,2,['d'],['d'],Y,N,None,Y,,,,,,,female,18,
8,9,97,5,5,2,['d'],['k'],N,N,None,Y,,,,,,,female,18,
8,10,98,2,2,2,['k'],['k'],Y,N,None,Y,,,,,,,female,18,
9,0,99,4,4,2,['d'],['k'],N,N,None,Y,22,38,25,,,,female,18,
9,1,100,7,7,3,['d'],['k'],N,,,,,,,,,,female,18,
9,2,101,9,9,3,['d'],['d'],Y,,,,,,,,,,female,18,
9,3,102,10,10,3,['d'],['k'],N,Y,['space'],Y,,,,,,,female,18,
9,4,103,1,1,3,['d'],['k'],N,N,None,Y,,,,,,,female,18,
9,5,104,3,3,3,['d'],['d'],Y,Y,['space'],Y,,,,,,,female,18,
9,6,105,2,2,3,['d'],['d'],Y,N,None,Y,,,,,,,female,18,
9,7,106,5,5,3,['k'],['d'],N,Y,['space'],Y,,,,,,,female,18,
9,8,107,5,5,3,['d'],['k'],N,N,['space'],N,,,,,,,female,18,
9,9,108,2,2,3,['d'],['d'],Y,N,None,Y,,,,,,,female,18,
9,10,109,1,1,3,['d'],['d'],Y,Y,None,N,,,,,,,female,18,
10,0,110,3,3,3,['k'],['d'],N,Y,['space'],Y,,,,,,,female,18,
10,1,111,6,6,3,['d'],['k'],N,Y,['space'],Y,,,,,,,female,18,
10,2,112,2,2,3,['d'],['d'],Y,N,None,Y,,,,,,,female,18,
10,3,113,1,1,3,['k'],['d'],N,Y,None,N,,,,,,,female,18,
10,4,114,8,8,3,['k'],['d'],N,N,None,Y,,,,,,,female,18,
10,5,115,9,9,3,['d'],['d'],Y,Y,['space'],Y,,,,,,,female,18,
10,6,116,9,9,3,['d'],['k'],N,Y,None,N,,,,,,,female,18,
10,7,117,0,0,3,['d'],['d'],Y,Y,['space'],Y,,,,,,,female,18,
10,8,118,4,4,3,['k'],['d'],N,Y,None,N,,,,,,,female,18,
10,9,119,2,2,3,['k'],['d'],N,N,None,Y,,,,,,,female,18,
10,10,120,3,3,3,['d'],['k'],N,Y,['space'],Y,,,,,,,female,18,
11,0,121,7,7,3,['d'],['d'],Y,N,None,Y,,,,,,,female,18,
11,1,122,2,2,3,['k'],['d'],N,Y,None,N,,,,,,,female,18,
11,2,123,10,10,3,['d'],['k'],N,Y,['space'],Y,,,,,,,female,18,
11,3,124,4,4,3,['k'],['d'],N,Y,['space'],Y,,,,,,,female,18,
11,4,125,3,3,3,['d'],['k'],N,N,None,Y,,,,,,,female,18,
11,5,126,3,3,3,['k'],['k'],Y,N,['space'],N,,,,,,,female,18,
11,6,127,8,8,3,['k'],['d'],N,Y,None,N,,,,,,,female,18,
11,7,128,3,3,3,['d'],['k'],N,Y,None,N,,,,,,,female,18,
11,8,129,0,0,3,['d'],['k'],N,Y,['space'],Y,,,,,,,female,18,
11,9,130,2,2,3,['k'],['k'],Y,Y,['space'],Y,,,,,,,female,18,
11,10,131,3,3,3,['d'],['k'],N,N,None,Y,,,,,,,female,18,
12,0,132,4,4,3,['d'],['k'],N,N,None,Y,,,,,,,female,18,
12,1,133,0,0,3,['k'],['k'],Y,N,None,Y,,,,,,,female,18,
12,2,134,2,2,3,['d'],['d'],Y,N,['space'],N,,,,,,,female,18,
12,3,135,5,5,3,['d'],['k'],N,Y,['space'],Y,,,,,,,female,18,
12,4,136,6,6,3,['d'],['k'],N,Y,None,N,,,,,,,female,18,
12,5,137,10,10,3,['k'],['d'],N,Y,None,N,,,,,,,female,18,
12,6,138,2,2,3,['d'],['d'],Y,N,None,Y,,,,,,,female,18,
12,7,139,6,6,3,['k'],['d'],N,Y,None,N,,,,,,,female,18,
12,8,140,9,9,3,['d'],['k'],N,Y,['d'],N,,,,,,,female,18,
12,9,141,6,6,3,['d'],['d'],Y,Y,['space'],Y,,,,,,,female,18,
12,10,142,5,5,3,['k'],['k'],Y,N,None,Y,,,,,,,female,18,
13,0,143,2,2,3,['d'],['k'],N,N,None,Y,,,,,,,female,18,
13,1,144,1,1,3,['d'],['d'],Y,N,None,Y,,,,,,,female,18,
13,2,145,5,5,3,['k'],['d'],N,N,['space'],N,,,,,,,female,18,
13,3,146,6,6,3,['d'],['d'],Y,N,None,Y,,,,,,,female,18,
13,4,147,6,6,3,['k'],['k'],Y,N,['space'],N,,,,,,,female,18,
13,5,148,1,1,3,['d'],['k'],N,N,None,Y,,,,,,,female,18,
13,6,149,9,9,3,['d'],['k'],N,N,None,Y,19,32,25,,,,female,18,
13,7,150,2,2,4,['d'],['k'],N,,,,,,,,,,female,18,
13,8,151,7,7,4,['d'],['d'],Y,,,,,,,,,,female,18,
13,9,152,4,4,4,['d'],['k'],N,N,None,Y,,,,,,,female,18,
13,10,153,5,5,4,['d'],['k'],N,Y,None,N,,,,,,,female,18,
14,0,154,0,0,4,['d'],['k'],N,Y,['space'],Y,,,,,,,female,18,
14,1,155,7,7,4,['k'],['d'],N,N,None,Y,,,,,,,female,18,
14,2,156,3,3,4,['d'],['k'],N,Y,None,N,,,,,,,female,18,
14,3,157,0,0,4,['k'],['d'],N,N,['space'],N,,,,,,,female,18,
14,4,158,10,10,4,['d'],['d'],Y,N,None,Y,,,,,,,female,18,
14,5,159,6,6,4,['d'],['d'],Y,N,None,Y,,,,,,,female,18,
14,6,160,6,6,4,['d'],['d'],Y,N,None,Y,,,,,,,female,18,
14,7,161,4,4,4,['k'],['d'],N,N,None,Y,,,,,,,female,18,
14,8,162,2,2,4,['k'],['d'],N,N,None,Y,,,,,,,female,18,
14,9,163,4,4,4,['d'],['d'],Y,Y,None,N,,,,,,,female,18,
14,10,164,5,5,4,['k'],['k'],Y,N,None,Y,,,,,,,female,18,
15,0,165,6,6,4,['d'],['k'],N,Y,None,N,,,,,,,female,18,
15,1,166,0,0,4,['k'],['d'],N,Y,['space'],Y,,,,,,,female,18,
15,2,167,3,3,4,['d'],['d'],Y,N,None,Y,,,,,,,female,18,
15,3,168,8,8,4,['k'],['d'],N,N,None,Y,,,,,,,female,18,
15,4,169,1,1,4,['d'],['d'],Y,Y,['space'],Y,,,,,,,female,18,
15,5,170,5,5,4,['k'],['d'],N,N,None,Y,,,,,,,female,18,
15,6,171,2,2,4,['d'],['k'],N,N,None,Y,,,,,,,female,18,
15,7,172,3,3,4,['d'],['k'],N,Y,['space'],Y,,,,,,,female,18,
15,8,173,1,1,4,['d'],['d'],Y,Y,None,N,,,,,,,female,18,
15,9,174,7,7,4,['k'],['k'],Y,N,None,Y,,,,,,,female,18,
15,10,175,1,1,4,['d'],['k'],N,N,None,Y,,,,,,,female,18,
16,0,176,7,7,4,['k'],['k'],Y,N,None,Y,,,,,,,female,18,
16,1,177,0,0,4,['d'],['k'],N,N,None,Y,,,,,,,female,18,
16,2,178,8,8,4,['d'],['d'],Y,Y,['space'],Y,,,,,,,female,18,
16,3,179,8,8,4,['k'],['d'],N,N,None,Y,,,,,,,female,18,
16,4,180,5,5,4,['d'],['d'],Y,N,None,Y,,,,,,,female,18,
16,5,181,1,1,4,['d'],['k'],N,N,None,Y,,,,,,,female,18,
16,6,182,4,4,4,['d'],['k'],N,Y,None,N,,,,,,,female,18,
16,7,183,8,8,4,['k'],['d'],N,Y,['space'],Y,,,,,,,female,18,
16,8,184,6,6,4,['k'],['k'],Y,Y,['space'],Y,,,,,,,female,18,
16,9,185,5,5,4,['k'],['k'],Y,Y,None,N,,,,,,,female,18,
16,10,186,6,6,4,['d'],['k'],N,N,None,Y,,,,,,,female,18,
17,0,187,9,9,4,['d'],['d'],Y,Y,None,N,,,,,,,female,18,
17,1,188,9,9,4,['d'],['k'],N,Y,None,N,,,,,,,female,18,
17,2,189,10,10,4,['k'],['d'],N,N,None,Y,,,,,,,female,18,
17,3,190,8,8,4,['d'],['d'],Y,Y,['space'],Y,,,,,,,female,18,
17,4,191,1,1,4,['d'],['k'],N,Y,None,N,,,,,,,female,18,
17,5,192,3,3,4,['d'],['k'],N,Y,['space'],Y,,,,,,,female,18,
17,6,193,6,6,4,['k'],['k'],Y,Y,['space'],Y,,,,,,,female,18,
17,7,194,4,4,4,['d'],['d'],Y,Y,None,N,,,,,,,female,18,
17,8,195,9,9,4,['k'],['k'],Y,N,None,Y,,,,,,,female,18,
17,9,196,7,7,4,['d'],['d'],Y,Y,['space'],Y,,,,,,,female,18,
17,10,197,10,10,4,['k'],['k'],Y,N,None,Y,,,,,,,female,18,
18,0,198,4,4,4,['d'],['d'],Y,N,None,Y,,,,,,,female,18,
18,1,199,3,3,4,['d'],['d'],Y,N,None,Y,24,36,22,,,,female,18,
18,2,200,9,9,5,['k'],['d'],N,,,,,,,,,,female,18,
18,3,201,5,5,5,['d'],['k'],N,,,,,,,,,,female,18,
18,4,202,4,4,5,['k'],['d'],N,Y,None,N,,,,,,,female,18,
18,5,203,6,6,5,['k'],['k'],Y,Y,['space'],Y,,,,,,,female,18,
18,6,204,2,2,5,['d'],['d'],Y,Y,None,N,,,,,,,female,18,
18,7,205,0,0,5,['d'],['k'],N,N,None,Y,,,,,,,female,18,
18,8,206,9,9,5,['d'],['k'],N,Y,['space'],Y,,,,,,,female,18,
18,9,207,0,0,5,['d'],['k'],N,N,None,Y,,,,,,,female,18,
18,10,208,2,2,5,['d'],['k'],N,Y,['space'],Y,,,,,,,female,18,
19,0,209,10,10,5,['k'],['k'],Y,N,None,Y,,,,,,,female,18,
19,1,210,7,7,5,['d'],['d'],Y,N,None,Y,,,,,,,female,18,
19,2,211,4,4,5,['k'],['d'],N,N,['space'],N,,,,,,,female,18,
19,3,212,8,8,5,['k'],['k'],Y,N,None,Y,,,,,,,female,18,
19,4,213,5,5,5,['d'],['d'],Y,N,None,Y,,,,,,,female,18,
19,5,214,8,8,5,['d'],['d'],Y,N,None,Y,,,,,,,female,18,
19,6,215,4,4,5,['d'],['d'],Y,N,None,Y,,,,,,,female,18,
19,7,216,2,2,5,['d'],['k'],N,N,None,Y,,,,,,,female,18,
19,8,217,3,3,5,['d'],['k'],N,N,None,Y,,,,,,,female,18,
19,9,218,8,8,5,['k'],['d'],N,Y,['space'],Y,,,,,,,female,18,
19,10,219,10,10,5,['d'],['d'],Y,N,None,Y,,,,,,,female,18,
20,0,220,0,0,5,['d'],['d'],Y,Y,None,N,,,,,,,female,18,
20,1,221,0,0,5,['k'],['d'],N,Y,None,N,,,,,,,female,18,
20,2,222,6,6,5,['d'],['d'],Y,N,['space'],N,,,,,,,female,18,
20,3,223,2,2,5,['d'],['k'],N,Y,None,N,,,,,,,female,18,
20,4,224,2,2,5,['d'],['k'],N,Y,['space'],Y,,,,,,,female,18,
20,5,225,8,8,5,['k'],['d'],N,Y,None,N,,,,,,,female,18,
20,6,226,5,5,5,['k'],['k'],Y,Y,['space'],Y,,,,,,,female,18,
20,7,227,1,1,5,['d'],['k'],N,Y,['space'],Y,,,,,,,female,18,
20,8,228,0,0,5,['d'],['d'],Y,N,None,Y,,,,,,,female,18,
20,9,229,9,9,5,['d'],['k'],N,N,None,Y,,,,,,,female,18,
20,10,230,0,0,5,['d'],['k'],N,N,None,Y,,,,,,,female,18,
21,0,231,3,3,5,['d'],['d'],Y,N,None,Y,,,,,,,female,18,
21,1,232,0,0,5,['d'],['k'],N,Y,['space'],Y,,,,,,,female,18,
21,2,233,6,6,5,['d'],['d'],Y,Y,['space'],Y,,,,,,,female,18,
21,3,234,6,6,5,['d'],['d'],Y,N,['space'],N,,,,,,,female,18,
21,4,235,10,10,5,['k'],['k'],Y,N,None,Y,,,,,,,female,18,
21,5,236,3,3,5,['d'],['d'],Y,Y,['d'],N,,,,,,,female,18,
21,6,237,8,8,5,['d'],['d'],Y,N,None,Y,,,,,,,female,18,
21,7,238,4,4,5,['d'],['d'],Y,N,None,Y,,,,,,,female,18,
21,8,239,8,8,5,['d'],['d'],Y,N,None,Y,,,,,,,female,18,
21,9,240,1,1,5,['d'],['d'],Y,Y,None,N,,,,,,,female,18,
21,10,241,5,5,5,['k'],['k'],Y,N,None,Y,,,,,,,female,18,
22,0,242,1,1,5,['d'],['d'],Y,N,None,Y,,,,,,,female,18,
22,1,243,3,3,5,['k'],['k'],Y,Y,None,N,,,,,,,female,18,
22,2,244,0,0,5,['d'],['d'],Y,N,None,Y,,,,,,,female,18,
22,3,245,3,3,5,['k'],['d'],N,Y,None,N,,,,,,,female,18,
22,4,246,8,8,5,['d'],['k'],N,Y,None,N,,,,,,,female,18,
22,5,247,10,10,5,['d'],['k'],N,N,['k'],N,,,,,,,female,18,
22,6,248,5,5,5,['k'],['k'],Y,N,None,Y,,,,,,,female,18,
22,7,249,3,3,5,['d'],['k'],N,Y,['space'],Y,27,33,21,,,,female,18,
22,8,250,5,5,6,None,,Timed out,,,,,,,,,,female,18,
22,9,251,10,10,6,None,,Timed out,,,,,,,,,,female,18,
22,10,252,1,1,6,['k'],['k'],Y,Y,None,N,,,,,,,female,18,
23,0,253,3,3,6,['d'],['k'],N,N,None,Y,,,,,,,female,18,
23,1,254,9,9,6,['d'],['k'],N,Y,['space'],Y,,,,,,,female,18,
23,2,255,5,5,6,['d'],['k'],N,Y,None,N,,,,,,,female,18,
23,3,256,1,1,6,['d'],['d'],Y,N,None,Y,,,,,,,female,18,
23,4,257,1,1,6,['d'],['d'],Y,Y,None,N,,,,,,,female,18,
23,5,258,8,8,6,['d'],['d'],Y,Y,['space'],Y,,,,,,,female,18,
23,6,259,6,6,6,['d'],['k'],N,N,['space'],N,,,,,,,female,18,
23,7,260,5,5,6,['d'],['k'],N,N,['space'],N,,,,,,,female,18,
23,8,261,6,6,6,['d'],['d'],Y,N,None,Y,,,,,,,female,18,
23,9,262,1,1,6,['d'],['k'],N,Y,['space'],Y,,,,,,,female,18,
23,10,263,5,5,6,['d'],['d'],Y,Y,['space'],Y,,,,,,,female,18,
24,0,264,7,7,6,['d'],['k'],N,N,None,Y,,,,,,,female,18,
24,1,265,1,1,6,['k'],['d'],N,N,None,Y,,,,,,,female,18,
24,2,266,9,9,6,['k'],['d'],N,N,None,Y,,,,,,,female,18,
24,3,267,0,0,6,['d'],['k'],N,Y,['space'],Y,,,,,,,female,18,
24,4,268,10,10,6,['d'],['d'],Y,N,None,Y,,,,,,,female,18,
24,5,269,0,0,6,['k'],['d'],N,N,['space'],N,,,,,,,female,18,
24,6,270,6,6,6,['k'],['k'],Y,Y,['space'],Y,,,,,,,female,18,
24,7,271,3,3,6,['k'],['k'],Y,N,None,Y,,,,,,,female,18,
24,8,272,5,5,6,['d'],['d'],Y,Y,None,N,,,,,,,female,18,
24,9,273,3,3,6,['k'],['k'],Y,Y,None,N,,,,,,,female,18,
24,10,274,2,2,6,['k'],['k'],Y,N,None,Y,,,,,,,female,18,
25,0,275,9,9,6,['d'],['d'],Y,Y,['space'],Y,,,,,,,female,18,
25,1,276,4,4,6,['k'],['k'],Y,N,None,Y,,,,,,,female,18,
25,2,277,7,7,6,['k'],['k'],Y,Y,None,N,,,,,,,female,18,
25,3,278,6,6,6,['k'],['d'],N,N,None,Y,,,,,,,female,18,
25,4,279,6,6,6,['k'],['d'],N,N,None,Y,,,,,,,female,18,
25,5,280,7,7,6,['d'],['d'],Y,N,None,Y,,,,,,,female,18,
25,6,281,7,7,6,['d'],['d'],Y,N,None,Y,,,,,,,female,18,
25,7,282,5,5,6,['d'],['k'],N,Y,['space'],Y,,,,,,,female,18,
25,8,283,8,8,6,['d'],['k'],N,N,None,Y,,,,,,,female,18,
25,9,284,10,10,6,['k'],['d'],N,N,None,Y,,,,,,,female,18,
25,10,285,8,8,6,['d'],['k'],N,N,None,Y,,,,,,,female,18,
26,0,286,2,2,6,['d'],['k'],N,N,None,Y,,,,,,,female,18,
26,1,287,9,9,6,['k'],['d'],N,Y,None,N,,,,,,,female,18,
26,2,288,10,10,6,['k'],['k'],Y,Y,['space'],Y,,,,,,,female,18,
26,3,289,6,6,6,['d'],['k'],N,Y,['space'],Y,,,,,,,female,18,
26,4,290,9,9,6,['d'],['d'],Y,Y,None,N,,,,,,,female,18,
26,5,291,10,10,6,['k'],['d'],N,Y,['space'],Y,,,,,,,female,18,
26,6,292,5,5,6,['d'],['k'],N,Y,['space'],Y,,,,,,,female,18,
26,7,293,8,8,6,['d'],['k'],N,Y,['space'],Y,,,,,,,female,18,
26,8,294,1,1,6,['d'],['k'],N,Y,['space'],Y,,,,,,,female,18,
26,9,295,3,3,6,['d'],['k'],N,N,['space'],N,,,,,,,female,18,
26,10,296,1,1,6,['d'],['k'],N,Y,['space'],Y,,,,,,,female,18,
27,0,297,8,8,6,['d'],['d'],Y,Y,['space'],Y,,,,,,,female,18,
27,1,298,3,3,6,['d'],['k'],N,Y,['space'],Y,,,,,,,female,18,
27,2,299,9,9,6,['d'],['k'],N,N,['space'],N,20,35,25,,,,female,18,
27,3,300,3,3,7,['d'],['k'],N,,,,,,,,,,female,18,
27,4,301,7,7,7,['d'],['d'],Y,,,,,,,,,,female,18,
27,5,302,1,1,7,['d'],['k'],N,N,['space'],N,,,,,,,female,18,
27,6,303,7,7,7,['d'],['k'],N,Y,None,N,,,,,,,female,18,
27,7,304,5,5,7,['k'],['k'],Y,Y,None,N,,,,,,,female,18,
27,8,305,4,4,7,['k'],['d'],N,N,None,Y,,,,,,,female,18,
27,9,306,1,1,7,['d'],['d'],Y,Y,['space'],Y,,,,,,,female,18,
27,10,307,4,4,7,['k'],['d'],N,Y,['space'],Y,,,,,,,female,18,
28,0,308,6,6,7,['d'],['k'],N,Y,None,N,,,,,,,female,18,
28,1,309,5,5,7,['d'],['d'],Y,N,None,Y,,,,,,,female,18,
28,2,310,1,1,7,['k'],['k'],Y,N,None,Y,,,,,,,female,18,
28,3,311,1,1,7,['d'],['d'],Y,Y,['space'],Y,,,,,,,female,18,
28,4,312,7,7,7,['k'],['d'],N,Y,['space'],Y,,,,,,,female,18,
28,5,313,9,9,7,['d'],['k'],N,Y,['space'],Y,,,,,,,female,18,
28,6,314,6,6,7,['k'],['k'],Y,Y,['space'],Y,,,,,,,female,18,
28,7,315,10,10,7,['d'],['d'],Y,Y,['space'],Y,,,,,,,female,18,
28,8,316,6,6,7,['d'],['k'],N,N,None,Y,,,,,,,female,18,
28,9,317,5,5,7,['k'],['d'],N,N,None,Y,,,,,,,female,18,
28,10,318,8,8,7,['d'],['d'],Y,N,None,Y,,,,,,,female,18,
29,0,319,8,8,7,['d'],['k'],N,Y,['space'],Y,,,,,,,female,18,
29,1,320,0,0,7,['d'],['d'],Y,Y,None,N,,,,,,,female,18,
29,2,321,10,10,7,['d'],['d'],Y,Y,['space'],Y,,,,,,,female,18,
29,3,322,7,7,7,['d'],['k'],N,Y,['space'],Y,,,,,,,female,18,
29,4,323,10,10,7,['d'],['k'],N,Y,None,N,,,,,,,female,18,
29,5,324,0,0,7,['k'],['k'],Y,Y,['space'],Y,,,,,,,female,18,
29,6,325,7,7,7,['k'],['k'],Y,N,None,Y,,,,,,,female,18,
29,7,326,2,2,7,['d'],['d'],Y,N,None,Y,,,,,,,female,18,
29,8,327,7,7,7,['k'],['d'],N,Y,None,N,,,,,,,female,18,
29,9,328,6,6,7,['d'],['k'],N,Y,['space'],Y,,,,,,,female,18,
29,10,329,8,8,7,['d'],['d'],Y,N,None,Y,,,,,,,female,18,
30,0,330,7,7,7,['d'],['k'],N,N,None,Y,,,,,,,female,18,
30,1,331,7,7,7,['k'],['k'],Y,N,['space'],N,,,,,,,female,18,
30,2,332,2,2,7,['d'],['d'],Y,N,None,Y,,,,,,,female,18,
30,3,333,7,7,7,['k'],['k'],Y,Y,['space'],Y,,,,,,,female,18,
30,4,334,0,0,7,['k'],['d'],N,N,None,Y,,,,,,,female,18,
30,5,335,4,4,7,['d'],['d'],Y,N,None,Y,,,,,,,female,18,
30,6,336,6,6,7,['d'],['k'],N,Y,None,N,,,,,,,female,18,
30,7,337,6,6,7,['d'],['d'],Y,Y,None,N,,,,,,,female,18,
30,8,338,9,9,7,['k'],['k'],Y,Y,['space'],Y,,,,,,,female,18,
30,9,339,10,10,7,['d'],['k'],N,N,None,Y,,,,,,,female,18,
30,10,340,6,6,7,['k'],['d'],N,Y,None,N,,,,,,,female,18,
31,0,341,7,7,7,['k'],['d'],N,N,None,Y,,,,,,,female,18,
31,1,342,5,5,7,['d'],['d'],Y,Y,None,N,,,,,,,female,18,
31,2,343,6,6,7,['k'],['k'],Y,Y,None,N,,,,,,,female,18,
31,3,344,5,5,7,['d'],['d'],Y,N,None,Y,,,,,,,female,18,
31,4,345,8,8,7,['d'],['k'],N,N,None,Y,,,,,,,female,18,
31,5,346,8,8,7,['d'],['d'],Y,N,None,Y,,,,,,,female,18,
31,6,347,8,8,7,['k'],['k'],Y,N,None,Y,,,,,,,female,18,
31,7,348,1,1,7,['k'],['d'],N,N,None,Y,,,,,,,female,18,
31,8,349,6,6,7,['d'],['d'],Y,N,None,Y,27,35,25,,,,female,18,
31,9,350,0,0,8,['k'],['d'],N,,,,,,,,,,female,18,
31,10,351,1,1,8,['k'],['d'],N,,,,,,,,,,female,18,
32,0,352,6,6,8,['d'],['d'],Y,Y,['space'],Y,,,,,,,female,18,
32,1,353,7,7,8,['k'],['k'],Y,N,['space'],N,,,,,,,female,18,
32,2,354,7,7,8,['d'],['k'],N,N,None,Y,,,,,,,female,18,
32,3,355,3,3,8,['d'],['k'],N,N,None,Y,,,,,,,female,18,
32,4,356,8,8,8,['k'],['k'],Y,N,None,Y,,,,,,,female,18,
32,5,357,0,0,8,['d'],['d'],Y,N,None,Y,,,,,,,female,18,
32,6,358,0,0,8,['k'],['d'],N,Y,['space'],Y,,,,,,,female,18,
32,7,359,9,9,8,['d'],['k'],N,Y,['space'],Y,,,,,,,female,18,
32,8,360,9,9,8,['d'],['d'],Y,Y,['space'],Y,,,,,,,female,18,
32,9,361,4,4,8,['k'],['d'],N,Y,['space'],Y,,,,,,,female,18,
32,10,362,2,2,8,['d'],['d'],Y,Y,['space'],Y,,,,,,,female,18,
33,0,363,3,3,8,['k'],['d'],N,Y,['space'],Y,,,,,,,female,18,
33,1,364,3,3,8,['d'],['k'],N,N,None,Y,,,,,,,female,18,
33,2,365,7,7,8,['d'],['k'],N,Y,['space'],Y,,,,,,,female,18,
33,3,366,7,7,8,['d'],['k'],N,Y,None,N,,,,,,,female,18,
33,4,367,6,6,8,['d'],['d'],Y,Y,['space'],Y,,,,,,,female,18,
33,5,368,2,2,8,['k'],['d'],N,N,None,Y,,,,,,,female,18,
33,6,369,4,4,8,['d'],['k'],N,N,None,Y,,,,,,,female,18,
33,7,370,1,1,8,['k'],['d'],N,Y,['space'],Y,,,,,,,female,18,
33,8,371,3,3,8,['d'],['k'],N,N,['space'],N,,,,,,,female,18,
33,9,372,5,5,8,['d'],['d'],Y,Y,None,N,,,,,,,female,18,
33,10,373,6,6,8,['k'],['k'],Y,N,['space'],N,,,,,,,female,18,
34,0,374,3,3,8,['d'],['k'],N,N,['space'],N,,,,,,,female,18,
34,1,375,10,10,8,['k'],['d'],N,Y,['space'],Y,,,,,,,female,18,
34,2,376,3,3,8,['d'],['d'],Y,Y,['space'],Y,,,,,,,female,18,
34,3,377,7,7,8,['k'],['d'],N,Y,None,N,,,,,,,female,18,
34,4,378,3,3,8,['d'],['d'],Y,N,None,Y,,,,,,,female,18,
34,5,379,10,10,8,['d'],['d'],Y,N,None,Y,,,,,,,female,18,
34,6,380,0,0,8,['d'],['k'],N,Y,['space'],Y,,,,,,,female,18,
34,7,381,2,2,8,['d'],['k'],N,Y,['space'],Y,,,,,,,female,18,
34,8,382,4,4,8,['k'],['k'],Y,N,None,Y,,,,,,,female,18,
34,9,383,9,9,8,['k'],['d'],N,Y,None,N,,,,,,,female,18,
34,10,384,5,5,8,['d'],['k'],N,N,None,Y,,,,,,,female,18,
35,0,385,9,9,8,['d'],['d'],Y,N,None,Y,,,,,,,female,18,
35,1,386,8,8,8,['k'],['k'],Y,Y,None,N,,,,,,,female,18,
35,2,387,5,5,8,['d'],['k'],N,Y,['space'],Y,,,,,,,female,18,
35,3,388,2,2,8,['d'],['d'],Y,N,None,Y,,,,,,,female,18,
35,4,389,4,4,8,['d'],['k'],N,Y,['space'],Y,,,,,,,female,18,
35,5,390,5,5,8,['k'],['k'],Y,Y,['space'],Y,,,,,,,female,18,
35,6,391,10,10,8,['d'],['d'],Y,N,['space'],N,,,,,,,female,18,
35,7,392,9,9,8,['k'],['k'],Y,N,['space'],N,,,,,,,female,18,
35,8,393,2,2,8,['d'],['d'],Y,Y,None,N,,,,,,,female,18,
35,9,394,4,4,8,['k'],['k'],Y,N,None,Y,,,,,,,female,18,
35,10,395,2,2,8,['d'],['k'],N,N,None,Y,,,,,,,female,18,
36,0,396,0,0,8,['k'],['d'],N,N,None,Y,,,,,,,female,18,
36,1,397,10,10,8,['k'],['k'],Y,Y,None,N,,,,,,,female,18,
36,2,398,1,1,8,['d'],['d'],Y,N,['space'],N,,,,,,,female,18,
36,3,399,5,5,8,['k'],['d'],N,N,None,Y,23,34,24,,,,female,18,
36,4,400,1,1,9,['d'],['d'],Y,,,,,,,,,,female,18,
36,5,401,1,1,9,['k'],['d'],N,,,,,,,,,,female,18,
36,6,402,1,1,9,['d'],['k'],N,N,None,Y,,,,,,,female,18,
36,7,403,1,1,9,['d'],['d'],Y,Y,['space'],Y,,,,,,,female,18,
36,8,404,6,6,9,['k'],['d'],N,N,None,Y,,,,,,,female,18,
36,9,405,10,10,9,['d'],['k'],N,Y,None,N,,,,,,,female,18,
36,10,406,10,10,9,['d'],['k'],N,Y,['space'],Y,,,,,,,female,18,
37,0,407,8,8,9,['k'],['k'],Y,N,None,Y,,,,,,,female,18,
37,1,408,3,3,9,['d'],['k'],N,N,None,Y,,,,,,,female,18,
37,2,409,8,8,9,['d'],['d'],Y,Y,None,N,,,,,,,female,18,
37,3,410,6,6,9,['d'],['d'],Y,N,None,Y,,,,,,,female,18,
37,4,411,5,5,9,['d'],['k'],N,Y,None,N,,,,,,,female,18,
37,5,412,9,9,9,['k'],['k'],Y,Y,None,N,,,,,,,female,18,
37,6,413,0,0,9,['d'],['d'],Y,N,None,Y,,,,,,,female,18,
37,7,414,0,0,9,['d'],['k'],N,Y,['space'],Y,,,,,,,female,18,
37,8,415,9,9,9,['k'],['d'],N,N,None,Y,,,,,,,female,18,
37,9,416,9,9,9,['d'],['k'],N,Y,None,N,,,,,,,female,18,
37,10,417,2,2,9,['d'],['d'],Y,N,None,Y,,,,,,,female,18,
38,0,418,9,9,9,['k'],['d'],N,Y,['space'],Y,,,,,,,female,18,
38,1,419,10,10,9,['d'],['d'],Y,Y,None,N,,,,,,,female,18,
38,2,420,4,4,9,['d'],['d'],Y,N,None,Y,,,,,,,female,18,
38,3,421,0,0,9,['d'],['k'],N,N,None,Y,,,,,,,female,18,
38,4,422,10,10,9,['d'],['d'],Y,N,['space'],N,,,,,,,female,18,
38,5,423,1,1,9,['d'],['d'],Y,Y,None,N,,,,,,,female,18,
38,6,424,10,10,9,['d'],['k'],N,Y,['space'],Y,,,,,,,female,18,
38,7,425,0,0,9,['d'],['k'],N,Y,['space'],Y,,,,,,,female,18,
38,8,426,5,5,9,['k'],['d'],N,Y,['space'],Y,,,,,,,female,18,
38,9,427,5,5,9,['d'],['k'],N,N,None,Y,,,,,,,female,18,
38,10,428,7,7,9,['k'],['k'],Y,Y,['space'],Y,,,,,,,female,18,
39,0,429,3,3,9,['d'],['k'],N,N,None,Y,,,,,,,female,18,
39,1,430,4,4,9,['d'],['d'],Y,Y,None,N,,,,,,,female,18,
39,2,431,9,9,9,['d'],['k'],N,Y,None,N,,,,,,,female,18,
39,3,432,5,5,9,['k'],['k'],Y,Y,None,N,,,,,,,female,18,
39,4,433,8,8,9,['d'],['k'],N,Y,None,N,,,,,,,female,18,
39,5,434,0,0,9,['d'],['k'],N,N,None,Y,,,,,,,female,18,
39,6,435,9,9,9,['d'],['k'],N,N,None,Y,,,,,,,female,18,
39,7,436,10,10,9,['k'],['d'],N,N,None,Y,,,,,,,female,18,
39,8,437,1,1,9,['d'],['d'],Y,N,['space'],N,,,,,,,female,18,
39,9,438,4,4,9,['d'],['d'],Y,Y,['space'],Y,,,,,,,female,18,
39,10,439,10,10,9,['d'],['d'],Y,N,None,Y,,,,,,,female,18,
40,0,440,9,9,9,['k'],['d'],N,Y,['space'],Y,,,,,,,female,18,
40,1,441,2,2,9,['k'],['k'],Y,N,None,Y,,,,,,,female,18,
40,2,442,3,3,9,['d'],['k'],N,Y,['space'],Y,,,,,,,female,18,
40,3,443,1,1,9,['k'],['k'],Y,N,None,Y,,,,,,,female,18,
40,4,444,4,4,9,['d'],['k'],N,N,None,Y,,,,,,,female,18,
40,5,445,6,6,9,['k'],['d'],N,Y,['space'],Y,,,,,,,female,18,
40,6,446,8,8,9,['d'],['k'],N,Y,None,N,,,,,,,female,18,
40,7,447,3,3,9,['k'],['d'],N,N,None,Y,,,,,,,female,18,
40,8,448,2,2,9,['k'],['d'],N,Y,['space'],Y,,,,,,,female,18,
40,9,449,9,9,9,['d'],['d'],Y,N,None,Y,21,34,25,,,,female,18,
40,10,450,4,4,10,['d'],['d'],Y,,,,,,,,,,female,18,
41,0,451,5,5,10,['k'],['k'],Y,,,,,,,,,,female,18,
41,1,452,2,2,10,['d'],['d'],Y,Y,['space'],Y,,,,,,,female,18,
41,2,453,8,8,10,['d'],['k'],N,N,None,Y,,,,,,,female,18,
41,3,454,3,3,10,['k'],['k'],Y,Y,['space'],Y,,,,,,,female,18,
41,4,455,10,10,10,['d'],['d'],Y,N,None,Y,,,,,,,female,18,
41,5,456,2,2,10,['k'],['k'],Y,N,None,Y,,,,,,,female,18,
41,6,457,7,7,10,['d'],['d'],Y,Y,['space'],Y,,,,,,,female,18,
41,7,458,5,5,10,['k'],['k'],Y,N,None,Y,,,,,,,female,18,
41,8,459,6,6,10,['d'],['d'],Y,Y,['space'],Y,,,,,,,female,18,
41,9,460,6,6,10,['d'],['k'],N,Y,['space'],Y,,,,,,,female,18,
41,10,461,1,1,10,['d'],['k'],N,Y,['space'],Y,,,,,,,female,18,
42,0,462,4,4,10,['k'],['d'],N,Y,['space'],Y,,,,,,,female,18,
42,1,463,4,4,10,['d'],['d'],Y,N,None,Y,,,,,,,female,18,
42,2,464,7,7,10,['k'],['k'],Y,N,None,Y,,,,,,,female,18,
42,3,465,0,0,10,['k'],['d'],N,N,None,Y,,,,,,,female,18,
42,4,466,4,4,10,['k'],['d'],N,Y,['space'],Y,,,,,,,female,18,
42,5,467,8,8,10,['d'],['d'],Y,Y,['space'],Y,,,,,,,female,18,
42,6,468,9,9,10,['k'],['d'],N,N,None,Y,,,,,,,female,18,
42,7,469,7,7,10,['d'],['k'],N,Y,['d'],N,,,,,,,female,18,
42,8,470,2,2,10,['k'],['d'],N,Y,None,N,,,,,,,female,18,
42,9,471,7,7,10,['d'],['d'],Y,N,['space'],N,,,,,,,female,18,
42,10,472,0,0,10,['k'],['k'],Y,Y,['space'],Y,,,,,,,female,18,
43,0,473,6,6,10,['d'],['d'],Y,N,None,Y,,,,,,,female,18,
43,1,474,8,8,10,['k'],['k'],Y,Y,['space'],Y,,,,,,,female,18,
43,2,475,9,9,10,['d'],['d'],Y,N,None,Y,,,,,,,female,18,
43,3,476,9,9,10,['k'],['d'],N,N,None,Y,,,,,,,female,18,
43,4,477,7,7,10,['d'],['d'],Y,Y,['space'],Y,,,,,,,female,18,
43,5,478,2,2,10,['k'],['k'],Y,N,None,Y,,,,,,,female,18,
43,6,479,4,4,10,['d'],['d'],Y,N,None,Y,,,,,,,female,18,
43,7,480,4,4,10,['d'],['k'],N,Y,['space'],Y,,,,,,,female,18,
43,8,481,4,4,10,['k'],['d'],N,N,None,Y,,,,,,,female,18,
43,9,482,6,6,10,['k'],['k'],Y,Y,"['space', 'v']",N,,,,,,,female,18,
43,10,483,5,5,10,['d'],['k'],N,N,None,Y,,,,,,,female,18,
44,0,484,8,8,10,['k'],['k'],Y,N,None,Y,,,,,,,female,18,
44,1,485,2,2,10,['d'],['k'],N,Y,['space'],Y,,,,,,,female,18,
44,2,486,10,10,10,['d'],['k'],N,Y,['space'],Y,,,,,,,female,18,
44,3,487,7,7,10,['k'],['d'],N,Y,None,N,,,,,,,female,18,
44,4,488,1,1,10,['k'],['d'],N,N,None,Y,,,,,,,female,18,
44,5,489,0,0,10,['d'],['d'],Y,N,None,Y,,,,,,,female,18,
44,6,490,4,4,10,['k'],['d'],N,Y,['space'],Y,,,,,,,female,18,
44,7,491,1,1,10,['d'],['d'],Y,Y,['space'],Y,,,,,,,female,18,
44,8,492,9,9,10,['d'],['k'],N,Y,None,N,,,,,,,female,18,
44,9,493,5,5,10,['d'],['d'],Y,Y,['space'],Y,,,,,,,female,18,
44,10,494,3,3,10,['d'],['d'],Y,N,None,Y,,,,,,,female,18,
45,0,495,0,0,10,['d'],['k'],N,Y,['space'],Y,,,,,,,female,18,
45,1,496,4,4,10,['d'],['d'],Y,Y,['space'],Y,,,,,,,female,18,
45,2,497,2,2,10,['k'],['k'],Y,N,None,Y,,,,,,,female,18,
45,3,498,9,9,10,['d'],['k'],N,N,None,Y,,,,,,,female,18,
45,4,499,0,0,10,['d'],['d'],Y,N,None,Y,29,42,25,,,,female,18,
45,5,500,3,3,11,['d'],['d'],N,,,,,,,Y,Y,Y,female,18,
45,6,501,9,9,11,['d'],['k'],Y,,,,,,,,Y,Y,female,18,
45,7,502,9,9,11,['d'],['d'],N,N,None,Y,,,,,Y,Y,female,18,
45,8,503,7,7,11,['d'],['k'],Y,Y,['space'],Y,,,,,Y,Y,female,18,
45,9,504,6,6,11,['d'],['d'],N,Y,['space'],Y,,,,,Y,Y,female,18,
45,10,505,2,2,11,['d'],['d'],N,Y,['space'],Y,,,,,Y,Y,female,18,
46,0,506,1,1,11,['k'],['d'],Y,Y,['space'],Y,,,,,Y,Y,female,18,
46,1,507,10,10,11,['d'],['d'],N,Y,['space'],Y,,,,,Y,Y,female,18,
46,2,508,1,1,11,['d'],['d'],N,N,None,Y,,,,,Y,Y,female,18,
46,3,509,10,10,11,['k'],['d'],Y,N,None,Y,,,,,Y,Y,female,18,
46,4,510,7,7,11,['k'],['k'],N,N,None,Y,,,,,Y,Y,female,18,
46,5,511,0,0,11,['d'],['k'],Y,N,None,Y,,,,,Y,Y,female,18,
46,6,512,0,0,11,['d'],['k'],Y,N,None,Y,,,,,Y,Y,female,18,
46,7,513,0,0,11,['d'],['k'],Y,N,None,Y,,,,,Y,Y,female,18,
46,8,514,4,4,11,['d'],['k'],Y,N,None,Y,,,,,Y,Y,female,18,
46,9,515,5,5,11,None,,Timed out,Y,['space'],Y,,,,,Y,Y,female,18,
46,10,516,5,5,11,['d'],['k'],Y,Y,None,N,,,,,Y,Y,female,18,
47,0,517,3,3,11,['d'],['k'],Y,Y,None,N,,,,,Y,Y,female,18,
47,1,518,3,3,11,['k'],['d'],Y,N,None,Y,,,,,Y,Y,female,18,
47,2,519,2,2,11,['k'],['k'],N,Y,['space'],Y,,,,,Y,Y,female,18,
47,3,520,8,8,11,['d'],['k'],Y,Y,None,N,,,,,Y,Y,female,18,
47,4,521,4,4,11,['k'],['d'],Y,Y,['space'],Y,,,,,Y,Y,female,18,
47,5,522,10,10,11,['k'],['k'],N,Y,['space'],Y,,,,,Y,Y,female,18,
47,6,523,8,8,11,['d'],['k'],Y,N,None,Y,,,,,Y,Y,female,18,
47,7,524,10,10,11,['d'],['k'],Y,Y,None,N,,,,,Y,Y,female,18,
47,8,525,3,3,11,['d'],['d'],N,N,['space'],N,,,,,Y,Y,female,18,
47,9,526,4,4,11,['k'],['d'],Y,N,None,Y,,,,,Y,Y,female,18,
47,10,527,3,3,11,['d'],['k'],Y,N,None,Y,,,,,Y,Y,female,18,
48,0,528,8,8,11,['d'],['d'],N,N,None,Y,,,,,Y,Y,female,18,
48,1,529,7,7,11,['k'],['d'],Y,N,None,Y,,,,,Y,Y,female,18,
48,2,530,9,9,11,['d'],['k'],Y,Y,None,N,,,,,Y,Y,female,18,
48,3,531,3,3,11,['k'],['k'],N,Y,None,N,,,,,Y,Y,female,18,
48,4,532,0,0,11,['d'],['k'],Y,Y,None,N,,,,,Y,Y,female,18,
48,5,533,8,8,11,None,,Timed out,Y,['space'],Y,,,,,Y,Y,female,18,
48,6,534,4,4,11,['k'],['d'],Y,Y,['d'],N,,,,,Y,Y,female,18,
48,7,535,0,0,11,['d'],['k'],Y,N,None,Y,,,,,Y,Y,female,18,
48,8,536,6,6,11,['d'],['d'],N,N,None,Y,,,,,Y,Y,female,18,
48,9,537,2,2,11,['d'],['d'],N,N,None,Y,,,,,Y,Y,female,18,
48,10,538,0,0,11,['d'],['d'],N,Y,['space'],Y,,,,,Y,Y,female,18,
49,0,539,1,1,11,['k'],['d'],Y,Y,None,N,,,,,Y,Y,female,18,
49,1,540,10,10,11,['d'],['k'],Y,N,None,Y,,,,,Y,Y,female,18,
49,2,541,7,7,11,['k'],['k'],N,N,None,Y,,,,,Y,Y,female,18,
49,3,542,8,8,11,['d'],['k'],Y,N,None,Y,,,,,Y,Y,female,18,
49,4,543,5,5,11,['d'],['d'],N,N,None,Y,,,,,Y,Y,female,18,
49,5,544,2,2,11,['d'],['d'],N,Y,['k'],N,,,,,Y,Y,female,18,
49,6,545,4,4,11,['k'],['d'],Y,N,None,Y,,,,,Y,Y,female,18,
49,7,546,10,10,11,['d'],['k'],Y,Y,['space'],Y,,,,,Y,Y,female,18,
49,8,547,5,5,11,['d'],['k'],Y,N,['space'],N,,,,,Y,Y,female,18,
49,9,548,0,0,11,['d'],['k'],Y,N,['space'],N,,,,,Y,Y,female,18,
49,10,549,10,10,11,['d'],['d'],N,Y,None,N,29,34,23,,Y,Y,female,18,
50,0,550,10,10,12,['d'],['k'],Y,,,,,,,,Y,Y,female,18,
50,1,551,0,0,12,['k'],['k'],N,,,,,,,,Y,Y,female,18,
50,2,552,5,5,12,['d'],['d'],N,N,None,Y,,,,,Y,Y,female,18,
50,3,553,10,10,12,['k'],['k'],N,Y,['space'],Y,,,,,Y,Y,female,18,
50,4,554,0,0,12,['d'],['k'],Y,N,['space'],N,,,,,Y,Y,female,18,
50,5,555,8,8,12,['d'],['k'],Y,Y,['space'],Y,,,,,Y,Y,female,18,
50,6,556,1,1,12,['d'],['d'],N,Y,['space'],Y,,,,,Y,Y,female,18,
50,7,557,0,0,12,['k'],['d'],Y,Y,['space'],Y,,,,,Y,Y,female,18,
50,8,558,3,3,12,['d'],['d'],N,N,['space'],N,,,,,Y,Y,female,18,
50,9,559,1,1,12,['k'],['d'],Y,Y,['space'],Y,,,,,Y,Y,female,18,
50,10,560,3,3,12,['d'],['d'],N,Y,['space'],Y,,,,,Y,Y,female,18,
51,0,561,2,2,12,['k'],['k'],N,Y,['space'],Y,,,,,Y,Y,female,18,
51,1,562,8,8,12,['d'],['d'],N,N,None,Y,,,,,Y,Y,female,18,
51,2,563,0,0,12,['d'],['k'],Y,Y,['space'],Y,,,,,Y,Y,female,18,
51,3,564,8,8,12,['d'],['k'],Y,Y,None,N,,,,,Y,Y,female,18,
51,4,565,4,4,12,['d'],['k'],Y,N,None,Y,,,,,Y,Y,female,18,
51,5,566,3,3,12,['k'],['d'],Y,N,None,Y,,,,,Y,Y,female,18,
51,6,567,0,0,12,['d'],['k'],Y,Y,['space'],Y,,,,,Y,Y,female,18,
51,7,568,4,4,12,['k'],['k'],N,Y,['space'],Y,,,,,Y,Y,female,18,
51,8,569,10,10,12,None,,Timed out,N,None,Y,,,,,Y,Y,female,18,
51,9,570,9,9,12,['d'],['k'],Y,Y,['d'],N,,,,,Y,Y,female,18,
51,10,571,9,9,12,['k'],['k'],N,N,None,Y,,,,,Y,Y,female,18,
52,0,572,7,7,12,['k'],['d'],Y,Y,['space'],Y,,,,,Y,Y,female,18,
52,1,573,3,3,12,['d'],['k'],Y,N,['space'],N,,,,,Y,Y,female,18,
52,2,574,5,5,12,None,,Timed out,N,['space'],N,,,,,Y,Y,female,18,
52,3,575,0,0,12,['d'],['k'],Y,N,['space'],N,,,,,Y,Y,female,18,
52,4,576,5,5,12,['d'],['d'],N,N,None,Y,,,,,Y,Y,female,18,
52,5,577,2,2,12,['k'],['d'],Y,N,None,Y,,,,,Y,Y,female,18,
52,6,578,4,4,12,['k'],['k'],N,Y,['space'],Y,,,,,Y,Y,female,18,
52,7,579,6,6,12,['d'],['d'],N,Y,['space'],Y,,,,,Y,Y,female,18,
52,8,580,10,10,12,['d'],['d'],N,N,None,Y,,,,,Y,Y,female,18,
52,9,581,9,9,12,['k'],['d'],Y,Y,['space'],Y,,,,,Y,Y,female,18,
52,10,582,0,0,12,['d'],['k'],Y,N,None,Y,,,,,Y,Y,female,18,
53,0,583,1,1,12,['d'],['d'],N,N,None,Y,,,,,Y,Y,female,18,
53,1,584,9,9,12,['d'],['d'],N,N,None,Y,,,,,Y,Y,female,18,
53,2,585,7,7,12,None,,Timed out,Y,['space'],Y,,,,,Y,Y,female,18,
53,3,586,6,6,12,['k'],['k'],N,N,None,Y,,,,,Y,Y,female,18,
53,4,587,4,4,12,None,,Timed out,N,None,Y,,,,,Y,Y,female,18,
53,5,588,4,4,12,['d'],['d'],N,Y,['space'],Y,,,,,Y,Y,female,18,
53,6,589,9,9,12,['d'],['d'],N,N,None,Y,,,,,Y,Y,female,18,
53,7,590,4,4,12,['d'],['d'],N,Y,['space'],Y,,,,,Y,Y,female,18,
53,8,591,2,2,12,['k'],['k'],N,Y,['space'],Y,,,,,Y,Y,female,18,
53,9,592,8,8,12,['d'],['d'],N,Y,['space'],Y,,,,,Y,Y,female,18,
53,10,593,8,8,12,['k'],['k'],N,N,['space'],N,,,,,Y,Y,female,18,
54,0,594,3,3,12,['d'],['k'],Y,Y,['space'],Y,,,,,Y,Y,female,18,
54,1,595,10,10,12,['k'],['d'],Y,Y,['space'],Y,,,,,Y,Y,female,18,
54,2,596,6,6,12,['d'],['k'],Y,Y,['space'],Y,,,,,Y,Y,female,18,
54,3,597,9,9,12,['k'],['k'],N,N,None,Y,,,,,Y,Y,female,18,
54,4,598,9,9,12,None,,Timed out,N,['space'],N,,,,,Y,Y,female,18,
54,5,599,6,6,12,None,,Timed out,Y,['d'],N,20,38,25,,Y,Y,female,18,
