.thisRepN,.thisTrialN,.thisN,.thisIndex,.thisTrial,Block Number,Key pressed,Category,Correct?,Int Match?,Int Response,Int Correct?,Line Accuracy,Interference Accuracy,Matching Interferences,New instruction shown?,Buttons switched?,Fast?,gender,age,
0,0,0,1,1,1,['k'],['k'],Y,,,,,,,,,,f,18,
0,1,1,14,14,1,['k'],['k'],Y,,,,,,,,,,f,18,
0,2,2,7,7,1,['k'],['k'],Y,Y,['d'],N,,,,,,,f,18,
0,3,3,2,2,1,['k'],['d'],N,N,None,Y,,,,,,,f,18,
0,4,4,2,2,1,['k'],['k'],Y,N,None,Y,,,,,,,f,18,
0,5,5,4,4,1,['k'],['d'],N,N,None,Y,,,,,,,f,18,
0,6,6,3,3,1,['k'],['d'],N,Y,['space'],Y,,,,,,,f,18,
0,7,7,2,2,1,['d'],['d'],Y,Y,['space'],Y,,,,,,,f,18,
0,8,8,12,12,1,['k'],['d'],N,N,None,Y,,,,,,,f,18,
0,9,9,9,9,1,['k'],['k'],Y,N,None,Y,,,,,,,f,18,
0,10,10,8,8,1,['d'],['d'],Y,Y,['space'],Y,,,,,,,f,18,
0,11,11,9,9,1,['k'],['d'],N,N,None,Y,,,,,,,f,18,
0,12,12,5,5,1,['k'],['k'],Y,N,None,Y,,,,,,,f,18,
0,13,13,3,3,1,['k'],['k'],Y,Y,['space'],Y,,,,,,,f,18,
0,14,14,11,11,1,['d'],['d'],Y,N,['space'],N,,,,,,,f,18,
1,0,15,10,10,1,['k'],['d'],N,N,['space'],N,,,,,,,f,18,
1,1,16,4,4,1,['k'],['k'],Y,N,['space'],N,,,,,,,f,18,
1,2,17,2,2,1,['d'],['d'],Y,N,None,Y,,,,,,,f,18,
1,3,18,10,10,1,['k'],['k'],Y,Y,['space'],Y,,,,,,,f,18,
1,4,19,3,3,1,['d'],['d'],Y,Y,None,N,,,,,,,f,18,
1,5,20,12,12,1,['k'],['k'],Y,N,None,Y,,,,,,,f,18,
1,6,21,2,2,1,['d'],['k'],N,N,['space'],N,,,,,,,f,18,
1,7,22,2,2,1,['k'],['d'],N,N,['space'],N,,,,,,,f,18,
1,8,23,11,11,1,['d'],['k'],N,N,['space'],N,,,,,,,f,18,
1,9,24,11,11,1,['k'],['k'],Y,N,['space'],N,,,,,,,f,18,
1,10,25,4,4,1,['d'],['d'],Y,N,['space'],N,,,,,,,f,18,
1,11,26,1,1,1,['k'],['k'],Y,N,None,Y,,,,,,,f,18,
1,12,27,8,8,1,['d'],['d'],Y,N,None,Y,,,,,,,f,18,
1,13,28,13,13,1,['d'],['d'],Y,N,None,Y,,,,,,,f,18,
1,14,29,9,9,1,['k'],['d'],N,N,['space'],N,,,,,,,f,18,
2,0,30,1,1,1,['k'],['d'],N,N,None,Y,,,,,,,f,18,
2,1,31,7,7,1,['d'],['d'],Y,Y,['space'],Y,,,,,,,f,18,
2,2,32,0,0,1,['k'],['k'],Y,Y,['space'],Y,,,,,,,f,18,
2,3,33,10,10,1,['d'],['d'],Y,N,None,Y,,,,,,,f,18,
2,4,34,0,0,1,['d'],['d'],Y,N,None,Y,,,,,,,f,18,
2,5,35,12,12,1,['d'],['d'],Y,Y,['space'],Y,,,,,,,f,18,
2,6,36,10,10,1,['d'],['d'],Y,N,['space'],N,,,,,,,f,18,
2,7,37,8,8,1,['k'],['k'],Y,N,None,Y,,,,,,,f,18,
2,8,38,11,11,1,['d'],['d'],Y,Y,['space'],Y,,,,,,,f,18,
2,9,39,4,4,1,['d'],['d'],Y,Y,['space'],Y,,,,,,,f,18,
2,10,40,8,8,1,['k'],['k'],Y,N,['space'],N,,,,,,,f,18,
2,11,41,13,13,1,['d'],['d'],Y,Y,['space'],Y,,,,,,,f,18,
2,12,42,6,6,1,['k'],['k'],Y,N,None,Y,,,,,,,f,18,
2,13,43,9,9,1,['d'],['d'],Y,N,None,Y,,,,,,,f,18,
2,14,44,10,10,1,['k'],['k'],Y,N,['space'],N,,,,,,,f,18,
3,0,45,13,13,1,['d'],['k'],N,Y,['space'],Y,,,,,,,f,18,
3,1,46,9,9,1,['k'],['d'],N,N,['space'],N,,,,,,,f,18,
3,2,47,1,1,1,['k'],['k'],Y,Y,['space'],Y,,,,,,,f,18,
3,3,48,9,9,1,['d'],['k'],N,N,None,Y,,,,,,,f,18,
3,4,49,8,8,1,['k'],['d'],N,Y,['space'],Y,35,33,16,,,,f,18,
3,5,50,14,14,2,['k'],['k'],Y,,,,,,,,,,f,18,
3,6,51,10,10,2,['d'],['d'],Y,,,,,,,,,,f,18,
3,7,52,12,12,2,['d'],['d'],Y,N,['space'],N,,,,,,,f,18,
3,8,53,5,5,2,['d'],['d'],Y,N,None,Y,,,,,,,f,18,
3,9,54,3,3,2,['k'],['k'],Y,N,None,Y,,,,,,,f,18,
3,10,55,0,0,2,['k'],['k'],Y,Y,None,N,,,,,,,f,18,
3,11,56,10,10,2,['d'],['d'],Y,N,['space'],N,,,,,,,f,18,
3,12,57,9,9,2,['k'],['d'],N,Y,['k'],N,,,,,,,f,18,
3,13,58,13,13,2,['k'],['k'],Y,N,['space'],N,,,,,,,f,18,
3,14,59,0,0,2,['d'],['d'],Y,Y,None,N,,,,,,,f,18,
4,0,60,1,1,2,['k'],['k'],Y,Y,None,N,,,,,,,f,18,
4,1,61,6,6,2,['k'],['k'],Y,Y,['space'],Y,,,,,,,f,18,
4,2,62,12,12,2,['d'],['d'],Y,N,['space'],N,,,,,,,f,18,
4,3,63,1,1,2,['k'],['k'],Y,N,None,Y,,,,,,,f,18,
4,4,64,0,0,2,['k'],['k'],Y,Y,None,N,,,,,,,f,18,
4,5,65,3,3,2,['d'],['d'],Y,Y,['space'],Y,,,,,,,f,18,
4,6,66,7,7,2,['k'],['k'],Y,Y,['space'],Y,,,,,,,f,18,
4,7,67,2,2,2,['k'],['k'],Y,N,None,Y,,,,,,,f,18,
4,8,68,3,3,2,['k'],['k'],Y,N,None,Y,,,,,,,f,18,
4,9,69,7,7,2,['d'],['d'],Y,N,None,Y,,,,,,,f,18,
4,10,70,13,13,2,['k'],['k'],Y,Y,['space'],Y,,,,,,,f,18,
4,11,71,3,3,2,['k'],['k'],Y,N,['space'],N,,,,,,,f,18,
4,12,72,14,14,2,['k'],['k'],Y,Y,['space'],Y,,,,,,,f,18,
4,13,73,1,1,2,['k'],['k'],Y,N,None,Y,,,,,,,f,18,
4,14,74,13,13,2,['d'],['d'],Y,Y,['space'],Y,,,,,,,f,18,
5,0,75,14,14,2,['k'],['k'],Y,N,None,Y,,,,,,,f,18,
5,1,76,7,7,2,['k'],['k'],Y,Y,['space'],Y,,,,,,,f,18,
5,2,77,0,0,2,['d'],['d'],Y,N,None,Y,,,,,,,f,18,
5,3,78,2,2,2,['d'],['d'],Y,Y,['space'],Y,,,,,,,f,18,
5,4,79,1,1,2,['k'],['k'],Y,Y,None,N,,,,,,,f,18,
5,5,80,10,10,2,['k'],['k'],Y,N,None,Y,,,,,,,f,18,
5,6,81,14,14,2,['d'],['d'],Y,Y,['space'],Y,,,,,,,f,18,
5,7,82,5,5,2,['k'],['k'],Y,N,None,Y,,,,,,,f,18,
5,8,83,2,2,2,['k'],['k'],Y,N,None,Y,,,,,,,f,18,
5,9,84,4,4,2,['d'],['d'],Y,Y,['space'],Y,,,,,,,f,18,
5,10,85,5,5,2,['k'],['k'],Y,Y,['space'],Y,,,,,,,f,18,
5,11,86,9,9,2,['k'],['k'],Y,Y,['space'],Y,,,,,,,f,18,
5,12,87,9,9,2,['d'],['k'],N,Y,['space'],Y,,,,,,,f,18,
5,13,88,5,5,2,['k'],['d'],N,Y,None,N,,,,,,,f,18,
5,14,89,4,4,2,['d'],['d'],Y,Y,['space'],Y,,,,,,,f,18,
6,0,90,14,14,2,['k'],['k'],Y,Y,['space'],Y,,,,,,,f,18,
6,1,91,4,4,2,['k'],['k'],Y,N,None,Y,,,,,,,f,18,
6,2,92,6,6,2,['d'],['d'],Y,N,None,Y,,,,,,,f,18,
6,3,93,14,14,2,['d'],['d'],Y,N,['space'],N,,,,,,,f,18,
6,4,94,2,2,2,['k'],['k'],Y,Y,['space'],Y,,,,,,,f,18,
6,5,95,12,12,2,['d'],['d'],Y,Y,['space'],Y,,,,,,,f,18,
6,6,96,8,8,2,['d'],['d'],Y,N,None,Y,,,,,,,f,18,
6,7,97,3,3,2,['k'],['k'],Y,N,None,Y,,,,,,,f,18,
6,8,98,2,2,2,['d'],['d'],Y,Y,['space'],Y,,,,,,,f,18,
6,9,99,8,8,2,['d'],['d'],Y,N,['space'],N,47,34,25,,,,f,18,
6,10,100,10,10,3,['d'],['d'],Y,,,,,,,,,,f,18,
6,11,101,11,11,3,['k'],['k'],Y,,,,,,,,,,f,18,
6,12,102,10,10,3,['d'],['d'],Y,Y,['space'],Y,,,,,,,f,18,
6,13,103,11,11,3,['k'],['k'],Y,N,None,Y,,,,,,,f,18,
6,14,104,6,6,3,['d'],['d'],Y,N,None,Y,,,,,,,f,18,
7,0,105,12,12,3,['d'],['d'],Y,N,None,Y,,,,,,,f,18,
7,1,106,1,1,3,['k'],['d'],N,N,['space'],N,,,,,,,f,18,
7,2,107,5,5,3,['k'],['k'],Y,N,['space'],N,,,,,,,f,18,
7,3,108,1,1,3,['d'],['d'],Y,N,['space'],N,,,,,,,f,18,
7,4,109,12,12,3,['k'],['k'],Y,Y,['space'],Y,,,,,,,f,18,
7,5,110,12,12,3,['k'],['d'],N,N,['space'],N,,,,,,,f,18,
7,6,111,6,6,3,['d'],['d'],Y,N,['space'],N,,,,,,,f,18,
7,7,112,7,7,3,['d'],['d'],Y,N,None,Y,,,,,,,f,18,
7,8,113,14,14,3,['d'],['d'],Y,Y,['space'],Y,,,,,,,f,18,
7,9,114,10,10,3,['k'],['k'],Y,Y,['space'],Y,,,,,,,f,18,
7,10,115,1,1,3,['k'],['k'],Y,N,['space'],N,,,,,,,f,18,
7,11,116,13,13,3,['k'],['k'],Y,N,None,Y,,,,,,,f,18,
7,12,117,3,3,3,['d'],['k'],N,Y,['space'],Y,,,,,,,f,18,
7,13,118,5,5,3,['k'],['k'],Y,N,['space'],N,,,,,,,f,18,
7,14,119,14,14,3,['k'],['k'],Y,Y,['space'],Y,,,,,,,f,18,
8,0,120,7,7,3,['d'],['d'],Y,N,None,Y,,,,,,,f,18,
8,1,121,3,3,3,['k'],['k'],Y,N,None,Y,,,,,,,f,18,
8,2,122,4,4,3,['k'],['k'],Y,N,None,Y,,,,,,,f,18,
8,3,123,10,10,3,['k'],['k'],Y,Y,['space'],Y,,,,,,,f,18,
8,4,124,1,1,3,['d'],['d'],Y,Y,None,N,,,,,,,f,18,
8,5,125,1,1,3,['k'],['k'],Y,N,None,Y,,,,,,,f,18,
8,6,126,5,5,3,['d'],['k'],N,N,['space'],N,,,,,,,f,18,
8,7,127,12,12,3,['d'],['d'],Y,Y,['space'],Y,,,,,,,f,18,
8,8,128,4,4,3,['k'],['k'],Y,N,['space'],N,,,,,,,f,18,
8,9,129,14,14,3,['k'],['d'],N,Y,['space'],Y,,,,,,,f,18,
8,10,130,2,2,3,['d'],['d'],Y,Y,['space'],Y,,,,,,,f,18,
8,11,131,1,1,3,['k'],['k'],Y,Y,['space'],Y,,,,,,,f,18,
8,12,132,12,12,3,['d'],['d'],Y,Y,None,N,,,,,,,f,18,
8,13,133,9,9,3,['d'],['d'],Y,Y,['space'],Y,,,,,,,f,18,
8,14,134,11,11,3,['k'],['k'],Y,Y,None,N,,,,,,,f,18,
9,0,135,11,11,3,['d'],['d'],Y,Y,['space'],Y,,,,,,,f,18,
9,1,136,4,4,3,['k'],['k'],Y,N,None,Y,,,,,,,f,18,
9,2,137,12,12,3,['k'],['k'],Y,Y,['space'],Y,,,,,,,f,18,
9,3,138,13,13,3,['d'],['d'],Y,Y,['space'],Y,,,,,,,f,18,
9,4,139,8,8,3,['d'],['d'],Y,Y,['space'],Y,,,,,,,f,18,
9,5,140,8,8,3,['d'],['d'],Y,Y,['space'],Y,,,,,,,f,18,
9,6,141,7,7,3,['k'],['d'],N,Y,['space'],Y,,,,,,,f,18,
9,7,142,1,1,3,['k'],['k'],Y,Y,['space'],Y,,,,,,,f,18,
9,8,143,1,1,3,['k'],['k'],Y,N,None,Y,,,,,,,f,18,
9,9,144,6,6,3,['k'],['k'],Y,Y,['space'],Y,,,,,,,f,18,
9,10,145,2,2,3,['k'],['k'],Y,N,None,Y,,,,,,,f,18,
9,11,146,8,8,3,['d'],['d'],Y,N,None,Y,,,,,,,f,18,
9,12,147,3,3,3,['d'],['d'],Y,Y,None,N,,,,,,,f,18,
9,13,148,4,4,3,['k'],['d'],N,N,None,Y,,,,,,,f,18,
9,14,149,14,14,3,['k'],['k'],Y,N,['space'],N,43,34,24,,,,f,18,
10,0,150,11,11,4,['d'],['d'],Y,,,,,,,,,,f,18,
10,1,151,9,9,4,['k'],['k'],Y,,,,,,,,,,f,18,
10,2,152,9,9,4,['d'],['d'],Y,N,['space'],N,,,,,,,f,18,
10,3,153,9,9,4,['d'],['d'],Y,N,['space'],N,,,,,,,f,18,
10,4,154,13,13,4,['k'],['k'],Y,N,None,Y,,,,,,,f,18,
10,5,155,12,12,4,['k'],['d'],N,N,None,Y,,,,,,,f,18,
10,6,156,10,10,4,['d'],['k'],N,N,None,Y,,,,,,,f,18,
10,7,157,11,11,4,['d'],['d'],Y,N,['space'],N,,,,,,,f,18,
10,8,158,6,6,4,['k'],['k'],Y,N,None,Y,,,,,,,f,18,
10,9,159,2,2,4,['d'],['k'],N,Y,None,N,,,,,,,f,18,
10,10,160,5,5,4,['k'],['k'],Y,N,['k'],N,,,,,,,f,18,
10,11,161,13,13,4,['k'],['k'],Y,N,None,Y,,,,,,,f,18,
10,12,162,10,10,4,['k'],['k'],Y,N,['space'],N,,,,,,,f,18,
10,13,163,7,7,4,['k'],['k'],Y,Y,['space'],Y,,,,,,,f,18,
10,14,164,5,5,4,['k'],['d'],N,N,None,Y,,,,,,,f,18,
11,0,165,9,9,4,['k'],['k'],Y,N,['space'],N,,,,,,,f,18,
11,1,166,12,12,4,['k'],['k'],Y,N,['space'],N,,,,,,,f,18,
11,2,167,7,7,4,['d'],['k'],N,N,['d'],N,,,,,,,f,18,
11,3,168,4,4,4,['k'],['d'],N,N,['space'],N,,,,,,,f,18,
11,4,169,14,14,4,['k'],['k'],Y,Y,None,N,,,,,,,f,18,
11,5,170,6,6,4,['k'],['k'],Y,Y,None,N,,,,,,,f,18,
11,6,171,2,2,4,['k'],['k'],Y,Y,['space'],Y,,,,,,,f,18,
11,7,172,9,9,4,['d'],['d'],Y,Y,None,N,,,,,,,f,18,
11,8,173,3,3,4,['k'],['k'],Y,N,None,Y,,,,,,,f,18,
11,9,174,7,7,4,['k'],['k'],Y,Y,None,N,,,,,,,f,18,
11,10,175,8,8,4,['k'],['k'],Y,Y,['d'],N,,,,,,,f,18,
11,11,176,8,8,4,['d'],['d'],Y,Y,['space'],Y,,,,,,,f,18,
11,12,177,13,13,4,['k'],['k'],Y,Y,['space'],Y,,,,,,,f,18,
11,13,178,2,2,4,['k'],['k'],Y,N,None,Y,,,,,,,f,18,
11,14,179,5,5,4,['d'],['d'],Y,Y,None,N,,,,,,,f,18,
12,0,180,12,12,4,['k'],['k'],Y,N,None,Y,,,,,,,f,18,
12,1,181,3,3,4,['d'],['k'],N,N,None,Y,,,,,,,f,18,
12,2,182,0,0,4,['k'],['k'],Y,N,None,Y,,,,,,,f,18,
12,3,183,3,3,4,['k'],['k'],Y,N,None,Y,,,,,,,f,18,
12,4,184,14,14,4,['d'],['d'],Y,N,None,Y,,,,,,,f,18,
12,5,185,4,4,4,['d'],['d'],Y,N,['k'],N,,,,,,,f,18,
12,6,186,12,12,4,['k'],['k'],Y,Y,['space'],Y,,,,,,,f,18,
12,7,187,6,6,4,['d'],['d'],Y,N,None,Y,,,,,,,f,18,
12,8,188,6,6,4,['d'],['d'],Y,N,['space'],N,,,,,,,f,18,
12,9,189,12,12,4,['d'],['d'],Y,Y,['space'],Y,,,,,,,f,18,
12,10,190,13,13,4,['k'],['k'],Y,Y,['space'],Y,,,,,,,f,18,
12,11,191,4,4,4,['d'],['d'],Y,Y,['space'],Y,,,,,,,f,18,
12,12,192,10,10,4,['k'],['k'],Y,N,None,Y,,,,,,,f,18,
12,13,193,11,11,4,['k'],['k'],Y,N,None,Y,,,,,,,f,18,
12,14,194,8,8,4,['k'],['k'],Y,Y,['space'],Y,,,,,,,f,18,
13,0,195,3,3,4,['k'],['k'],Y,Y,['space'],Y,,,,,,,f,18,
13,1,196,1,1,4,['d'],['d'],Y,N,None,Y,,,,,,,f,18,
13,2,197,11,11,4,['k'],['d'],N,Y,['space'],Y,,,,,,,f,18,
13,3,198,5,5,4,['d'],['k'],N,N,None,Y,,,,,,,f,18,
13,4,199,5,5,4,['k'],['k'],Y,Y,['space'],Y,41,30,19,,,,f,18,
13,5,200,5,5,5,['k'],['k'],Y,,,,,,,,,,f,18,
13,6,201,2,2,5,['k'],['k'],Y,,,,,,,,,,f,18,
13,7,202,2,2,5,['k'],['k'],Y,N,['space'],N,,,,,,,f,18,
13,8,203,2,2,5,['d'],['d'],Y,N,None,Y,,,,,,,f,18,
13,9,204,2,2,5,['k'],['d'],N,N,None,Y,,,,,,,f,18,
13,10,205,3,3,5,['d'],['d'],Y,Y,['space'],Y,,,,,,,f,18,
13,11,206,0,0,5,['k'],['d'],N,Y,['space'],Y,,,,,,,f,18,
13,12,207,5,5,5,['d'],['d'],Y,Y,['space'],Y,,,,,,,f,18,
13,13,208,0,0,5,['k'],['k'],Y,Y,['space'],Y,,,,,,,f,18,
13,14,209,8,8,5,['k'],['d'],N,Y,['space'],Y,,,,,,,f,18,
14,0,210,4,4,5,['k'],['k'],Y,Y,['space'],Y,,,,,,,f,18,
14,1,211,6,6,5,['k'],['k'],Y,N,None,Y,,,,,,,f,18,
14,2,212,2,2,5,['k'],['d'],N,N,None,Y,,,,,,,f,18,
14,3,213,4,4,5,['d'],['d'],Y,N,['space'],N,,,,,,,f,18,
14,4,214,3,3,5,['k'],['d'],N,Y,['space'],Y,,,,,,,f,18,
14,5,215,1,1,5,['d'],['d'],Y,N,None,Y,,,,,,,f,18,
14,6,216,10,10,5,['d'],['d'],Y,Y,['space'],Y,,,,,,,f,18,
14,7,217,7,7,5,['d'],['d'],Y,Y,['space'],Y,,,,,,,f,18,
14,8,218,14,14,5,['k'],['d'],N,Y,['space'],Y,,,,,,,f,18,
14,9,219,6,6,5,['k'],['d'],N,Y,['space'],Y,,,,,,,f,18,
14,10,220,7,7,5,['k'],['k'],Y,N,None,Y,,,,,,,f,18,
14,11,221,6,6,5,['d'],['d'],Y,N,['space'],N,,,,,,,f,18,
14,12,222,13,13,5,['k'],['k'],Y,N,None,Y,,,,,,,f,18,
14,13,223,11,11,5,['d'],['d'],Y,Y,['space'],Y,,,,,,,f,18,
14,14,224,6,6,5,['d'],['k'],N,N,['space'],N,,,,,,,f,18,
15,0,225,13,13,5,['k'],['k'],Y,N,['space'],N,,,,,,,f,18,
15,1,226,5,5,5,['k'],['k'],Y,Y,['space'],Y,,,,,,,f,18,
15,2,227,4,4,5,['k'],['k'],Y,Y,None,N,,,,,,,f,18,
15,3,228,13,13,5,['k'],['k'],Y,N,['space'],N,,,,,,,f,18,
15,4,229,11,11,5,['k'],['k'],Y,Y,None,N,,,,,,,f,18,
15,5,230,11,11,5,['k'],['k'],Y,N,None,Y,,,,,,,f,18,
15,6,231,3,3,5,['k'],['k'],Y,Y,['space'],Y,,,,,,,f,18,
15,7,232,3,3,5,['d'],['k'],N,N,None,Y,,,,,,,f,18,
15,8,233,14,14,5,['k'],['d'],N,N,None,Y,,,,,,,f,18,
15,9,234,7,7,5,['k'],['k'],Y,Y,['space'],Y,,,,,,,f,18,
15,10,235,2,2,5,['k'],['k'],Y,Y,['space'],Y,,,,,,,f,18,
15,11,236,13,13,5,['d'],['d'],Y,N,None,Y,,,,,,,f,18,
15,12,237,4,4,5,['k'],['k'],Y,Y,['space'],Y,,,,,,,f,18,
15,13,238,14,14,5,['d'],['d'],Y,N,None,Y,,,,,,,f,18,
15,14,239,5,5,5,['d'],['d'],Y,Y,['space'],Y,,,,,,,f,18,
16,0,240,4,4,5,['k'],['k'],Y,N,None,Y,,,,,,,f,18,
16,1,241,6,6,5,['k'],['d'],N,Y,['space'],Y,,,,,,,f,18,
16,2,242,11,11,5,['d'],['d'],Y,Y,['space'],Y,,,,,,,f,18,
16,3,243,8,8,5,['k'],['k'],Y,Y,['space'],Y,,,,,,,f,18,
16,4,244,10,10,5,['d'],['d'],Y,N,None,Y,,,,,,,f,18,
16,5,245,9,9,5,['d'],['d'],Y,Y,['space'],Y,,,,,,,f,18,
16,6,246,3,3,5,['k'],['k'],Y,N,None,Y,,,,,,,f,18,
16,7,247,10,10,5,['d'],['d'],Y,N,['space'],N,,,,,,,f,18,
16,8,248,13,13,5,['d'],['d'],Y,Y,['space'],Y,,,,,,,f,18,
16,9,249,6,6,5,['k'],['k'],Y,N,None,Y,39,39,25,,,,f,18,
16,10,250,7,7,6,['k'],['k'],Y,,,,,,,,,,f,18,
16,11,251,2,2,6,['k'],['k'],Y,,,,,,,,,,f,18,
16,12,252,2,2,6,['k'],['k'],Y,Y,['space'],Y,,,,,,,f,18,
16,13,253,9,9,6,['d'],['d'],Y,Y,['space'],Y,,,,,,,f,18,
16,14,254,7,7,6,['d'],['d'],Y,Y,['space'],Y,,,,,,,f,18,
17,0,255,12,12,6,['d'],['d'],Y,Y,['space'],Y,,,,,,,f,18,
17,1,256,14,14,6,['d'],['d'],Y,N,['space'],N,,,,,,,f,18,
17,2,257,4,4,6,['k'],['k'],Y,N,None,Y,,,,,,,f,18,
17,3,258,8,8,6,['d'],['d'],Y,N,None,Y,,,,,,,f,18,
17,4,259,1,1,6,['k'],['k'],Y,N,None,Y,,,,,,,f,18,
17,5,260,2,2,6,['d'],['d'],Y,N,None,Y,,,,,,,f,18,
17,6,261,6,6,6,['d'],['d'],Y,Y,None,N,,,,,,,f,18,
17,7,262,7,7,6,['k'],['k'],Y,N,None,Y,,,,,,,f,18,
17,8,263,14,14,6,['k'],['k'],Y,Y,['space'],Y,,,,,,,f,18,
17,9,264,9,9,6,['d'],['d'],Y,N,None,Y,,,,,,,f,18,
17,10,265,12,12,6,['k'],['k'],Y,N,None,Y,,,,,,,f,18,
17,11,266,1,1,6,['k'],['k'],Y,N,None,Y,,,,,,,f,18,
17,12,267,0,0,6,['d'],['k'],N,N,None,Y,,,,,,,f,18,
17,13,268,0,0,6,['k'],['d'],N,N,['space'],N,,,,,,,f,18,
17,14,269,10,10,6,['k'],['d'],N,Y,['space'],Y,,,,,,,f,18,
18,0,270,6,6,6,['k'],['k'],Y,Y,['space'],Y,,,,,,,f,18,
18,1,271,11,11,6,['k'],['d'],N,Y,['space'],Y,,,,,,,f,18,
18,2,272,10,10,6,['d'],['d'],Y,Y,['space'],Y,,,,,,,f,18,
18,3,273,5,5,6,['d'],['d'],Y,Y,['space'],Y,,,,,,,f,18,
18,4,274,4,4,6,['d'],['d'],Y,Y,['space'],Y,,,,,,,f,18,
18,5,275,7,7,6,['d'],['d'],Y,Y,['space'],Y,,,,,,,f,18,
18,6,276,8,8,6,['d'],['d'],Y,N,None,Y,,,,,,,f,18,
18,7,277,9,9,6,['d'],['d'],Y,Y,['space'],Y,,,,,,,f,18,
18,8,278,4,4,6,['k'],['d'],N,N,None,Y,,,,,,,f,18,
18,9,279,4,4,6,['d'],['k'],N,N,None,Y,,,,,,,f,18,
18,10,280,3,3,6,['d'],['d'],Y,N,None,Y,,,,,,,f,18,
18,11,281,10,10,6,['k'],['k'],Y,N,None,Y,,,,,,,f,18,
18,12,282,3,3,6,['d'],['d'],Y,Y,['space'],Y,,,,,,,f,18,
18,13,283,11,11,6,['d'],['d'],Y,N,None,Y,,,,,,,f,18,
18,14,284,1,1,6,['k'],['d'],N,N,['k'],N,,,,,,,f,18,
19,0,285,14,14,6,['d'],['k'],N,N,['space'],N,,,,,,,f,18,
19,1,286,7,7,6,['k'],['k'],Y,Y,['space'],Y,,,,,,,f,18,
19,2,287,8,8,6,['k'],['k'],Y,N,None,Y,,,,,,,f,18,
19,3,288,2,2,6,['k'],['d'],N,N,None,Y,,,,,,,f,18,
19,4,289,4,4,6,['k'],['k'],Y,N,['space'],N,,,,,,,f,18,
19,5,290,6,6,6,['d'],['d'],Y,Y,None,N,,,,,,,f,18,
19,6,291,2,2,6,['k'],['k'],Y,Y,None,N,,,,,,,f,18,
19,7,292,13,13,6,['d'],['d'],Y,N,None,Y,,,,,,,f,18,
19,8,293,6,6,6,['d'],['d'],Y,Y,None,N,,,,,,,f,18,
19,9,294,12,12,6,['d'],['d'],Y,Y,['space'],Y,,,,,,,f,18,
19,10,295,0,0,6,['k'],['d'],N,N,None,Y,,,,,,,f,18,
19,11,296,11,11,6,['d'],['d'],Y,Y,['space'],Y,,,,,,,f,18,
19,12,297,14,14,6,['d'],['d'],Y,Y,['space'],Y,,,,,,,f,18,
19,13,298,8,8,6,['d'],['d'],Y,Y,['space'],Y,,,,,,,f,18,
19,14,299,5,5,6,['k'],['k'],Y,Y,['space'],Y,40,39,24,,,,f,18,
20,0,300,8,8,7,['k'],['k'],Y,,,,,,,,,,f,18,
20,1,301,6,6,7,['k'],['k'],Y,,,,,,,,,,f,18,
20,2,302,11,11,7,['k'],['k'],Y,N,None,Y,,,,,,,f,18,
20,3,303,11,11,7,['k'],['k'],Y,N,None,Y,,,,,,,f,18,
20,4,304,12,12,7,['k'],['d'],N,Y,['space'],Y,,,,,,,f,18,
20,5,305,8,8,7,['k'],['k'],Y,Y,['space'],Y,,,,,,,f,18,
20,6,306,8,8,7,['k'],['k'],Y,Y,['space'],Y,,,,,,,f,18,
20,7,307,11,11,7,['d'],['d'],Y,Y,['space'],Y,,,,,,,f,18,
20,8,308,3,3,7,['k'],['k'],Y,Y,None,N,,,,,,,f,18,
20,9,309,4,4,7,['k'],['k'],Y,N,['space'],N,,,,,,,f,18,
20,10,310,12,12,7,['d'],['d'],Y,Y,['space'],Y,,,,,,,f,18,
20,11,311,0,0,7,['k'],['k'],Y,Y,['space'],Y,,,,,,,f,18,
20,12,312,7,7,7,['k'],['d'],N,N,None,Y,,,,,,,f,18,
20,13,313,1,1,7,['k'],['d'],N,Y,['space'],Y,,,,,,,f,18,
20,14,314,1,1,7,['d'],['d'],Y,N,['space'],N,,,,,,,f,18,
21,0,315,5,5,7,['d'],['d'],Y,N,['space'],N,,,,,,,f,18,
21,1,316,11,11,7,['d'],['d'],Y,N,None,Y,,,,,,,f,18,
21,2,317,7,7,7,['k'],['d'],N,N,None,Y,,,,,,,f,18,
21,3,318,12,12,7,['k'],['k'],Y,Y,['space'],Y,,,,,,,f,18,
21,4,319,9,9,7,['d'],['k'],N,N,None,Y,,,,,,,f,18,
21,5,320,5,5,7,['k'],['k'],Y,Y,None,N,,,,,,,f,18,
21,6,321,0,0,7,['d'],['d'],Y,N,None,Y,,,,,,,f,18,
21,7,322,5,5,7,['k'],['k'],Y,Y,['space'],Y,,,,,,,f,18,
21,8,323,5,5,7,['k'],['k'],Y,N,['d'],N,,,,,,,f,18,
21,9,324,9,9,7,['d'],['d'],Y,N,None,Y,,,,,,,f,18,
21,10,325,8,8,7,['d'],['d'],Y,N,None,Y,,,,,,,f,18,
21,11,326,9,9,7,['k'],['k'],Y,N,['space'],N,,,,,,,f,18,
21,12,327,14,14,7,['d'],['d'],Y,N,None,Y,,,,,,,f,18,
21,13,328,12,12,7,['k'],['k'],Y,N,None,Y,,,,,,,f,18,
21,14,329,12,12,7,['d'],['d'],Y,Y,['space'],Y,,,,,,,f,18,
22,0,330,12,12,7,['d'],['d'],Y,Y,['space'],Y,,,,,,,f,18,
22,1,331,6,6,7,['k'],['k'],Y,Y,['space'],Y,,,,,,,f,18,
22,2,332,9,9,7,['k'],['d'],N,Y,['space'],Y,,,,,,,f,18,
22,3,333,3,3,7,['d'],['d'],Y,N,None,Y,,,,,,,f,18,
22,4,334,12,12,7,['k'],['k'],Y,Y,['space'],Y,,,,,,,f,18,
22,5,335,0,0,7,['d'],['d'],Y,N,None,Y,,,,,,,f,18,
22,6,336,3,3,7,['d'],['d'],Y,N,None,Y,,,,,,,f,18,
22,7,337,3,3,7,['k'],['d'],N,N,None,Y,,,,,,,f,18,
22,8,338,9,9,7,['d'],['k'],N,Y,['space'],Y,,,,,,,f,18,
22,9,339,6,6,7,['d'],['d'],Y,N,None,Y,,,,,,,f,18,
22,10,340,5,5,7,['k'],['k'],Y,N,None,Y,,,,,,,f,18,
22,11,341,9,9,7,['k'],['d'],N,N,None,Y,,,,,,,f,18,
22,12,342,14,14,7,['k'],['k'],Y,Y,['space'],Y,,,,,,,f,18,
22,13,343,7,7,7,['k'],['k'],Y,N,None,Y,,,,,,,f,18,
22,14,344,13,13,7,['d'],['d'],Y,N,None,Y,,,,,,,f,18,
23,0,345,9,9,7,['k'],['k'],Y,N,['space'],N,,,,,,,f,18,
23,1,346,12,12,7,['d'],['k'],N,N,None,Y,,,,,,,f,18,
23,2,347,6,6,7,['d'],['d'],Y,N,None,Y,,,,,,,f,18,
23,3,348,11,11,7,['k'],['d'],N,Y,['space'],Y,,,,,,,f,18,
23,4,349,4,4,7,['k'],['k'],Y,Y,['space'],Y,39,40,20,,,,f,18,
23,5,350,0,0,8,['k'],['k'],Y,,,,,,,,,,f,18,
23,6,351,2,2,8,['k'],['k'],Y,,,,,,,,,,f,18,
23,7,352,7,7,8,['k'],['k'],Y,Y,['space'],Y,,,,,,,f,18,
23,8,353,14,14,8,['d'],['d'],Y,Y,['space'],Y,,,,,,,f,18,
23,9,354,11,11,8,['d'],['d'],Y,N,None,Y,,,,,,,f,18,
23,10,355,14,14,8,['k'],['d'],N,N,None,Y,,,,,,,f,18,
23,11,356,14,14,8,['d'],['d'],Y,Y,['space'],Y,,,,,,,f,18,
23,12,357,9,9,8,['k'],['k'],Y,Y,None,N,,,,,,,f,18,
23,13,358,11,11,8,['d'],['k'],N,Y,['space'],Y,,,,,,,f,18,
23,14,359,14,14,8,['d'],['d'],Y,N,None,Y,,,,,,,f,18,
24,0,360,0,0,8,['d'],['d'],Y,N,None,Y,,,,,,,f,18,
24,1,361,2,2,8,['k'],['k'],Y,Y,['space'],Y,,,,,,,f,18,
24,2,362,14,14,8,['d'],['d'],Y,N,None,Y,,,,,,,f,18,
24,3,363,11,11,8,['d'],['d'],Y,Y,['space'],Y,,,,,,,f,18,
24,4,364,1,1,8,['d'],['d'],Y,N,None,Y,,,,,,,f,18,
24,5,365,10,10,8,['d'],['d'],Y,Y,['space'],Y,,,,,,,f,18,
24,6,366,9,9,8,['d'],['d'],Y,N,None,Y,,,,,,,f,18,
24,7,367,13,13,8,['d'],['d'],Y,Y,['space'],Y,,,,,,,f,18,
24,8,368,8,8,8,['k'],['k'],Y,N,['space'],N,,,,,,,f,18,
24,9,369,4,4,8,['k'],['d'],N,N,None,Y,,,,,,,f,18,
24,10,370,10,10,8,['d'],['d'],Y,Y,['space'],Y,,,,,,,f,18,
24,11,371,9,9,8,['k'],['d'],N,N,['k'],N,,,,,,,f,18,
24,12,372,0,0,8,['k'],['k'],Y,N,None,Y,,,,,,,f,18,
24,13,373,11,11,8,['k'],['k'],Y,N,None,Y,,,,,,,f,18,
24,14,374,7,7,8,['k'],['k'],Y,N,None,Y,,,,,,,f,18,
25,0,375,8,8,8,['k'],['k'],Y,Y,['space'],Y,,,,,,,f,18,
25,1,376,13,13,8,['k'],['k'],Y,Y,['space'],Y,,,,,,,f,18,
25,2,377,2,2,8,['k'],['k'],Y,Y,['space'],Y,,,,,,,f,18,
25,3,378,3,3,8,['k'],['d'],N,Y,['space'],Y,,,,,,,f,18,
25,4,379,8,8,8,['d'],['d'],Y,N,None,Y,,,,,,,f,18,
25,5,380,5,5,8,['d'],['d'],Y,Y,['space'],Y,,,,,,,f,18,
25,6,381,9,9,8,['k'],['k'],Y,N,None,Y,,,,,,,f,18,
25,7,382,13,13,8,['k'],['k'],Y,N,None,Y,,,,,,,f,18,
25,8,383,13,13,8,['d'],['d'],Y,Y,['space'],Y,,,,,,,f,18,
25,9,384,0,0,8,['d'],['d'],Y,Y,['space'],Y,,,,,,,f,18,
25,10,385,6,6,8,['d'],['d'],Y,Y,None,N,,,,,,,f,18,
25,11,386,3,3,8,['d'],['k'],N,N,None,Y,,,,,,,f,18,
25,12,387,14,14,8,['k'],['d'],N,N,['space'],N,,,,,,,f,18,
25,13,388,9,9,8,['k'],['k'],Y,N,['d'],N,,,,,,,f,18,
25,14,389,2,2,8,['k'],['k'],Y,N,None,Y,,,,,,,f,18,
26,0,390,2,2,8,['k'],['k'],Y,N,['space'],N,,,,,,,f,18,
26,1,391,9,9,8,['k'],['k'],Y,N,None,Y,,,,,,,f,18,
26,2,392,7,7,8,['k'],['k'],Y,N,None,Y,,,,,,,f,18,
26,3,393,10,10,8,['d'],['d'],Y,Y,['space'],Y,,,,,,,f,18,
26,4,394,10,10,8,['k'],['k'],Y,Y,['space'],Y,,,,,,,f,18,
26,5,395,8,8,8,['k'],['k'],Y,Y,['space'],Y,,,,,,,f,18,
26,6,396,3,3,8,['d'],['d'],Y,N,None,Y,,,,,,,f,18,
26,7,397,9,9,8,['k'],['d'],N,N,['space'],N,,,,,,,f,18,
26,8,398,12,12,8,['k'],['k'],Y,N,None,Y,,,,,,,f,18,
26,9,399,4,4,8,['d'],['k'],N,Y,['space'],Y,41,40,22,,,,f,18,
26,10,400,5,5,9,['k'],['k'],Y,,,,,,,,,,f,18,
26,11,401,5,5,9,['d'],['d'],Y,,,,,,,,,,f,18,
26,12,402,0,0,9,['k'],['k'],Y,Y,['space'],Y,,,,,,,f,18,
26,13,403,7,7,9,['k'],['k'],Y,Y,['space'],Y,,,,,,,f,18,
26,14,404,0,0,9,['d'],['d'],Y,N,None,Y,,,,,,,f,18,
27,0,405,12,12,9,['d'],['d'],Y,N,None,Y,,,,,,,f,18,
27,1,406,8,8,9,['d'],['d'],Y,Y,None,N,,,,,,,f,18,
27,2,407,11,11,9,['d'],['d'],Y,N,None,Y,,,,,,,f,18,
27,3,408,5,5,9,['d'],['d'],Y,Y,['space'],Y,,,,,,,f,18,
27,4,409,12,12,9,['k'],['k'],Y,Y,None,N,,,,,,,f,18,
27,5,410,14,14,9,['k'],['k'],Y,Y,['space'],Y,,,,,,,f,18,
27,6,411,7,7,9,['k'],['k'],Y,N,None,Y,,,,,,,f,18,
27,7,412,13,13,9,['k'],['k'],Y,N,None,Y,,,,,,,f,18,
27,8,413,11,11,9,['k'],['k'],Y,N,['space'],N,,,,,,,f,18,
27,9,414,11,11,9,['k'],['k'],Y,Y,['space'],Y,,,,,,,f,18,
27,10,415,1,1,9,['d'],['d'],Y,Y,['space'],Y,,,,,,,f,18,
27,11,416,2,2,9,['k'],['k'],Y,N,None,Y,,,,,,,f,18,
27,12,417,8,8,9,['d'],['k'],N,Y,None,N,,,,,,,f,18,
27,13,418,8,8,9,['k'],['k'],Y,N,None,Y,,,,,,,f,18,
27,14,419,5,5,9,['k'],['k'],Y,Y,['space'],Y,,,,,,,f,18,
28,0,420,7,7,9,['k'],['d'],N,N,None,Y,,,,,,,f,18,
28,1,421,10,10,9,['k'],['d'],N,Y,['space'],Y,,,,,,,f,18,
28,2,422,8,8,9,['k'],['k'],Y,Y,['space'],Y,,,,,,,f,18,
28,3,423,12,12,9,['d'],['d'],Y,Y,None,N,,,,,,,f,18,
28,4,424,4,4,9,['k'],['k'],Y,N,None,Y,,,,,,,f,18,
28,5,425,11,11,9,['k'],['k'],Y,N,None,Y,,,,,,,f,18,
28,6,426,10,10,9,['k'],['d'],N,N,None,Y,,,,,,,f,18,
28,7,427,1,1,9,['k'],['d'],N,Y,['space'],Y,,,,,,,f,18,
28,8,428,2,2,9,['k'],['k'],Y,N,None,Y,,,,,,,f,18,
28,9,429,0,0,9,['d'],['k'],N,N,None,Y,,,,,,,f,18,
28,10,430,5,5,9,['d'],['k'],N,N,None,Y,,,,,,,f,18,
28,11,431,14,14,9,['d'],['d'],Y,Y,['space'],Y,,,,,,,f,18,
28,12,432,3,3,9,['d'],['d'],Y,Y,['space'],Y,,,,,,,f,18,
28,13,433,0,0,9,['d'],['d'],Y,Y,['space'],Y,,,,,,,f,18,
28,14,434,7,7,9,['k'],['k'],Y,N,None,Y,,,,,,,f,18,
29,0,435,1,1,9,['d'],['d'],Y,N,None,Y,,,,,,,f,18,
29,1,436,13,13,9,['d'],['d'],Y,N,None,Y,,,,,,,f,18,
29,2,437,9,9,9,['k'],['k'],Y,N,['space'],N,,,,,,,f,18,
29,3,438,13,13,9,['d'],['d'],Y,Y,['space'],Y,,,,,,,f,18,
29,4,439,3,3,9,['k'],['k'],Y,Y,None,N,,,,,,,f,18,
29,5,440,4,4,9,['d'],['d'],Y,N,None,Y,,,,,,,f,18,
29,6,441,10,10,9,['d'],['d'],Y,N,None,Y,,,,,,,f,18,
29,7,442,11,11,9,['k'],['k'],Y,Y,['space'],Y,,,,,,,f,18,
29,8,443,10,10,9,['d'],['d'],Y,Y,['space'],Y,,,,,,,f,18,
29,9,444,14,14,9,['k'],['k'],Y,N,None,Y,,,,,,,f,18,
29,10,445,1,1,9,['d'],['d'],Y,Y,['space'],Y,,,,,,,f,18,
29,11,446,13,13,9,['k'],['k'],Y,Y,['space'],Y,,,,,,,f,18,
29,12,447,1,1,9,['d'],['d'],Y,N,None,Y,,,,,,,f,18,
29,13,448,5,5,9,['k'],['k'],Y,N,None,Y,,,,,,,f,18,
29,14,449,13,13,9,['k'],['k'],Y,Y,['space'],Y,43,41,24,,,,f,18,
30,0,450,8,8,10,['k'],['k'],Y,,,,,,,,,,f,18,
30,1,451,6,6,10,['k'],['k'],Y,,,,,,,,,,f,18,
30,2,452,3,3,10,['k'],['k'],Y,Y,['space'],Y,,,,,,,f,18,
30,3,453,2,2,10,['d'],['d'],Y,Y,['space'],Y,,,,,,,f,18,
30,4,454,8,8,10,['d'],['d'],Y,Y,['space'],Y,,,,,,,f,18,
30,5,455,3,3,10,['k'],['k'],Y,Y,['space'],Y,,,,,,,f,18,
30,6,456,14,14,10,['k'],['k'],Y,Y,['d'],N,,,,,,,f,18,
30,7,457,6,6,10,['d'],['k'],N,N,['space'],N,,,,,,,f,18,
30,8,458,5,5,10,['k'],['k'],Y,N,None,Y,,,,,,,f,18,
30,9,459,10,10,10,['d'],['d'],Y,Y,['space'],Y,,,,,,,f,18,
30,10,460,0,0,10,['k'],['k'],Y,N,None,Y,,,,,,,f,18,
30,11,461,4,4,10,['k'],['k'],Y,Y,['space'],Y,,,,,,,f,18,
30,12,462,1,1,10,['k'],['k'],Y,Y,['space'],Y,,,,,,,f,18,
30,13,463,9,9,10,['d'],['d'],Y,Y,['space'],Y,,,,,,,f,18,
30,14,464,0,0,10,['k'],['k'],Y,Y,['space'],Y,,,,,,,f,18,
31,0,465,0,0,10,['d'],['d'],Y,N,None,Y,,,,,,,f,18,
31,1,466,9,9,10,['k'],['k'],Y,Y,['space'],Y,,,,,,,f,18,
31,2,467,7,7,10,['d'],['d'],Y,N,None,Y,,,,,,,f,18,
31,3,468,13,13,10,['k'],['d'],N,Y,['space'],Y,,,,,,,f,18,
31,4,469,10,10,10,['d'],['d'],Y,Y,['space'],Y,,,,,,,f,18,
31,5,470,7,7,10,['d'],['d'],Y,Y,['space'],Y,,,,,,,f,18,
31,6,471,7,7,10,['d'],['d'],Y,N,None,Y,,,,,,,f,18,
31,7,472,10,10,10,['d'],['k'],N,N,None,Y,,,,,,,f,18,
31,8,473,5,5,10,['k'],['k'],Y,Y,['space'],Y,,,,,,,f,18,
31,9,474,0,0,10,['d'],['d'],Y,N,None,Y,,,,,,,f,18,
31,10,475,0,0,10,['k'],['k'],Y,N,None,Y,,,,,,,f,18,
31,11,476,4,4,10,['d'],['k'],N,N,None,Y,,,,,,,f,18,
31,12,477,12,12,10,['d'],['d'],Y,N,None,Y,,,,,,,f,18,
31,13,478,0,0,10,['k'],['d'],N,N,None,Y,,,,,,,f,18,
31,14,479,8,8,10,['d'],['d'],Y,Y,['space'],Y,,,,,,,f,18,
32,0,480,13,13,10,['d'],['d'],Y,N,None,Y,,,,,,,f,18,
32,1,481,1,1,10,['d'],['d'],Y,Y,['space'],Y,,,,,,,f,18,
32,2,482,6,6,10,['k'],['k'],Y,N,None,Y,,,,,,,f,18,
32,3,483,2,2,10,['k'],['d'],N,N,None,Y,,,,,,,f,18,
32,4,484,14,14,10,['k'],['k'],Y,Y,['space'],Y,,,,,,,f,18,
32,5,485,14,14,10,['k'],['k'],Y,N,None,Y,,,,,,,f,18,
32,6,486,8,8,10,['k'],['k'],Y,Y,['space'],Y,,,,,,,f,18,
32,7,487,10,10,10,['d'],['d'],Y,Y,None,N,,,,,,,f,18,
32,8,488,6,6,10,['k'],['k'],Y,N,None,Y,,,,,,,f,18,
32,9,489,3,3,10,['k'],['k'],Y,N,None,Y,,,,,,,f,18,
32,10,490,1,1,10,['k'],['d'],N,N,None,Y,,,,,,,f,18,
32,11,491,11,11,10,['d'],['k'],N,N,None,Y,,,,,,,f,18,
32,12,492,11,11,10,['k'],['k'],Y,Y,['space'],Y,,,,,,,f,18,
32,13,493,4,4,10,['k'],['k'],Y,Y,['space'],Y,,,,,,,f,18,
32,14,494,11,11,10,['d'],['k'],N,N,['space'],N,,,,,,,f,18,
33,0,495,7,7,10,['d'],['d'],Y,Y,['space'],Y,,,,,,,f,18,
33,1,496,12,12,10,['k'],['k'],Y,N,None,Y,,,,,,,f,18,
33,2,497,13,13,10,['k'],['k'],Y,Y,['space'],Y,,,,,,,f,18,
33,3,498,13,13,10,['d'],['k'],N,N,None,Y,,,,,,,f,18,
33,4,499,4,4,10,['d'],['k'],N,N,None,Y,39,44,24,,,,f,18,
33,5,500,7,7,11,['d'],['d'],N,,,,,,,Y,Y,Y,f,18,
33,6,501,1,1,11,['d'],['d'],N,,,,,,,,Y,Y,f,18,
33,7,502,6,6,11,['d'],['k'],Y,Y,['space'],Y,,,,,Y,Y,f,18,
33,8,503,7,7,11,['d'],['d'],N,N,['space'],N,,,,,Y,Y,f,18,
33,9,504,3,3,11,['d'],['k'],Y,Y,['space'],Y,,,,,Y,Y,f,18,
33,10,505,3,3,11,['d'],['k'],Y,Y,['space'],Y,,,,,Y,Y,f,18,
33,11,506,9,9,11,['k'],['d'],Y,Y,['space'],Y,,,,,Y,Y,f,18,
33,12,507,11,11,11,['d'],['k'],Y,N,['space'],N,,,,,Y,Y,f,18,
33,13,508,14,14,11,['k'],['d'],Y,Y,['space'],Y,,,,,Y,Y,f,18,
33,14,509,0,0,11,['d'],['k'],Y,Y,['space'],Y,,,,,Y,Y,f,18,
34,0,510,10,10,11,['d'],['k'],Y,Y,['d'],N,,,,,Y,Y,f,18,
34,1,511,10,10,11,['k'],['d'],Y,Y,None,N,,,,,Y,Y,f,18,
34,2,512,2,2,11,['d'],['d'],N,Y,None,N,,,,,Y,Y,f,18,
34,3,513,8,8,11,['d'],['d'],N,Y,['space'],Y,,,,,Y,Y,f,18,
34,4,514,6,6,11,['k'],['d'],Y,Y,['space'],Y,,,,,Y,Y,f,18,
34,5,515,14,14,11,['d'],['d'],N,N,None,Y,,,,,Y,Y,f,18,
34,6,516,13,13,11,['d'],['d'],N,N,None,Y,,,,,Y,Y,f,18,
34,7,517,4,4,11,['d'],['k'],Y,Y,['space'],Y,,,,,Y,Y,f,18,
34,8,518,13,13,11,['k'],['d'],Y,N,['space'],N,,,,,Y,Y,f,18,
34,9,519,12,12,11,['d'],['k'],Y,N,None,Y,,,,,Y,Y,f,18,
34,10,520,11,11,11,['k'],['d'],Y,N,['space'],N,,,,,Y,Y,f,18,
34,11,521,0,0,11,['d'],['d'],N,N,None,Y,,,,,Y,Y,f,18,
34,12,522,5,5,11,['k'],['k'],N,Y,['space'],Y,,,,,Y,Y,f,18,
34,13,523,13,13,11,['k'],['d'],Y,Y,['space'],Y,,,,,Y,Y,f,18,
34,14,524,6,6,11,['d'],['d'],N,Y,['space'],Y,,,,,Y,Y,f,18,
35,0,525,6,6,11,['k'],['d'],Y,Y,['space'],Y,,,,,Y,Y,f,18,
35,1,526,4,4,11,['k'],['d'],Y,N,None,Y,,,,,Y,Y,f,18,
35,2,527,9,9,11,['k'],['d'],Y,Y,['space'],Y,,,,,Y,Y,f,18,
35,3,528,3,3,11,['d'],['d'],N,Y,['space'],Y,,,,,Y,Y,f,18,
35,4,529,6,6,11,['k'],['d'],Y,N,None,Y,,,,,Y,Y,f,18,
35,5,530,12,12,11,['k'],['d'],Y,N,None,Y,,,,,Y,Y,f,18,
35,6,531,10,10,11,['k'],['d'],Y,N,None,Y,,,,,Y,Y,f,18,
35,7,532,11,11,11,['d'],['k'],Y,N,None,Y,,,,,Y,Y,f,18,
35,8,533,10,10,11,['k'],['d'],Y,N,None,Y,,,,,Y,Y,f,18,
35,9,534,3,3,11,['k'],['k'],N,N,None,Y,,,,,Y,Y,f,18,
35,10,535,0,0,11,['d'],['k'],Y,N,None,Y,,,,,Y,Y,f,18,
35,11,536,7,7,11,['d'],['d'],N,N,None,Y,,,,,Y,Y,f,18,
35,12,537,2,2,11,['k'],['d'],Y,Y,['space'],Y,,,,,Y,Y,f,18,
35,13,538,1,1,11,['d'],['k'],Y,Y,['space'],Y,,,,,Y,Y,f,18,
35,14,539,0,0,11,['d'],['k'],Y,Y,['space'],Y,,,,,Y,Y,f,18,
36,0,540,0,0,11,['k'],['d'],Y,N,['space'],N,,,,,Y,Y,f,18,
36,1,541,9,9,11,['k'],['k'],N,Y,['space'],Y,,,,,Y,Y,f,18,
36,2,542,0,0,11,['d'],['k'],Y,N,None,Y,,,,,Y,Y,f,18,
36,3,543,4,4,11,['k'],['d'],Y,N,None,Y,,,,,Y,Y,f,18,
36,4,544,10,10,11,['d'],['d'],N,N,None,Y,,,,,Y,Y,f,18,
36,5,545,7,7,11,['d'],['k'],Y,Y,['space'],Y,,,,,Y,Y,f,18,
36,6,546,1,1,11,['d'],['k'],Y,Y,['space'],Y,,,,,Y,Y,f,18,
36,7,547,8,8,11,['k'],['d'],Y,N,None,Y,,,,,Y,Y,f,18,
36,8,548,10,10,11,['d'],['k'],Y,Y,"['d', 'space']",N,,,,,Y,Y,f,18,
36,9,549,0,0,11,['k'],['d'],Y,N,None,Y,35,39,25,,Y,Y,f,18,
36,10,550,12,12,12,['d'],['k'],Y,,,,,,,,Y,Y,f,18,
36,11,551,6,6,12,['k'],['d'],Y,,,,,,,,Y,Y,f,18,
36,12,552,4,4,12,['d'],['d'],N,N,None,Y,,,,,Y,Y,f,18,
36,13,553,14,14,12,['k'],['d'],Y,N,None,Y,,,,,Y,Y,f,18,
36,14,554,1,1,12,['d'],['k'],Y,N,None,Y,,,,,Y,Y,f,18,
37,0,555,9,9,12,['k'],['d'],Y,N,None,Y,,,,,Y,Y,f,18,
37,1,556,0,0,12,['d'],['k'],Y,N,None,Y,,,,,Y,Y,f,18,
37,2,557,2,2,12,['d'],['k'],Y,Y,['space'],Y,,,,,Y,Y,f,18,
37,3,558,13,13,12,['d'],['k'],Y,Y,['space'],Y,,,,,Y,Y,f,18,
37,4,559,13,13,12,['d'],['k'],Y,N,['space'],N,,,,,Y,Y,f,18,
37,5,560,5,5,12,['d'],['k'],Y,N,None,Y,,,,,Y,Y,f,18,
37,6,561,12,12,12,['d'],['d'],N,Y,None,N,,,,,Y,Y,f,18,
37,7,562,2,2,12,['k'],['d'],Y,Y,['space'],Y,,,,,Y,Y,f,18,
37,8,563,6,6,12,['k'],['d'],Y,N,None,Y,,,,,Y,Y,f,18,
37,9,564,8,8,12,['k'],['d'],Y,N,None,Y,,,,,Y,Y,f,18,
37,10,565,13,13,12,['k'],['d'],Y,Y,['space'],Y,,,,,Y,Y,f,18,
37,11,566,4,4,12,['d'],['k'],Y,Y,['space'],Y,,,,,Y,Y,f,18,
37,12,567,5,5,12,['k'],['k'],N,Y,['space'],Y,,,,,Y,Y,f,18,
37,13,568,1,1,12,['d'],['k'],Y,Y,['space'],Y,,,,,Y,Y,f,18,
37,14,569,14,14,12,['d'],['k'],Y,Y,['space'],Y,,,,,Y,Y,f,18,
38,0,570,1,1,12,['k'],['d'],Y,Y,['space'],Y,,,,,Y,Y,f,18,
38,1,571,4,4,12,['d'],['k'],Y,N,None,Y,,,,,Y,Y,f,18,
38,2,572,8,8,12,['k'],['d'],Y,N,None,Y,,,,,Y,Y,f,18,
38,3,573,7,7,12,['d'],['k'],Y,N,None,Y,,,,,Y,Y,f,18,
38,4,574,10,10,12,['k'],['d'],Y,Y,['space'],Y,,,,,Y,Y,f,18,
38,5,575,1,1,12,['k'],['d'],Y,Y,['space'],Y,,,,,Y,Y,f,18,
38,6,576,11,11,12,['k'],['k'],N,N,None,Y,,,,,Y,Y,f,18,
38,7,577,14,14,12,['d'],['k'],Y,N,None,Y,,,,,Y,Y,f,18,
38,8,578,14,14,12,['d'],['k'],Y,N,['k'],N,,,,,Y,Y,f,18,
38,9,579,5,5,12,['k'],['d'],Y,N,None,Y,,,,,Y,Y,f,18,
38,10,580,3,3,12,['k'],['d'],Y,Y,['space'],Y,,,,,Y,Y,f,18,
38,11,581,8,8,12,['k'],['d'],Y,Y,['space'],Y,,,,,Y,Y,f,18,
38,12,582,1,1,12,['d'],['k'],Y,Y,['space'],Y,,,,,Y,Y,f,18,
38,13,583,13,13,12,['k'],['d'],Y,N,['space'],N,,,,,Y,Y,f,18,
38,14,584,5,5,12,['d'],['d'],N,Y,['space'],Y,,,,,Y,Y,f,18,
39,0,585,3,3,12,['d'],['k'],Y,N,None,Y,,,,,Y,Y,f,18,
39,1,586,0,0,12,['d'],['k'],Y,N,None,Y,,,,,Y,Y,f,18,
39,2,587,7,7,12,['k'],['d'],Y,Y,['space'],Y,,,,,Y,Y,f,18,
39,3,588,5,5,12,['d'],['k'],Y,Y,['space'],Y,,,,,Y,Y,f,18,
39,4,589,6,6,12,['k'],['d'],Y,Y,['space'],Y,,,,,Y,Y,f,18,
39,5,590,13,13,12,['k'],['d'],Y,Y,['space'],Y,,,,,Y,Y,f,18,
39,6,591,6,6,12,['k'],['k'],N,Y,['space'],Y,,,,,Y,Y,f,18,
39,7,592,12,12,12,['k'],['d'],Y,N,None,Y,,,,,Y,Y,f,18,
39,8,593,6,6,12,['k'],['d'],Y,Y,['space'],Y,,,,,Y,Y,f,18,
39,9,594,12,12,12,['k'],['d'],Y,Y,['space'],Y,,,,,Y,Y,f,18,
39,10,595,5,5,12,['d'],['k'],Y,Y,['space'],Y,,,,,Y,Y,f,18,
39,11,596,0,0,12,['d'],['k'],Y,N,None,Y,,,,,Y,Y,f,18,
39,12,597,6,6,12,['k'],['k'],N,N,None,Y,,,,,Y,Y,f,18,
39,13,598,0,0,12,['k'],['d'],Y,N,None,Y,,,,,Y,Y,f,18,
39,14,599,7,7,12,['k'],['d'],Y,N,None,Y,43,44,24,,Y,Y,f,18,
