.thisRepN,.thisTrialN,.thisN,.thisIndex,.thisTrial,Block Number,Key pressed,Category,Correct?,Int Match?,Int Response,Int Correct?,Line Accuracy,Interference Accuracy,Matching Interferences,New instruction shown?,Buttons switched?,Fast?,gender,age,
0,0,0,10,10,1,['d'],['d'],Y,,,,,,,,,,m,23,
0,1,1,7,7,1,['k'],['k'],Y,,,,,,,,,,m,23,
0,2,2,10,10,1,['k'],['d'],N,Y,None,N,,,,,,,m,23,
0,3,3,4,4,1,['d'],['d'],Y,N,None,Y,,,,,,,m,23,
0,4,4,4,4,1,['k'],['k'],Y,Y,['d'],N,,,,,,,m,23,
0,5,5,8,8,1,['k'],['k'],Y,Y,['space'],Y,,,,,,,m,23,
0,6,6,2,2,1,['d'],['d'],Y,Y,['space'],Y,,,,,,,m,23,
0,7,7,10,10,1,['k'],['k'],Y,N,['d'],N,,,,,,,m,23,
0,8,8,1,1,1,['d'],['d'],Y,Y,['d'],N,,,,,,,m,23,
0,9,9,0,0,1,['d'],['d'],Y,Y,['space'],Y,,,,,,,m,23,
0,10,10,7,7,1,['k'],['k'],Y,N,['space'],N,,,,,,,m,23,
1,0,11,10,10,1,['d'],['k'],N,Y,['k'],N,,,,,,,m,23,
1,1,12,1,1,1,['d'],['d'],Y,Y,['space'],Y,,,,,,,m,23,
1,2,13,5,5,1,['d'],['d'],Y,N,['space'],N,,,,,,,m,23,
1,3,14,2,2,1,['k'],['d'],N,N,None,Y,,,,,,,m,23,
1,4,15,6,6,1,['d'],['d'],Y,N,None,Y,,,,,,,m,23,
1,5,16,6,6,1,['d'],['k'],N,N,None,Y,,,,,,,m,23,
1,6,17,6,6,1,['d'],['d'],Y,Y,['k'],N,,,,,,,m,23,
1,7,18,3,3,1,['k'],['k'],Y,Y,['k'],N,,,,,,,m,23,
1,8,19,7,7,1,['k'],['k'],Y,Y,['space'],Y,,,,,,,m,23,
1,9,20,5,5,1,['k'],['d'],N,Y,['k'],N,,,,,,,m,23,
1,10,21,1,1,1,['k'],['k'],Y,N,None,Y,,,,,,,m,23,
2,0,22,10,10,1,['d'],['d'],Y,N,['space'],N,,,,,,,m,23,
2,1,23,6,6,1,['k'],['k'],Y,N,None,Y,,,,,,,m,23,
2,2,24,6,6,1,['d'],['d'],Y,Y,['space'],Y,,,,,,,m,23,
2,3,25,10,10,1,['d'],['d'],Y,N,None,Y,,,,,,,m,23,
2,4,26,3,3,1,['k'],['k'],Y,Y,['space'],Y,,,,,,,m,23,
2,5,27,2,2,1,['k'],['k'],Y,N,None,Y,,,,,,,m,23,
2,6,28,1,1,1,['d'],['k'],N,N,None,Y,,,,,,,m,23,
2,7,29,7,7,1,['k'],['d'],N,Y,None,N,,,,,,,m,23,
2,8,30,8,8,1,['k'],['k'],Y,Y,['space'],Y,,,,,,,m,23,
2,9,31,8,8,1,['d'],['d'],Y,N,None,Y,,,,,,,m,23,
2,10,32,1,1,1,['k'],['d'],N,N,None,Y,,,,,,,m,23,
3,0,33,9,9,1,['k'],['d'],N,N,None,Y,,,,,,,m,23,
3,1,34,0,0,1,['k'],['k'],Y,N,None,Y,,,,,,,m,23,
3,2,35,5,5,1,['d'],['d'],Y,N,None,Y,,,,,,,m,23,
3,3,36,2,2,1,['k'],['d'],N,N,None,Y,,,,,,,m,23,
3,4,37,0,0,1,['d'],['d'],Y,N,None,Y,,,,,,,m,23,
3,5,38,4,4,1,['d'],['k'],N,Y,None,N,,,,,,,m,23,
3,6,39,10,10,1,['k'],['k'],Y,Y,None,N,,,,,,,m,23,
3,7,40,5,5,1,['d'],['d'],Y,N,None,Y,,,,,,,m,23,
3,8,41,7,7,1,['k'],['k'],Y,Y,None,N,,,,,,,m,23,
3,9,42,10,10,1,['k'],['k'],Y,N,None,Y,,,,,,,m,23,
3,10,43,6,6,1,['d'],['k'],N,Y,['space'],Y,,,,,,,m,23,
4,0,44,0,0,1,['d'],['d'],Y,Y,None,N,,,,,,,m,23,
4,1,45,1,1,1,['d'],['d'],Y,Y,['k'],N,,,,,,,m,23,
4,2,46,7,7,1,['d'],['d'],Y,N,['space'],N,,,,,,,m,23,
4,3,47,4,4,1,['d'],['d'],Y,N,None,Y,,,,,,,m,23,
4,4,48,6,6,1,['k'],['k'],Y,Y,['space'],Y,,,,,,,m,23,
4,5,49,5,5,1,['k'],['k'],Y,N,None,Y,38,30,23,,,,m,23,
4,6,50,6,6,2,['k'],['k'],Y,,,,,,,,,,m,23,
4,7,51,1,1,2,['k'],['k'],Y,,,,,,,,,,m,23,
4,8,52,1,1,2,['k'],['k'],Y,N,None,Y,,,,,,,m,23,
4,9,53,5,5,2,['k'],['k'],Y,N,None,Y,,,,,,,m,23,
4,10,54,0,0,2,['d'],['d'],Y,N,None,Y,,,,,,,m,23,
5,0,55,2,2,2,['k'],['k'],Y,Y,['space'],Y,,,,,,,m,23,
5,1,56,4,4,2,['d'],['d'],Y,Y,['space'],Y,,,,,,,m,23,
5,2,57,1,1,2,['d'],['d'],Y,N,None,Y,,,,,,,m,23,
5,3,58,4,4,2,['d'],['k'],N,N,None,Y,,,,,,,m,23,
5,4,59,1,1,2,['k'],['k'],Y,N,None,Y,,,,,,,m,23,
5,5,60,5,5,2,['d'],['d'],Y,N,['space'],N,,,,,,,m,23,
5,6,61,7,7,2,['k'],['k'],Y,Y,None,N,,,,,,,m,23,
5,7,62,6,6,2,['k'],['d'],N,N,None,Y,,,,,,,m,23,
5,8,63,1,1,2,['k'],['k'],Y,Y,None,N,,,,,,,m,23,
5,9,64,2,2,2,['k'],['k'],Y,Y,['space'],Y,,,,,,,m,23,
5,10,65,9,9,2,['k'],['k'],Y,Y,None,N,,,,,,,m,23,
6,0,66,1,1,2,['k'],['k'],Y,Y,None,N,,,,,,,m,23,
6,1,67,10,10,2,['d'],['d'],Y,N,None,Y,,,,,,,m,23,
6,2,68,10,10,2,['k'],['k'],Y,Y,['space'],Y,,,,,,,m,23,
6,3,69,7,7,2,['k'],['d'],N,N,None,Y,,,,,,,m,23,
6,4,70,6,6,2,['k'],['k'],Y,Y,['space'],Y,,,,,,,m,23,
6,5,71,8,8,2,['k'],['k'],Y,N,None,Y,,,,,,,m,23,
6,6,72,6,6,2,['k'],['k'],Y,N,['space'],N,,,,,,,m,23,
6,7,73,10,10,2,['k'],['k'],Y,Y,None,N,,,,,,,m,23,
6,8,74,0,0,2,['d'],['d'],Y,N,None,Y,,,,,,,m,23,
6,9,75,1,1,2,['k'],['k'],Y,Y,['space'],Y,,,,,,,m,23,
6,10,76,8,8,2,['k'],['d'],N,Y,['space'],Y,,,,,,,m,23,
7,0,77,10,10,2,['k'],['d'],N,N,None,Y,,,,,,,m,23,
7,1,78,10,10,2,['k'],['k'],Y,Y,['space'],Y,,,,,,,m,23,
7,2,79,9,9,2,['d'],['d'],Y,Y,None,N,,,,,,,m,23,
7,3,80,9,9,2,['d'],['d'],Y,N,None,Y,,,,,,,m,23,
7,4,81,2,2,2,['d'],['d'],Y,N,None,Y,,,,,,,m,23,
7,5,82,7,7,2,['d'],['d'],Y,N,None,Y,,,,,,,m,23,
7,6,83,2,2,2,['k'],['k'],Y,Y,None,N,,,,,,,m,23,
7,7,84,0,0,2,['d'],['d'],Y,N,['space'],N,,,,,,,m,23,
7,8,85,10,10,2,['d'],['d'],Y,N,None,Y,,,,,,,m,23,
7,9,86,9,9,2,['d'],['d'],Y,Y,['space'],Y,,,,,,,m,23,
7,10,87,1,1,2,['k'],['k'],Y,Y,None,N,,,,,,,m,23,
8,0,88,0,0,2,['k'],['k'],Y,Y,['space'],Y,,,,,,,m,23,
8,1,89,0,0,2,['k'],['k'],Y,Y,None,N,,,,,,,m,23,
8,2,90,1,1,2,['k'],['k'],Y,N,None,Y,,,,,,,m,23,
8,3,91,7,7,2,['d'],['k'],N,N,None,Y,,,,,,,m,23,
8,4,92,3,3,2,['d'],['d'],Y,N,None,Y,,,,,,,m,23,
8,5,93,6,6,2,['d'],['d'],Y,N,None,Y,,,,,,,m,23,
8,6,94,5,5,2,['k'],['k'],Y,N,None,Y,,,,,,,m,23,
8,7,95,7,7,2,['k'],['k'],Y,N,None,Y,,,,,,,m,23,
8,8,96,8,8,2,['d'],['d'],Y,Y,['space'],Y,,,,,,,m,23,
8,9,97,10,10,2,['d'],['k'],N,N,None,Y,,,,,,,m,23,
8,10,98,5,5,2,['k'],['k'],Y,Y,['space'],Y,,,,,,,m,23,
9,0,99,4,4,2,['k'],['k'],Y,N,None,Y,43,36,21,,,,m,23,
9,1,100,1,1,3,['d'],['d'],Y,,,,,,,,,,m,23,
9,2,101,10,10,3,['k'],['d'],N,,,,,,,,,,m,23,
9,3,102,9,9,3,['d'],['d'],Y,Y,['d'],N,,,,,,,m,23,
9,4,103,0,0,3,['d'],['k'],N,Y,None,N,,,,,,,m,23,
9,5,104,9,9,3,['d'],['d'],Y,Y,['space'],Y,,,,,,,m,23,
9,6,105,0,0,3,['d'],['d'],Y,N,None,Y,,,,,,,m,23,
9,7,106,0,0,3,['d'],['d'],Y,N,None,Y,,,,,,,m,23,
9,8,107,3,3,3,['d'],['d'],Y,Y,['space'],Y,,,,,,,m,23,
9,9,108,8,8,3,['d'],['d'],Y,Y,['space'],Y,,,,,,,m,23,
9,10,109,1,1,3,['k'],['k'],Y,Y,['space'],Y,,,,,,,m,23,
10,0,110,2,2,3,['k'],['k'],Y,N,None,Y,,,,,,,m,23,
10,1,111,1,1,3,['d'],['d'],Y,Y,['space'],Y,,,,,,,m,23,
10,2,112,6,6,3,['k'],['k'],Y,N,None,Y,,,,,,,m,23,
10,3,113,3,3,3,['d'],['d'],Y,Y,None,N,,,,,,,m,23,
10,4,114,10,10,3,['k'],['d'],N,N,None,Y,,,,,,,m,23,
10,5,115,4,4,3,['k'],['k'],Y,N,None,Y,,,,,,,m,23,
10,6,116,9,9,3,['d'],['d'],Y,Y,['space'],Y,,,,,,,m,23,
10,7,117,7,7,3,['d'],['d'],Y,Y,['space'],Y,,,,,,,m,23,
10,8,118,1,1,3,['d'],['d'],Y,Y,['space'],Y,,,,,,,m,23,
10,9,119,6,6,3,['d'],['d'],Y,N,None,Y,,,,,,,m,23,
10,10,120,3,3,3,['k'],['k'],Y,Y,None,N,,,,,,,m,23,
11,0,121,1,1,3,['k'],['k'],Y,N,None,Y,,,,,,,m,23,
11,1,122,7,7,3,['k'],['k'],Y,N,None,Y,,,,,,,m,23,
11,2,123,7,7,3,['k'],['k'],Y,Y,['space'],Y,,,,,,,m,23,
11,3,124,2,2,3,['d'],['d'],Y,N,None,Y,,,,,,,m,23,
11,4,125,10,10,3,['k'],['d'],N,N,None,Y,,,,,,,m,23,
11,5,126,7,7,3,['d'],['d'],Y,Y,['space'],Y,,,,,,,m,23,
11,6,127,2,2,3,['d'],['d'],Y,Y,['space'],Y,,,,,,,m,23,
11,7,128,5,5,3,['d'],['d'],Y,N,None,Y,,,,,,,m,23,
11,8,129,2,2,3,['k'],['k'],Y,N,['space'],N,,,,,,,m,23,
11,9,130,0,0,3,['d'],['k'],N,Y,['space'],Y,,,,,,,m,23,
11,10,131,1,1,3,['d'],['k'],N,N,None,Y,,,,,,,m,23,
12,0,132,10,10,3,['k'],['k'],Y,Y,['space'],Y,,,,,,,m,23,
12,1,133,10,10,3,['d'],['d'],Y,Y,['space'],Y,,,,,,,m,23,
12,2,134,4,4,3,['k'],['k'],Y,Y,['space'],Y,,,,,,,m,23,
12,3,135,7,7,3,['k'],['k'],Y,N,None,Y,,,,,,,m,23,
12,4,136,10,10,3,['k'],['k'],Y,N,None,Y,,,,,,,m,23,
12,5,137,10,10,3,['d'],['d'],Y,N,None,Y,,,,,,,m,23,
12,6,138,8,8,3,['k'],['k'],Y,Y,None,N,,,,,,,m,23,
12,7,139,7,7,3,['d'],['d'],Y,N,None,Y,,,,,,,m,23,
12,8,140,9,9,3,['d'],['d'],Y,Y,['space'],Y,,,,,,,m,23,
12,9,141,4,4,3,['k'],['k'],Y,N,None,Y,,,,,,,m,23,
12,10,142,5,5,3,['d'],['k'],N,Y,['space'],Y,,,,,,,m,23,
13,0,143,8,8,3,['k'],['d'],N,Y,['space'],Y,,,,,,,m,23,
13,1,144,5,5,3,['k'],['k'],Y,N,None,Y,,,,,,,m,23,
13,2,145,0,0,3,['d'],['d'],Y,N,None,Y,,,,,,,m,23,
13,3,146,10,10,3,['k'],['d'],N,N,None,Y,,,,,,,m,23,
13,4,147,8,8,3,['k'],['k'],Y,Y,['space'],Y,,,,,,,m,23,
13,5,148,2,2,3,['k'],['k'],Y,N,None,Y,,,,,,,m,23,
13,6,149,4,4,3,['d'],['k'],N,N,None,Y,40,42,24,,,,m,23,
13,7,150,3,3,4,['d'],['d'],Y,,,,,,,,,,m,23,
13,8,151,8,8,4,['k'],['d'],N,,,,,,,,,,m,23,
13,9,152,10,10,4,['k'],['k'],Y,Y,None,N,,,,,,,m,23,
13,10,153,5,5,4,['k'],['d'],N,N,None,Y,,,,,,,m,23,
14,0,154,8,8,4,['d'],['d'],Y,N,None,Y,,,,,,,m,23,
14,1,155,2,2,4,['k'],['k'],Y,N,None,Y,,,,,,,m,23,
14,2,156,10,10,4,['d'],['d'],Y,Y,None,N,,,,,,,m,23,
14,3,157,4,4,4,['k'],['k'],Y,N,None,Y,,,,,,,m,23,
14,4,158,7,7,4,['d'],['d'],Y,Y,['space'],Y,,,,,,,m,23,
14,5,159,4,4,4,['d'],['d'],Y,Y,['space'],Y,,,,,,,m,23,
14,6,160,5,5,4,['k'],['d'],N,N,None,Y,,,,,,,m,23,
14,7,161,5,5,4,['d'],['d'],Y,N,['space'],N,,,,,,,m,23,
14,8,162,5,5,4,['k'],['d'],N,Y,['space'],Y,,,,,,,m,23,
14,9,163,7,7,4,['k'],['d'],N,Y,['space'],Y,,,,,,,m,23,
14,10,164,0,0,4,['k'],['d'],N,Y,None,N,,,,,,,m,23,
15,0,165,1,1,4,['d'],['d'],Y,Y,['space'],Y,,,,,,,m,23,
15,1,166,1,1,4,['k'],['k'],Y,N,None,Y,,,,,,,m,23,
15,2,167,1,1,4,['d'],['d'],Y,Y,None,N,,,,,,,m,23,
15,3,168,10,10,4,['d'],['d'],Y,Y,None,N,,,,,,,m,23,
15,4,169,0,0,4,['d'],['d'],Y,Y,None,N,,,,,,,m,23,
15,5,170,7,7,4,['k'],['k'],Y,Y,['space'],Y,,,,,,,m,23,
15,6,171,3,3,4,['k'],['k'],Y,N,None,Y,,,,,,,m,23,
15,7,172,0,0,4,['k'],['k'],Y,Y,None,N,,,,,,,m,23,
15,8,173,2,2,4,['k'],['k'],Y,Y,['space'],Y,,,,,,,m,23,
15,9,174,2,2,4,['d'],['d'],Y,Y,None,N,,,,,,,m,23,
15,10,175,4,4,4,['k'],['k'],Y,N,None,Y,,,,,,,m,23,
16,0,176,4,4,4,['d'],['k'],N,N,['space'],N,,,,,,,m,23,
16,1,177,3,3,4,['k'],['k'],Y,N,None,Y,,,,,,,m,23,
16,2,178,5,5,4,['k'],['d'],N,N,['space'],N,,,,,,,m,23,
16,3,179,10,10,4,['k'],['k'],Y,N,None,Y,,,,,,,m,23,
16,4,180,8,8,4,['k'],['k'],Y,Y,None,N,,,,,,,m,23,
16,5,181,8,8,4,['k'],['k'],Y,Y,['space'],Y,,,,,,,m,23,
16,6,182,3,3,4,['k'],['k'],Y,N,None,Y,,,,,,,m,23,
16,7,183,6,6,4,['k'],['k'],Y,N,None,Y,,,,,,,m,23,
16,8,184,0,0,4,['d'],['d'],Y,Y,['space'],Y,,,,,,,m,23,
16,9,185,5,5,4,['k'],['d'],N,Y,None,N,,,,,,,m,23,
16,10,186,5,5,4,['d'],['d'],Y,N,None,Y,,,,,,,m,23,
17,0,187,9,9,4,['d'],['d'],Y,Y,None,N,,,,,,,m,23,
17,1,188,8,8,4,['d'],['d'],Y,Y,None,N,,,,,,,m,23,
17,2,189,0,0,4,['d'],['d'],Y,N,None,Y,,,,,,,m,23,
17,3,190,1,1,4,['k'],['d'],N,Y,None,N,,,,,,,m,23,
17,4,191,0,0,4,['k'],['k'],Y,Y,None,N,,,,,,,m,23,
17,5,192,2,2,4,['d'],['d'],Y,N,None,Y,,,,,,,m,23,
17,6,193,0,0,4,['d'],['d'],Y,N,None,Y,,,,,,,m,23,
17,7,194,3,3,4,['k'],['d'],N,N,['space'],N,,,,,,,m,23,
17,8,195,9,9,4,['d'],['d'],Y,Y,None,N,,,,,,,m,23,
17,9,196,9,9,4,['d'],['d'],Y,N,None,Y,,,,,,,m,23,
17,10,197,8,8,4,['d'],['d'],Y,Y,None,N,,,,,,,m,23,
18,0,198,0,0,4,['d'],['d'],Y,N,None,Y,,,,,,,m,23,
18,1,199,10,10,4,['d'],['k'],N,N,None,Y,38,28,25,,,,m,23,
18,2,200,2,2,5,['k'],['d'],N,,,,,,,,,,m,23,
18,3,201,1,1,5,['d'],['d'],Y,,,,,,,,,,m,23,
18,4,202,1,1,5,['k'],['k'],Y,N,None,Y,,,,,,,m,23,
18,5,203,9,9,5,['d'],['d'],Y,N,None,Y,,,,,,,m,23,
18,6,204,1,1,5,['d'],['d'],Y,Y,['space'],Y,,,,,,,m,23,
18,7,205,7,7,5,['d'],['d'],Y,N,None,Y,,,,,,,m,23,
18,8,206,1,1,5,['d'],['d'],Y,Y,None,N,,,,,,,m,23,
18,9,207,7,7,5,['k'],['d'],N,Y,None,N,,,,,,,m,23,
18,10,208,8,8,5,['k'],['k'],Y,Y,['space'],Y,,,,,,,m,23,
19,0,209,10,10,5,['k'],['k'],Y,Y,['space'],Y,,,,,,,m,23,
19,1,210,10,10,5,['k'],['k'],Y,N,None,Y,,,,,,,m,23,
19,2,211,3,3,5,['k'],['k'],Y,Y,None,N,,,,,,,m,23,
19,3,212,9,9,5,['d'],['d'],Y,N,None,Y,,,,,,,m,23,
19,4,213,3,3,5,['d'],['d'],Y,Y,None,N,,,,,,,m,23,
19,5,214,7,7,5,['k'],['k'],Y,Y,None,N,,,,,,,m,23,
19,6,215,0,0,5,['d'],['k'],N,N,None,Y,,,,,,,m,23,
19,7,216,3,3,5,['k'],['k'],Y,Y,['space'],Y,,,,,,,m,23,
19,8,217,4,4,5,['d'],['d'],Y,Y,['space'],Y,,,,,,,m,23,
19,9,218,4,4,5,['d'],['d'],Y,N,None,Y,,,,,,,m,23,
19,10,219,10,10,5,['d'],['d'],Y,Y,['space'],Y,,,,,,,m,23,
20,0,220,5,5,5,['k'],['k'],Y,N,None,Y,,,,,,,m,23,
20,1,221,6,6,5,['k'],['k'],Y,Y,['space'],Y,,,,,,,m,23,
20,2,222,6,6,5,['k'],['k'],Y,Y,['space'],Y,,,,,,,m,23,
20,3,223,9,9,5,['k'],['k'],Y,Y,['space'],Y,,,,,,,m,23,
20,4,224,9,9,5,['k'],['k'],Y,Y,['space'],Y,,,,,,,m,23,
20,5,225,8,8,5,['d'],['d'],Y,N,None,Y,,,,,,,m,23,
20,6,226,4,4,5,['k'],['k'],Y,Y,['space'],Y,,,,,,,m,23,
20,7,227,4,4,5,['k'],['k'],Y,Y,['space'],Y,,,,,,,m,23,
20,8,228,6,6,5,['d'],['k'],N,Y,['space'],Y,,,,,,,m,23,
20,9,229,3,3,5,['d'],['d'],Y,N,None,Y,,,,,,,m,23,
20,10,230,9,9,5,['k'],['k'],Y,N,None,Y,,,,,,,m,23,
21,0,231,0,0,5,['d'],['d'],Y,N,None,Y,,,,,,,m,23,
21,1,232,10,10,5,['d'],['d'],Y,N,None,Y,,,,,,,m,23,
21,2,233,2,2,5,['k'],['k'],Y,N,None,Y,,,,,,,m,23,
21,3,234,6,6,5,['k'],['k'],Y,Y,['space'],Y,,,,,,,m,23,
21,4,235,2,2,5,['k'],['k'],Y,Y,['space'],Y,,,,,,,m,23,
21,5,236,0,0,5,['k'],['k'],Y,Y,None,N,,,,,,,m,23,
21,6,237,4,4,5,['d'],['d'],Y,Y,None,N,,,,,,,m,23,
21,7,238,0,0,5,['k'],['k'],Y,Y,['space'],Y,,,,,,,m,23,
21,8,239,3,3,5,['k'],['d'],N,N,None,Y,,,,,,,m,23,
21,9,240,7,7,5,['d'],['d'],Y,Y,None,N,,,,,,,m,23,
21,10,241,8,8,5,['k'],['k'],Y,Y,None,N,,,,,,,m,23,
22,0,242,1,1,5,['k'],['d'],N,N,None,Y,,,,,,,m,23,
22,1,243,4,4,5,['k'],['k'],Y,N,None,Y,,,,,,,m,23,
22,2,244,3,3,5,['k'],['d'],N,N,None,Y,,,,,,,m,23,
22,3,245,6,6,5,['k'],['k'],Y,N,None,Y,,,,,,,m,23,
22,4,246,4,4,5,['k'],['k'],Y,N,None,Y,,,,,,,m,23,
22,5,247,1,1,5,['d'],['d'],Y,N,None,Y,,,,,,,m,23,
22,6,248,10,10,5,['k'],['k'],Y,N,None,Y,,,,,,,m,23,
22,7,249,8,8,5,['d'],['d'],Y,N,None,Y,43,39,25,,,,m,23,
22,8,250,4,4,6,['d'],['d'],Y,,,,,,,,,,m,23,
22,9,251,4,4,6,['k'],['k'],Y,,,,,,,,,,m,23,
22,10,252,10,10,6,['k'],['k'],Y,Y,['space'],Y,,,,,,,m,23,
23,0,253,0,0,6,['d'],['k'],N,N,None,Y,,,,,,,m,23,
23,1,254,6,6,6,['d'],['d'],Y,Y,['space'],Y,,,,,,,m,23,
23,2,255,9,9,6,['k'],['k'],Y,Y,['space'],Y,,,,,,,m,23,
23,3,256,3,3,6,['d'],['d'],Y,Y,['space'],Y,,,,,,,m,23,
23,4,257,10,10,6,['k'],['k'],Y,N,None,Y,,,,,,,m,23,
23,5,258,10,10,6,['k'],['d'],N,Y,['space'],Y,,,,,,,m,23,
23,6,259,7,7,6,['d'],['d'],Y,N,None,Y,,,,,,,m,23,
23,7,260,3,3,6,['d'],['d'],Y,N,None,Y,,,,,,,m,23,
23,8,261,2,2,6,['k'],['k'],Y,N,None,Y,,,,,,,m,23,
23,9,262,9,9,6,['d'],['d'],Y,Y,None,N,,,,,,,m,23,
23,10,263,6,6,6,['k'],['d'],N,N,None,Y,,,,,,,m,23,
24,0,264,4,4,6,['k'],['k'],Y,N,None,Y,,,,,,,m,23,
24,1,265,9,9,6,['k'],['k'],Y,Y,None,N,,,,,,,m,23,
24,2,266,8,8,6,['d'],['k'],N,Y,None,N,,,,,,,m,23,
24,3,267,6,6,6,['k'],['k'],Y,N,None,Y,,,,,,,m,23,
24,4,268,10,10,6,['k'],['k'],Y,N,['space'],N,,,,,,,m,23,
24,5,269,9,9,6,['k'],['k'],Y,Y,['space'],Y,,,,,,,m,23,
24,6,270,6,6,6,['k'],['d'],N,Y,['space'],Y,,,,,,,m,23,
24,7,271,8,8,6,['k'],['k'],Y,N,None,Y,,,,,,,m,23,
24,8,272,9,9,6,['d'],['d'],Y,Y,None,N,,,,,,,m,23,
24,9,273,10,10,6,['k'],['k'],Y,N,None,Y,,,,,,,m,23,
24,10,274,3,3,6,['d'],['d'],Y,N,None,Y,,,,,,,m,23,
25,0,275,6,6,6,['k'],['k'],Y,N,None,Y,,,,,,,m,23,
25,1,276,3,3,6,['k'],['k'],Y,Y,['space'],Y,,,,,,,m,23,
25,2,277,3,3,6,['k'],['k'],Y,Y,None,N,,,,,,,m,23,
25,3,278,0,0,6,['d'],['d'],Y,N,None,Y,,,,,,,m,23,
25,4,279,6,6,6,['d'],['d'],Y,N,None,Y,,,,,,,m,23,
25,5,280,0,0,6,['d'],['d'],Y,Y,['space'],Y,,,,,,,m,23,
25,6,281,9,9,6,['d'],['d'],Y,N,None,Y,,,,,,,m,23,
25,7,282,5,5,6,['k'],['k'],Y,N,None,Y,,,,,,,m,23,
25,8,283,1,1,6,['d'],['d'],Y,Y,None,N,,,,,,,m,23,
25,9,284,1,1,6,['k'],['k'],Y,Y,['space'],Y,,,,,,,m,23,
25,10,285,5,5,6,['k'],['k'],Y,Y,['space'],Y,,,,,,,m,23,
26,0,286,1,1,6,['k'],['k'],Y,Y,None,N,,,,,,,m,23,
26,1,287,2,2,6,['d'],['d'],Y,N,None,Y,,,,,,,m,23,
26,2,288,8,8,6,['k'],['k'],Y,Y,['space'],Y,,,,,,,m,23,
26,3,289,3,3,6,['d'],['d'],Y,Y,['space'],Y,,,,,,,m,23,
26,4,290,4,4,6,['d'],['d'],Y,Y,['space'],Y,,,,,,,m,23,
26,5,291,9,9,6,['k'],['k'],Y,Y,['space'],Y,,,,,,,m,23,
26,6,292,0,0,6,['k'],['k'],Y,Y,None,N,,,,,,,m,23,
26,7,293,3,3,6,['d'],['d'],Y,Y,['space'],Y,,,,,,,m,23,
26,8,294,9,9,6,['k'],['k'],Y,Y,None,N,,,,,,,m,23,
26,9,295,0,0,6,['k'],['k'],Y,N,None,Y,,,,,,,m,23,
26,10,296,10,10,6,['k'],['k'],Y,N,None,Y,,,,,,,m,23,
27,0,297,4,4,6,['d'],['d'],Y,N,None,Y,,,,,,,m,23,
27,1,298,9,9,6,['k'],['k'],Y,N,None,Y,,,,,,,m,23,
27,2,299,6,6,6,['k'],['k'],Y,N,None,Y,45,38,25,,,,m,23,
27,3,300,5,5,7,['k'],['d'],N,,,,,,,,,,m,23,
27,4,301,2,2,7,['d'],['d'],Y,,,,,,,,,,m,23,
27,5,302,4,4,7,['k'],['k'],Y,N,None,Y,,,,,,,m,23,
27,6,303,6,6,7,['d'],['d'],Y,Y,['space'],Y,,,,,,,m,23,
27,7,304,3,3,7,['k'],['k'],Y,N,None,Y,,,,,,,m,23,
27,8,305,9,9,7,['k'],['k'],Y,N,None,Y,,,,,,,m,23,
27,9,306,7,7,7,['k'],['d'],N,Y,None,N,,,,,,,m,23,
27,10,307,4,4,7,['k'],['k'],Y,N,['d'],N,,,,,,,m,23,
28,0,308,3,3,7,['k'],['k'],Y,Y,None,N,,,,,,,m,23,
28,1,309,3,3,7,['k'],['k'],Y,N,None,Y,,,,,,,m,23,
28,2,310,10,10,7,['k'],['k'],Y,Y,None,N,,,,,,,m,23,
28,3,311,6,6,7,['d'],['d'],Y,N,None,Y,,,,,,,m,23,
28,4,312,6,6,7,['k'],['k'],Y,Y,['k'],N,,,,,,,m,23,
28,5,313,8,8,7,['k'],['k'],Y,Y,None,N,,,,,,,m,23,
28,6,314,9,9,7,['k'],['k'],Y,N,None,Y,,,,,,,m,23,
28,7,315,7,7,7,['k'],['k'],Y,N,None,Y,,,,,,,m,23,
28,8,316,0,0,7,['d'],['d'],Y,N,None,Y,,,,,,,m,23,
28,9,317,3,3,7,['k'],['d'],N,Y,None,N,,,,,,,m,23,
28,10,318,8,8,7,['k'],['k'],Y,Y,None,N,,,,,,,m,23,
29,0,319,6,6,7,['k'],['d'],N,Y,None,N,,,,,,,m,23,
29,1,320,7,7,7,['k'],['d'],N,Y,None,N,,,,,,,m,23,
29,2,321,6,6,7,['k'],['k'],Y,N,None,Y,,,,,,,m,23,
29,3,322,6,6,7,['k'],['d'],N,Y,None,N,,,,,,,m,23,
29,4,323,8,8,7,['d'],['d'],Y,Y,['k'],N,,,,,,,m,23,
29,5,324,3,3,7,['d'],['d'],Y,N,None,Y,,,,,,,m,23,
29,6,325,3,3,7,['k'],['d'],N,N,['space'],N,,,,,,,m,23,
29,7,326,8,8,7,['d'],['d'],Y,N,None,Y,,,,,,,m,23,
29,8,327,8,8,7,['k'],['k'],Y,Y,None,N,,,,,,,m,23,
29,9,328,5,5,7,['k'],['k'],Y,Y,None,N,,,,,,,m,23,
29,10,329,5,5,7,['k'],['k'],Y,Y,None,N,,,,,,,m,23,
30,0,330,9,9,7,['k'],['k'],Y,Y,None,N,,,,,,,m,23,
30,1,331,0,0,7,['d'],['k'],N,Y,None,N,,,,,,,m,23,
30,2,332,10,10,7,['k'],['k'],Y,N,None,Y,,,,,,,m,23,
30,3,333,4,4,7,['k'],['k'],Y,N,None,Y,,,,,,,m,23,
30,4,334,5,5,7,['d'],['d'],Y,Y,None,N,,,,,,,m,23,
30,5,335,3,3,7,['d'],['d'],Y,Y,['space'],Y,,,,,,,m,23,
30,6,336,2,2,7,['k'],['k'],Y,N,None,Y,,,,,,,m,23,
30,7,337,10,10,7,['d'],['d'],Y,Y,['space'],Y,,,,,,,m,23,
30,8,338,4,4,7,['k'],['k'],Y,Y,['space'],Y,,,,,,,m,23,
30,9,339,1,1,7,['d'],['d'],Y,N,None,Y,,,,,,,m,23,
30,10,340,9,9,7,['k'],['d'],N,N,None,Y,,,,,,,m,23,
31,0,341,5,5,7,['d'],['d'],Y,Y,None,N,,,,,,,m,23,
31,1,342,6,6,7,['k'],['d'],N,Y,None,N,,,,,,,m,23,
31,2,343,6,6,7,['d'],['d'],Y,N,None,Y,,,,,,,m,23,
31,3,344,5,5,7,['k'],['d'],N,Y,None,N,,,,,,,m,23,
31,4,345,10,10,7,['d'],['d'],Y,N,None,Y,,,,,,,m,23,
31,5,346,1,1,7,['k'],['k'],Y,N,None,Y,,,,,,,m,23,
31,6,347,7,7,7,['d'],['k'],N,Y,None,N,,,,,,,m,23,
31,7,348,4,4,7,['k'],['k'],Y,N,None,Y,,,,,,,m,23,
31,8,349,2,2,7,['d'],['d'],Y,N,None,Y,38,25,25,,,,m,23,
31,9,350,8,8,8,['d'],['d'],Y,,,,,,,,,,m,23,
31,10,351,2,2,8,['k'],['k'],Y,,,,,,,,,,m,23,
32,0,352,9,9,8,['k'],['k'],Y,Y,['space'],Y,,,,,,,m,23,
32,1,353,5,5,8,['k'],['k'],Y,N,None,Y,,,,,,,m,23,
32,2,354,5,5,8,['k'],['k'],Y,Y,['space'],Y,,,,,,,m,23,
32,3,355,9,9,8,['d'],['d'],Y,Y,['space'],Y,,,,,,,m,23,
32,4,356,7,7,8,['k'],['k'],Y,Y,None,N,,,,,,,m,23,
32,5,357,2,2,8,['k'],['k'],Y,N,None,Y,,,,,,,m,23,
32,6,358,8,8,8,['k'],['k'],Y,Y,None,N,,,,,,,m,23,
32,7,359,3,3,8,['k'],['k'],Y,Y,['space'],Y,,,,,,,m,23,
32,8,360,6,6,8,['k'],['k'],Y,Y,None,N,,,,,,,m,23,
32,9,361,2,2,8,['k'],['k'],Y,Y,None,N,,,,,,,m,23,
32,10,362,1,1,8,['d'],['d'],Y,Y,None,N,,,,,,,m,23,
33,0,363,9,9,8,['d'],['d'],Y,Y,['space'],Y,,,,,,,m,23,
33,1,364,6,6,8,['d'],['d'],Y,Y,['space'],Y,,,,,,,m,23,
33,2,365,6,6,8,['d'],['d'],Y,N,None,Y,,,,,,,m,23,
33,3,366,2,2,8,['k'],['k'],Y,N,None,Y,,,,,,,m,23,
33,4,367,6,6,8,['k'],['k'],Y,N,None,Y,,,,,,,m,23,
33,5,368,7,7,8,['d'],['d'],Y,Y,['space'],Y,,,,,,,m,23,
33,6,369,8,8,8,['k'],['k'],Y,N,None,Y,,,,,,,m,23,
33,7,370,4,4,8,['k'],['k'],Y,Y,None,N,,,,,,,m,23,
33,8,371,4,4,8,['k'],['k'],Y,N,None,Y,,,,,,,m,23,
33,9,372,8,8,8,['k'],['k'],Y,N,None,Y,,,,,,,m,23,
33,10,373,7,7,8,['d'],['d'],Y,N,None,Y,,,,,,,m,23,
34,0,374,2,2,8,['d'],['d'],Y,N,None,Y,,,,,,,m,23,
34,1,375,6,6,8,['k'],['k'],Y,Y,['space'],Y,,,,,,,m,23,
34,2,376,9,9,8,['d'],['d'],Y,N,None,Y,,,,,,,m,23,
34,3,377,3,3,8,['k'],['k'],Y,N,None,Y,,,,,,,m,23,
34,4,378,6,6,8,['k'],['k'],Y,N,None,Y,,,,,,,m,23,
34,5,379,4,4,8,['k'],['k'],Y,Y,['space'],Y,,,,,,,m,23,
34,6,380,2,2,8,['d'],['d'],Y,Y,None,N,,,,,,,m,23,
34,7,381,7,7,8,['d'],['d'],Y,Y,None,N,,,,,,,m,23,
34,8,382,8,8,8,['k'],['k'],Y,Y,['space'],Y,,,,,,,m,23,
34,9,383,7,7,8,['k'],['k'],Y,N,None,Y,,,,,,,m,23,
34,10,384,3,3,8,None,,Timed out,N,None,Y,,,,,,,m,23,
35,0,385,3,3,8,['k'],['k'],Y,N,None,Y,,,,,,,m,23,
35,1,386,6,6,8,['d'],['d'],Y,N,None,Y,,,,,,,m,23,
35,2,387,4,4,8,['k'],['k'],Y,Y,['space'],Y,,,,,,,m,23,
35,3,388,5,5,8,['d'],['d'],Y,Y,['space'],Y,,,,,,,m,23,
35,4,389,8,8,8,['k'],['k'],Y,N,None,Y,,,,,,,m,23,
35,5,390,2,2,8,['k'],['k'],Y,N,None,Y,,,,,,,m,23,
35,6,391,2,2,8,['k'],['k'],Y,N,None,Y,,,,,,,m,23,
35,7,392,10,10,8,['d'],['d'],Y,Y,None,N,,,,,,,m,23,
35,8,393,6,6,8,['k'],['k'],Y,N,None,Y,,,,,,,m,23,
35,9,394,0,0,8,['d'],['k'],N,N,None,Y,,,,,,,m,23,
35,10,395,10,10,8,['k'],['k'],Y,N,None,Y,,,,,,,m,23,
36,0,396,1,1,8,['k'],['k'],Y,N,None,Y,,,,,,,m,23,
36,1,397,5,5,8,['k'],['k'],Y,Y,None,N,,,,,,,m,23,
36,2,398,1,1,8,['k'],['k'],Y,N,None,Y,,,,,,,m,23,
36,3,399,0,0,8,['k'],['k'],Y,N,None,Y,48,38,22,,,,m,23,
36,4,400,3,3,9,['d'],['d'],Y,,,,,,,,,,m,23,
36,5,401,0,0,9,['k'],['k'],Y,,,,,,,,,,m,23,
36,6,402,5,5,9,['k'],['k'],Y,Y,['space'],Y,,,,,,,m,23,
36,7,403,8,8,9,['k'],['k'],Y,N,None,Y,,,,,,,m,23,
36,8,404,1,1,9,['d'],['d'],Y,N,None,Y,,,,,,,m,23,
36,9,405,5,5,9,['k'],['k'],Y,Y,['space'],Y,,,,,,,m,23,
36,10,406,7,7,9,['d'],['d'],Y,N,None,Y,,,,,,,m,23,
37,0,407,5,5,9,['d'],['k'],N,Y,['space'],Y,,,,,,,m,23,
37,1,408,2,2,9,['d'],['d'],Y,Y,['space'],Y,,,,,,,m,23,
37,2,409,1,1,9,['d'],['d'],Y,Y,['space'],Y,,,,,,,m,23,
37,3,410,8,8,9,['k'],['k'],Y,Y,None,N,,,,,,,m,23,
37,4,411,1,1,9,['d'],['d'],Y,N,None,Y,,,,,,,m,23,
37,5,412,7,7,9,['d'],['d'],Y,N,None,Y,,,,,,,m,23,
37,6,413,0,0,9,['k'],['k'],Y,N,None,Y,,,,,,,m,23,
37,7,414,10,10,9,['d'],['d'],Y,Y,None,N,,,,,,,m,23,
37,8,415,5,5,9,['d'],['d'],Y,N,None,Y,,,,,,,m,23,
37,9,416,10,10,9,['d'],['d'],Y,N,None,Y,,,,,,,m,23,
37,10,417,0,0,9,['d'],['d'],Y,Y,['space'],Y,,,,,,,m,23,
38,0,418,4,4,9,['k'],['d'],N,N,None,Y,,,,,,,m,23,
38,1,419,9,9,9,['k'],['k'],Y,Y,['space'],Y,,,,,,,m,23,
38,2,420,5,5,9,['d'],['d'],Y,N,['space'],N,,,,,,,m,23,
38,3,421,1,1,9,['k'],['d'],N,Y,None,N,,,,,,,m,23,
38,4,422,1,1,9,['d'],['d'],Y,Y,['space'],Y,,,,,,,m,23,
38,5,423,4,4,9,['d'],['d'],Y,N,None,Y,,,,,,,m,23,
38,6,424,6,6,9,['k'],['d'],N,Y,['space'],Y,,,,,,,m,23,
38,7,425,9,9,9,['k'],['k'],Y,Y,['space'],Y,,,,,,,m,23,
38,8,426,9,9,9,['d'],['d'],Y,Y,None,N,,,,,,,m,23,
38,9,427,2,2,9,['d'],['d'],Y,N,None,Y,,,,,,,m,23,
38,10,428,4,4,9,['k'],['k'],Y,N,None,Y,,,,,,,m,23,
39,0,429,1,1,9,['d'],['d'],Y,N,None,Y,,,,,,,m,23,
39,1,430,7,7,9,['d'],['d'],Y,N,None,Y,,,,,,,m,23,
39,2,431,9,9,9,['d'],['d'],Y,N,None,Y,,,,,,,m,23,
39,3,432,0,0,9,['d'],['d'],Y,Y,None,N,,,,,,,m,23,
39,4,433,6,6,9,['d'],['d'],Y,N,None,Y,,,,,,,m,23,
39,5,434,0,0,9,['k'],['k'],Y,N,None,Y,,,,,,,m,23,
39,6,435,9,9,9,['d'],['d'],Y,Y,None,N,,,,,,,m,23,
39,7,436,4,4,9,['d'],['d'],Y,Y,['space'],Y,,,,,,,m,23,
39,8,437,5,5,9,['k'],['k'],Y,N,None,Y,,,,,,,m,23,
39,9,438,2,2,9,['d'],['d'],Y,N,None,Y,,,,,,,m,23,
39,10,439,1,1,9,['k'],['k'],Y,N,None,Y,,,,,,,m,23,
40,0,440,7,7,9,['d'],['d'],Y,N,None,Y,,,,,,,m,23,
40,1,441,5,5,9,['k'],['k'],Y,Y,['space'],Y,,,,,,,m,23,
40,2,442,5,5,9,['d'],['d'],Y,Y,['space'],Y,,,,,,,m,23,
40,3,443,8,8,9,['d'],['d'],Y,Y,['space'],Y,,,,,,,m,23,
40,4,444,8,8,9,['k'],['k'],Y,Y,['space'],Y,,,,,,,m,23,
40,5,445,8,8,9,['k'],['k'],Y,Y,None,N,,,,,,,m,23,
40,6,446,4,4,9,['d'],['d'],Y,N,None,Y,,,,,,,m,23,
40,7,447,7,7,9,['k'],['d'],N,Y,['space'],Y,,,,,,,m,23,
40,8,448,0,0,9,['d'],['d'],Y,Y,['space'],Y,,,,,,,m,23,
40,9,449,2,2,9,['k'],['d'],N,N,None,Y,44,40,24,,,,m,23,
40,10,450,10,10,10,['k'],['k'],Y,,,,,,,,,,m,23,
41,0,451,8,8,10,['k'],['d'],N,,,,,,,,,,m,23,
41,1,452,6,6,10,['d'],['d'],Y,N,None,Y,,,,,,,m,23,
41,2,453,2,2,10,['k'],['k'],Y,Y,['space'],Y,,,,,,,m,23,
41,3,454,2,2,10,['d'],['d'],Y,N,None,Y,,,,,,,m,23,
41,4,455,6,6,10,['k'],['k'],Y,Y,['space'],Y,,,,,,,m,23,
41,5,456,5,5,10,['k'],['k'],Y,N,None,Y,,,,,,,m,23,
41,6,457,6,6,10,['k'],['k'],Y,N,None,Y,,,,,,,m,23,
41,7,458,8,8,10,['k'],['k'],Y,N,None,Y,,,,,,,m,23,
41,8,459,7,7,10,['k'],['k'],Y,Y,['space'],Y,,,,,,,m,23,
41,9,460,9,9,10,['d'],['d'],Y,N,None,Y,,,,,,,m,23,
41,10,461,3,3,10,['d'],['d'],Y,N,None,Y,,,,,,,m,23,
42,0,462,7,7,10,['d'],['d'],Y,Y,['space'],Y,,,,,,,m,23,
42,1,463,4,4,10,['k'],['k'],Y,Y,['space'],Y,,,,,,,m,23,
42,2,464,6,6,10,['d'],['d'],Y,Y,['space'],Y,,,,,,,m,23,
42,3,465,4,4,10,['k'],['k'],Y,N,None,Y,,,,,,,m,23,
42,4,466,7,7,10,['k'],['k'],Y,N,None,Y,,,,,,,m,23,
42,5,467,8,8,10,['d'],['d'],Y,N,None,Y,,,,,,,m,23,
42,6,468,2,2,10,['k'],['d'],N,Y,['space'],Y,,,,,,,m,23,
42,7,469,2,2,10,['d'],['d'],Y,N,None,Y,,,,,,,m,23,
42,8,470,2,2,10,['d'],['d'],Y,N,None,Y,,,,,,,m,23,
42,9,471,10,10,10,['k'],['d'],N,N,None,Y,,,,,,,m,23,
42,10,472,7,7,10,['k'],['k'],Y,N,['space'],N,,,,,,,m,23,
43,0,473,4,4,10,['d'],['d'],Y,Y,None,N,,,,,,,m,23,
43,1,474,9,9,10,['k'],['k'],Y,N,None,Y,,,,,,,m,23,
43,2,475,9,9,10,['k'],['k'],Y,Y,None,N,,,,,,,m,23,
43,3,476,6,6,10,['d'],['d'],Y,N,None,Y,,,,,,,m,23,
43,4,477,5,5,10,['k'],['k'],Y,N,None,Y,,,,,,,m,23,
43,5,478,2,2,10,['k'],['k'],Y,Y,None,N,,,,,,,m,23,
43,6,479,4,4,10,['d'],['d'],Y,Y,None,N,,,,,,,m,23,
43,7,480,8,8,10,['k'],['k'],Y,N,None,Y,,,,,,,m,23,
43,8,481,9,9,10,['k'],['k'],Y,Y,None,N,,,,,,,m,23,
43,9,482,2,2,10,['d'],['d'],Y,N,None,Y,,,,,,,m,23,
43,10,483,7,7,10,['k'],['k'],Y,Y,['space'],Y,,,,,,,m,23,
44,0,484,3,3,10,['d'],['d'],Y,N,None,Y,,,,,,,m,23,
44,1,485,1,1,10,['k'],['k'],Y,N,None,Y,,,,,,,m,23,
44,2,486,7,7,10,['d'],['d'],Y,Y,['space'],Y,,,,,,,m,23,
44,3,487,9,9,10,['d'],['d'],Y,Y,['space'],Y,,,,,,,m,23,
44,4,488,4,4,10,['d'],['d'],Y,Y,None,N,,,,,,,m,23,
44,5,489,0,0,10,['d'],['d'],Y,Y,None,N,,,,,,,m,23,
44,6,490,5,5,10,['k'],['k'],Y,Y,None,N,,,,,,,m,23,
44,7,491,10,10,10,['k'],['k'],Y,N,None,Y,,,,,,,m,23,
44,8,492,7,7,10,['d'],['d'],Y,Y,None,N,,,,,,,m,23,
44,9,493,3,3,10,['d'],['d'],Y,N,None,Y,,,,,,,m,23,
44,10,494,5,5,10,['k'],['k'],Y,N,None,Y,,,,,,,m,23,
45,0,495,3,3,10,['d'],['d'],Y,N,None,Y,,,,,,,m,23,
45,1,496,5,5,10,['d'],['d'],Y,N,None,Y,,,,,,,m,23,
45,2,497,3,3,10,['d'],['d'],Y,N,None,Y,,,,,,,m,23,
45,3,498,0,0,10,['k'],['k'],Y,Y,None,N,,,,,,,m,23,
45,4,499,7,7,10,['k'],['k'],Y,Y,None,N,47,36,21,,,,m,23,
45,5,500,4,4,11,['k'],['k'],N,,,,,,,Y,Y,Y,m,23,
45,6,501,6,6,11,['k'],['k'],N,,,,,,,,Y,Y,m,23,
45,7,502,9,9,11,['d'],['d'],N,Y,['k'],N,,,,,Y,Y,m,23,
45,8,503,5,5,11,['k'],['k'],N,N,['k'],N,,,,,Y,Y,m,23,
45,9,504,0,0,11,['d'],['d'],N,Y,['space'],Y,,,,,Y,Y,m,23,
45,10,505,5,5,11,['k'],['d'],Y,Y,None,N,,,,,Y,Y,m,23,
46,0,506,9,9,11,['k'],['d'],Y,N,None,Y,,,,,Y,Y,m,23,
46,1,507,8,8,11,['d'],['k'],Y,Y,['space'],Y,,,,,Y,Y,m,23,
46,2,508,8,8,11,['d'],['k'],Y,Y,None,N,,,,,Y,Y,m,23,
46,3,509,1,1,11,['d'],['d'],N,N,None,Y,,,,,Y,Y,m,23,
46,4,510,8,8,11,['d'],['d'],N,Y,None,N,,,,,Y,Y,m,23,
46,5,511,3,3,11,['k'],['k'],N,Y,None,N,,,,,Y,Y,m,23,
46,6,512,5,5,11,['d'],['d'],N,N,None,Y,,,,,Y,Y,m,23,
46,7,513,4,4,11,['d'],['k'],Y,N,None,Y,,,,,Y,Y,m,23,
46,8,514,3,3,11,['d'],['k'],Y,N,None,Y,,,,,Y,Y,m,23,
46,9,515,1,1,11,['d'],['d'],N,N,None,Y,,,,,Y,Y,m,23,
46,10,516,2,2,11,['k'],['d'],Y,N,None,Y,,,,,Y,Y,m,23,
47,0,517,10,10,11,['k'],['d'],Y,Y,None,N,,,,,Y,Y,m,23,
47,1,518,4,4,11,['d'],['k'],Y,Y,None,N,,,,,Y,Y,m,23,
47,2,519,7,7,11,['d'],['k'],Y,N,None,Y,,,,,Y,Y,m,23,
47,3,520,1,1,11,['k'],['d'],Y,Y,None,N,,,,,Y,Y,m,23,
47,4,521,2,2,11,['d'],['k'],Y,Y,None,N,,,,,Y,Y,m,23,
47,5,522,0,0,11,['d'],['k'],Y,Y,None,N,,,,,Y,Y,m,23,
47,6,523,8,8,11,['d'],['k'],Y,N,None,Y,,,,,Y,Y,m,23,
47,7,524,0,0,11,['d'],['k'],Y,N,None,Y,,,,,Y,Y,m,23,
47,8,525,3,3,11,['k'],['d'],Y,Y,['space'],Y,,,,,Y,Y,m,23,
47,9,526,7,7,11,['d'],['k'],Y,N,None,Y,,,,,Y,Y,m,23,
47,10,527,7,7,11,['d'],['k'],Y,N,None,Y,,,,,Y,Y,m,23,
48,0,528,3,3,11,['k'],['d'],Y,N,None,Y,,,,,Y,Y,m,23,
48,1,529,1,1,11,['d'],['k'],Y,Y,['space'],Y,,,,,Y,Y,m,23,
48,2,530,1,1,11,['d'],['d'],N,N,None,Y,,,,,Y,Y,m,23,
48,3,531,3,3,11,['k'],['d'],Y,N,None,Y,,,,,Y,Y,m,23,
48,4,532,0,0,11,['d'],['k'],Y,Y,['space'],Y,,,,,Y,Y,m,23,
48,5,533,0,0,11,['d'],['k'],Y,N,None,Y,,,,,Y,Y,m,23,
48,6,534,0,0,11,['d'],['k'],Y,N,['space'],N,,,,,Y,Y,m,23,
48,7,535,2,2,11,['k'],['k'],N,N,None,Y,,,,,Y,Y,m,23,
48,8,536,3,3,11,['d'],['k'],Y,Y,['space'],Y,,,,,Y,Y,m,23,
48,9,537,4,4,11,['k'],['d'],Y,N,None,Y,,,,,Y,Y,m,23,
48,10,538,3,3,11,['k'],['d'],Y,Y,None,N,,,,,Y,Y,m,23,
49,0,539,3,3,11,['d'],['k'],Y,Y,None,N,,,,,Y,Y,m,23,
49,1,540,1,1,11,['d'],['k'],Y,N,None,Y,,,,,Y,Y,m,23,
49,2,541,7,7,11,['d'],['k'],Y,N,None,Y,,,,,Y,Y,m,23,
49,3,542,1,1,11,['d'],['k'],Y,N,None,Y,,,,,Y,Y,m,23,
49,4,543,4,4,11,['d'],['k'],Y,Y,None,N,,,,,Y,Y,m,23,
49,5,544,4,4,11,['k'],['d'],Y,Y,['space'],Y,,,,,Y,Y,m,23,
49,6,545,2,2,11,['k'],['d'],Y,Y,['space'],Y,,,,,Y,Y,m,23,
49,7,546,5,5,11,['d'],['d'],N,N,None,Y,,,,,Y,Y,m,23,
49,8,547,9,9,11,['d'],['k'],Y,Y,None,N,,,,,Y,Y,m,23,
49,9,548,2,2,11,['k'],['d'],Y,Y,None,N,,,,,Y,Y,m,23,
49,10,549,3,3,11,['d'],['k'],Y,N,None,Y,37,31,23,,Y,Y,m,23,
50,0,550,8,8,12,['k'],['d'],Y,,,,,,,,Y,Y,m,23,
50,1,551,5,5,12,['d'],['k'],Y,,,,,,,,Y,Y,m,23,
50,2,552,9,9,12,['k'],['d'],Y,N,None,Y,,,,,Y,Y,m,23,
50,3,553,4,4,12,['k'],['k'],N,Y,['space'],Y,,,,,Y,Y,m,23,
50,4,554,2,2,12,['k'],['d'],Y,N,None,Y,,,,,Y,Y,m,23,
50,5,555,0,0,12,['d'],['k'],Y,Y,None,N,,,,,Y,Y,m,23,
50,6,556,10,10,12,['d'],['k'],Y,N,None,Y,,,,,Y,Y,m,23,
50,7,557,2,2,12,['k'],['d'],Y,Y,['space'],Y,,,,,Y,Y,m,23,
50,8,558,9,9,12,['d'],['k'],Y,N,None,Y,,,,,Y,Y,m,23,
50,9,559,5,5,12,['k'],['d'],Y,Y,['space'],Y,,,,,Y,Y,m,23,
50,10,560,9,9,12,['d'],['k'],Y,N,None,Y,,,,,Y,Y,m,23,
51,0,561,10,10,12,['d'],['k'],Y,Y,None,N,,,,,Y,Y,m,23,
51,1,562,3,3,12,['d'],['d'],N,N,None,Y,,,,,Y,Y,m,23,
51,2,563,3,3,12,['d'],['k'],Y,Y,None,N,,,,,Y,Y,m,23,
51,3,564,4,4,12,['d'],['k'],Y,Y,['space'],Y,,,,,Y,Y,m,23,
51,4,565,3,3,12,['k'],['d'],Y,N,None,Y,,,,,Y,Y,m,23,
51,5,566,10,10,12,['d'],['d'],N,Y,None,N,,,,,Y,Y,m,23,
51,6,567,7,7,12,['d'],['k'],Y,N,None,Y,,,,,Y,Y,m,23,
51,7,568,0,0,12,['k'],['d'],Y,Y,None,N,,,,,Y,Y,m,23,
51,8,569,8,8,12,['k'],['d'],Y,Y,None,N,,,,,Y,Y,m,23,
51,9,570,2,2,12,['k'],['d'],Y,N,None,Y,,,,,Y,Y,m,23,
51,10,571,7,7,12,['d'],['d'],N,N,None,Y,,,,,Y,Y,m,23,
52,0,572,5,5,12,['d'],['d'],N,N,None,Y,,,,,Y,Y,m,23,
52,1,573,6,6,12,['k'],['d'],Y,Y,None,N,,,,,Y,Y,m,23,
52,2,574,6,6,12,['k'],['d'],Y,N,None,Y,,,,,Y,Y,m,23,
52,3,575,3,3,12,['k'],['d'],Y,Y,['space'],Y,,,,,Y,Y,m,23,
52,4,576,0,0,12,['d'],['k'],Y,N,None,Y,,,,,Y,Y,m,23,
52,5,577,9,9,12,['d'],['d'],N,N,None,Y,,,,,Y,Y,m,23,
52,6,578,8,8,12,['d'],['k'],Y,N,None,Y,,,,,Y,Y,m,23,
52,7,579,6,6,12,['k'],['d'],Y,Y,['space'],Y,,,,,Y,Y,m,23,
52,8,580,2,2,12,['d'],['k'],Y,N,['space'],N,,,,,Y,Y,m,23,
52,9,581,1,1,12,['k'],['d'],Y,Y,['space'],Y,,,,,Y,Y,m,23,
52,10,582,9,9,12,['d'],['k'],Y,Y,['space'],Y,,,,,Y,Y,m,23,
53,0,583,9,9,12,['k'],['d'],Y,N,None,Y,,,,,Y,Y,m,23,
53,1,584,8,8,12,['k'],['k'],N,Y,['space'],Y,,,,,Y,Y,m,23,
53,2,585,5,5,12,['d'],['k'],Y,Y,None,N,,,,,Y,Y,m,23,
53,3,586,3,3,12,['k'],['d'],Y,Y,['k'],N,,,,,Y,Y,m,23,
53,4,587,7,7,12,['k'],['d'],Y,Y,['space'],Y,,,,,Y,Y,m,23,
53,5,588,2,2,12,['k'],['d'],Y,Y,['space'],Y,,,,,Y,Y,m,23,
53,6,589,8,8,12,['k'],['d'],Y,Y,None,N,,,,,Y,Y,m,23,
53,7,590,5,5,12,['d'],['k'],Y,N,None,Y,,,,,Y,Y,m,23,
53,8,591,0,0,12,['k'],['d'],Y,Y,None,N,,,,,Y,Y,m,23,
53,9,592,9,9,12,['k'],['d'],Y,Y,None,N,,,,,Y,Y,m,23,
53,10,593,9,9,12,['k'],['d'],Y,Y,None,N,,,,,Y,Y,m,23,
54,0,594,4,4,12,['d'],['k'],Y,Y,['k'],N,,,,,Y,Y,m,23,
54,1,595,8,8,12,['d'],['k'],Y,N,None,Y,,,,,Y,Y,m,23,
54,2,596,0,0,12,['k'],['d'],Y,N,None,Y,,,,,Y,Y,m,23,
54,3,597,2,2,12,['d'],['k'],Y,N,None,Y,,,,,Y,Y,m,23,
54,4,598,10,10,12,['d'],['k'],Y,N,None,Y,,,,,Y,Y,m,23,
54,5,599,0,0,12,['d'],['d'],N,N,None,Y,42,33,25,,Y,Y,m,23,
