.thisRepN,.thisTrialN,.thisN,.thisIndex,.thisTrial,Block Number,Key pressed,Category,Correct?,Int Match?,Int Response,Int Correct?,Line Accuracy,Interference Accuracy,Matching Interferences,New instruction shown?,Buttons switched?,Fast?,gender,age,
0,0,0,4,4,1,['k'],['k'],Y,,,,,,,,,,M,19,
0,1,1,2,2,1,['d'],['k'],N,,,,,,,,,,M,19,
0,2,2,2,2,1,['d'],['d'],Y,N,None,Y,,,,,,,M,19,
0,3,3,3,3,1,['d'],['d'],Y,N,None,Y,,,,,,,M,19,
0,4,4,6,6,1,['k'],['d'],N,N,None,Y,,,,,,,M,19,
0,5,5,10,10,1,['k'],['d'],N,N,None,Y,,,,,,,M,19,
0,6,6,2,2,1,['k'],['k'],Y,Y,None,N,,,,,,,M,19,
0,7,7,3,3,1,['d'],['d'],Y,Y,None,N,,,,,,,M,19,
0,8,8,1,1,1,['k'],['k'],Y,Y,['space'],Y,,,,,,,M,19,
0,9,9,8,8,1,['k'],['k'],Y,Y,['space'],Y,,,,,,,M,19,
0,10,10,4,4,1,['k'],['k'],Y,N,None,Y,,,,,,,M,19,
1,0,11,10,10,1,['d'],['d'],Y,N,None,Y,,,,,,,M,19,
1,1,12,7,7,1,['k'],['k'],Y,Y,['space'],Y,,,,,,,M,19,
1,2,13,0,0,1,['d'],['d'],Y,N,None,Y,,,,,,,M,19,
1,3,14,10,10,1,['k'],['k'],Y,Y,['space'],Y,,,,,,,M,19,
1,4,15,7,7,1,['k'],['k'],Y,Y,['space'],Y,,,,,,,M,19,
1,5,16,9,9,1,['d'],['d'],Y,Y,None,N,,,,,,,M,19,
1,6,17,7,7,1,['k'],['k'],Y,N,None,Y,,,,,,,M,19,
1,7,18,8,8,1,['k'],['k'],Y,N,None,Y,,,,,,,M,19,
1,8,19,5,5,1,['k'],['k'],Y,N,None,Y,,,,,,,M,19,
1,9,20,7,7,1,['k'],['d'],N,Y,['space'],Y,,,,,,,M,19,
1,10,21,1,1,1,['k'],['k'],Y,Y,['space'],Y,,,,,,,M,19,
2,0,22,2,2,1,['k'],['k'],Y,N,None,Y,,,,,,,M,19,
2,1,23,1,1,1,['d'],['d'],Y,N,None,Y,,,,,,,M,19,
2,2,24,6,6,1,['d'],['d'],Y,N,None,Y,,,,,,,M,19,
2,3,25,9,9,1,['k'],['k'],Y,Y,None,N,,,,,,,M,19,
2,4,26,6,6,1,['k'],['k'],Y,N,None,Y,,,,,,,M,19,
2,5,27,6,6,1,['k'],['d'],N,N,['space'],N,,,,,,,M,19,
2,6,28,8,8,1,['d'],['d'],Y,Y,None,N,,,,,,,M,19,
2,7,29,6,6,1,['k'],['d'],N,N,None,Y,,,,,,,M,19,
2,8,30,9,9,1,['d'],['d'],Y,N,None,Y,,,,,,,M,19,
2,9,31,4,4,1,['d'],['d'],Y,Y,None,N,,,,,,,M,19,
2,10,32,0,0,1,['k'],['k'],Y,N,None,Y,,,,,,,M,19,
3,0,33,5,5,1,['k'],['k'],Y,N,None,Y,,,,,,,M,19,
3,1,34,3,3,1,['d'],['k'],N,Y,['space'],Y,,,,,,,M,19,
3,2,35,0,0,1,['k'],['k'],Y,N,['space'],N,,,,,,,M,19,
3,3,36,2,2,1,['d'],['d'],Y,N,None,Y,,,,,,,M,19,
3,4,37,8,8,1,['k'],['k'],Y,Y,['space'],Y,,,,,,,M,19,
3,5,38,3,3,1,['d'],['d'],Y,N,None,Y,,,,,,,M,19,
3,6,39,2,2,1,['d'],['d'],Y,Y,['space'],Y,,,,,,,M,19,
3,7,40,9,9,1,['k'],['k'],Y,Y,None,N,,,,,,,M,19,
3,8,41,8,8,1,['k'],['k'],Y,N,None,Y,,,,,,,M,19,
3,9,42,0,0,1,['k'],['k'],Y,Y,['space'],Y,,,,,,,M,19,
3,10,43,2,2,1,['d'],['d'],Y,N,None,Y,,,,,,,M,19,
4,0,44,5,5,1,['k'],['k'],Y,Y,None,N,,,,,,,M,19,
4,1,45,5,5,1,['d'],['d'],Y,Y,['space'],Y,,,,,,,M,19,
4,2,46,6,6,1,['d'],['d'],Y,Y,None,N,,,,,,,M,19,
4,3,47,9,9,1,['k'],['k'],Y,Y,['space'],Y,,,,,,,M,19,
4,4,48,1,1,1,['k'],['k'],Y,Y,None,N,,,,,,,M,19,
4,5,49,1,1,1,['k'],['k'],Y,N,None,Y,43,36,23,,,,M,19,
4,6,50,2,2,2,['k'],['k'],Y,,,,,,,,,,M,19,
4,7,51,5,5,2,['d'],['k'],N,,,,,,,,,,M,19,
4,8,52,0,0,2,['k'],['k'],Y,Y,None,N,,,,,,,M,19,
4,9,53,0,0,2,['d'],['d'],Y,N,None,Y,,,,,,,M,19,
4,10,54,0,0,2,['d'],['k'],N,Y,None,N,,,,,,,M,19,
5,0,55,4,4,2,['d'],['d'],Y,Y,['space'],Y,,,,,,,M,19,
5,1,56,5,5,2,['k'],['d'],N,Y,['space'],Y,,,,,,,M,19,
5,2,57,6,6,2,['d'],['d'],Y,N,None,Y,,,,,,,M,19,
5,3,58,5,5,2,['k'],['k'],Y,Y,['space'],Y,,,,,,,M,19,
5,4,59,5,5,2,['d'],['d'],Y,N,None,Y,,,,,,,M,19,
5,5,60,9,9,2,['k'],['d'],N,Y,['space'],Y,,,,,,,M,19,
5,6,61,1,1,2,['k'],['d'],N,Y,None,N,,,,,,,M,19,
5,7,62,6,6,2,['k'],['k'],Y,Y,None,N,,,,,,,M,19,
5,8,63,10,10,2,['d'],['d'],Y,Y,['space'],Y,,,,,,,M,19,
5,9,64,4,4,2,['k'],['k'],Y,N,None,Y,,,,,,,M,19,
5,10,65,9,9,2,['k'],['k'],Y,Y,['space'],Y,,,,,,,M,19,
6,0,66,10,10,2,['d'],['d'],Y,N,None,Y,,,,,,,M,19,
6,1,67,1,1,2,['k'],['k'],Y,Y,['space'],Y,,,,,,,M,19,
6,2,68,4,4,2,['d'],['d'],Y,N,None,Y,,,,,,,M,19,
6,3,69,6,6,2,['d'],['d'],Y,Y,['space'],Y,,,,,,,M,19,
6,4,70,3,3,2,['k'],['k'],Y,N,None,Y,,,,,,,M,19,
6,5,71,4,4,2,['d'],['d'],Y,Y,['space'],Y,,,,,,,M,19,
6,6,72,2,2,2,['k'],['k'],Y,N,None,Y,,,,,,,M,19,
6,7,73,7,7,2,['k'],['k'],Y,N,None,Y,,,,,,,M,19,
6,8,74,6,6,2,['k'],['k'],Y,N,None,Y,,,,,,,M,19,
6,9,75,7,7,2,['d'],['k'],N,Y,['space'],Y,,,,,,,M,19,
6,10,76,8,8,2,['d'],['k'],N,N,None,Y,,,,,,,M,19,
7,0,77,4,4,2,['d'],['d'],Y,Y,['space'],Y,,,,,,,M,19,
7,1,78,6,6,2,['d'],['d'],Y,Y,['space'],Y,,,,,,,M,19,
7,2,79,9,9,2,['d'],['d'],Y,N,None,Y,,,,,,,M,19,
7,3,80,6,6,2,['k'],['k'],Y,N,None,Y,,,,,,,M,19,
7,4,81,1,1,2,['k'],['k'],Y,Y,['space'],Y,,,,,,,M,19,
7,5,82,0,0,2,['k'],['k'],Y,N,None,Y,,,,,,,M,19,
7,6,83,4,4,2,['k'],['k'],Y,Y,None,N,,,,,,,M,19,
7,7,84,9,9,2,['d'],['d'],Y,N,['space'],N,,,,,,,M,19,
7,8,85,6,6,2,['d'],['d'],Y,Y,None,N,,,,,,,M,19,
7,9,86,3,3,2,['d'],['k'],N,N,None,Y,,,,,,,M,19,
7,10,87,5,5,2,['k'],['k'],Y,Y,None,N,,,,,,,M,19,
8,0,88,2,2,2,['d'],['d'],Y,N,None,Y,,,,,,,M,19,
8,1,89,9,9,2,['k'],['k'],Y,N,None,Y,,,,,,,M,19,
8,2,90,0,0,2,['k'],['k'],Y,N,None,Y,,,,,,,M,19,
8,3,91,1,1,2,['d'],['d'],Y,N,None,Y,,,,,,,M,19,
8,4,92,8,8,2,['k'],['k'],Y,N,None,Y,,,,,,,M,19,
8,5,93,4,4,2,['k'],['k'],Y,Y,['space'],Y,,,,,,,M,19,
8,6,94,3,3,2,['k'],['k'],Y,Y,['space'],Y,,,,,,,M,19,
8,7,95,8,8,2,['k'],['k'],Y,N,None,Y,,,,,,,M,19,
8,8,96,2,2,2,['d'],['d'],Y,N,None,Y,,,,,,,M,19,
8,9,97,5,5,2,['k'],['k'],Y,Y,['space'],Y,,,,,,,M,19,
8,10,98,0,0,2,['k'],['k'],Y,N,None,Y,,,,,,,M,19,
9,0,99,1,1,2,['k'],['k'],Y,N,None,Y,42,40,23,,,,M,19,
9,1,100,7,7,3,['k'],['k'],Y,,,,,,,,,,M,19,
9,2,101,6,6,3,['d'],['d'],Y,,,,,,,,,,M,19,
9,3,102,3,3,3,['k'],['k'],Y,Y,['space'],Y,,,,,,,M,19,
9,4,103,5,5,3,['k'],['k'],Y,Y,['space'],Y,,,,,,,M,19,
9,5,104,10,10,3,['k'],['k'],Y,Y,None,N,,,,,,,M,19,
9,6,105,4,4,3,['k'],['k'],Y,Y,['space'],Y,,,,,,,M,19,
9,7,106,3,3,3,['k'],['k'],Y,Y,['space'],Y,,,,,,,M,19,
9,8,107,7,7,3,['k'],['k'],Y,N,None,Y,,,,,,,M,19,
9,9,108,5,5,3,['k'],['k'],Y,N,None,Y,,,,,,,M,19,
9,10,109,2,2,3,['d'],['k'],N,N,None,Y,,,,,,,M,19,
10,0,110,5,5,3,['k'],['k'],Y,N,None,Y,,,,,,,M,19,
10,1,111,8,8,3,['d'],['d'],Y,N,None,Y,,,,,,,M,19,
10,2,112,7,7,3,['k'],['k'],Y,Y,['space'],Y,,,,,,,M,19,
10,3,113,3,3,3,['d'],['d'],Y,N,None,Y,,,,,,,M,19,
10,4,114,2,2,3,['k'],['d'],N,Y,['space'],Y,,,,,,,M,19,
10,5,115,10,10,3,['k'],['k'],Y,N,None,Y,,,,,,,M,19,
10,6,116,2,2,3,['k'],['k'],Y,N,None,Y,,,,,,,M,19,
10,7,117,1,1,3,['d'],['d'],Y,N,None,Y,,,,,,,M,19,
10,8,118,3,3,3,['k'],['d'],N,Y,['space'],Y,,,,,,,M,19,
10,9,119,5,5,3,['d'],['d'],Y,N,None,Y,,,,,,,M,19,
10,10,120,4,4,3,['d'],['d'],Y,Y,['space'],Y,,,,,,,M,19,
11,0,121,5,5,3,['k'],['k'],Y,N,None,Y,,,,,,,M,19,
11,1,122,1,1,3,['k'],['k'],Y,N,None,Y,,,,,,,M,19,
11,2,123,10,10,3,['k'],['k'],Y,Y,None,N,,,,,,,M,19,
11,3,124,3,3,3,['d'],['d'],Y,N,None,Y,,,,,,,M,19,
11,4,125,4,4,3,['d'],['d'],Y,N,None,Y,,,,,,,M,19,
11,5,126,2,2,3,['k'],['k'],Y,N,None,Y,,,,,,,M,19,
11,6,127,9,9,3,['k'],['d'],N,N,None,Y,,,,,,,M,19,
11,7,128,10,10,3,['d'],['d'],Y,N,None,Y,,,,,,,M,19,
11,8,129,8,8,3,['d'],['d'],Y,Y,['space'],Y,,,,,,,M,19,
11,9,130,6,6,3,['k'],['d'],N,Y,['space'],Y,,,,,,,M,19,
11,10,131,10,10,3,['d'],['k'],N,N,['space'],N,,,,,,,M,19,
12,0,132,9,9,3,['k'],['k'],Y,Y,None,N,,,,,,,M,19,
12,1,133,1,1,3,['d'],['k'],N,Y,['space'],Y,,,,,,,M,19,
12,2,134,3,3,3,['d'],['k'],N,Y,['space'],Y,,,,,,,M,19,
12,3,135,8,8,3,['k'],['k'],Y,N,None,Y,,,,,,,M,19,
12,4,136,10,10,3,['d'],['d'],Y,Y,['space'],Y,,,,,,,M,19,
12,5,137,5,5,3,['k'],['k'],Y,N,None,Y,,,,,,,M,19,
12,6,138,6,6,3,['k'],['k'],Y,Y,['space'],Y,,,,,,,M,19,
12,7,139,6,6,3,['k'],['k'],Y,N,None,Y,,,,,,,M,19,
12,8,140,10,10,3,['k'],['k'],Y,N,None,Y,,,,,,,M,19,
12,9,141,3,3,3,['k'],['k'],Y,Y,['space'],Y,,,,,,,M,19,
12,10,142,5,5,3,['k'],['k'],Y,Y,['space'],Y,,,,,,,M,19,
13,0,143,6,6,3,['d'],['d'],Y,Y,['space'],Y,,,,,,,M,19,
13,1,144,0,0,3,['k'],['d'],N,N,None,Y,,,,,,,M,19,
13,2,145,8,8,3,['k'],['k'],Y,Y,['space'],Y,,,,,,,M,19,
13,3,146,2,2,3,['k'],['k'],Y,N,None,Y,,,,,,,M,19,
13,4,147,4,4,3,['k'],['k'],Y,N,None,Y,,,,,,,M,19,
13,5,148,2,2,3,['k'],['d'],N,N,None,Y,,,,,,,M,19,
13,6,149,7,7,3,['k'],['d'],N,N,None,Y,39,44,21,,,,M,19,
13,7,150,2,2,4,['d'],['k'],N,,,,,,,,,,M,19,
13,8,151,7,7,4,['d'],['k'],N,,,,,,,,,,M,19,
13,9,152,2,2,4,['d'],['d'],Y,Y,['space'],Y,,,,,,,M,19,
13,10,153,0,0,4,['d'],['d'],Y,N,None,Y,,,,,,,M,19,
14,0,154,3,3,4,['k'],['k'],Y,Y,None,N,,,,,,,M,19,
14,1,155,9,9,4,['k'],['k'],Y,N,None,Y,,,,,,,M,19,
14,2,156,0,0,4,['d'],['d'],Y,N,None,Y,,,,,,,M,19,
14,3,157,1,1,4,['d'],['d'],Y,N,None,Y,,,,,,,M,19,
14,4,158,9,9,4,['k'],['k'],Y,Y,['space'],Y,,,,,,,M,19,
14,5,159,10,10,4,['k'],['k'],Y,N,None,Y,,,,,,,M,19,
14,6,160,4,4,4,['d'],['k'],N,N,None,Y,,,,,,,M,19,
14,7,161,5,5,4,['d'],['d'],Y,Y,['space'],Y,,,,,,,M,19,
14,8,162,1,1,4,['k'],['k'],Y,N,None,Y,,,,,,,M,19,
14,9,163,0,0,4,['d'],['d'],Y,Y,None,N,,,,,,,M,19,
14,10,164,6,6,4,['d'],['d'],Y,Y,None,N,,,,,,,M,19,
15,0,165,10,10,4,['k'],['k'],Y,N,None,Y,,,,,,,M,19,
15,1,166,10,10,4,['k'],['d'],N,Y,['space'],Y,,,,,,,M,19,
15,2,167,0,0,4,['k'],['k'],Y,N,None,Y,,,,,,,M,19,
15,3,168,7,7,4,['d'],['d'],Y,N,None,Y,,,,,,,M,19,
15,4,169,0,0,4,['d'],['d'],Y,Y,['space'],Y,,,,,,,M,19,
15,5,170,2,2,4,['d'],['d'],Y,Y,['space'],Y,,,,,,,M,19,
15,6,171,1,1,4,['d'],['d'],Y,Y,['space'],Y,,,,,,,M,19,
15,7,172,9,9,4,['d'],['d'],Y,Y,None,N,,,,,,,M,19,
15,8,173,0,0,4,['d'],['d'],Y,N,None,Y,,,,,,,M,19,
15,9,174,5,5,4,['k'],['k'],Y,N,None,Y,,,,,,,M,19,
15,10,175,4,4,4,['k'],['k'],Y,Y,['space'],Y,,,,,,,M,19,
16,0,176,2,2,4,['d'],['k'],N,Y,['space'],Y,,,,,,,M,19,
16,1,177,8,8,4,['k'],['d'],N,N,None,Y,,,,,,,M,19,
16,2,178,3,3,4,['d'],['d'],Y,Y,None,N,,,,,,,M,19,
16,3,179,3,3,4,['d'],['d'],Y,N,None,Y,,,,,,,M,19,
16,4,180,6,6,4,['k'],['d'],N,N,None,Y,,,,,,,M,19,
16,5,181,4,4,4,['k'],['k'],Y,N,None,Y,,,,,,,M,19,
16,6,182,1,1,4,['k'],['k'],Y,N,None,Y,,,,,,,M,19,
16,7,183,1,1,4,['d'],['d'],Y,Y,['space'],Y,,,,,,,M,19,
16,8,184,5,5,4,['k'],['d'],N,Y,['space'],Y,,,,,,,M,19,
16,9,185,7,7,4,['d'],['d'],Y,N,None,Y,,,,,,,M,19,
16,10,186,7,7,4,['d'],['k'],N,Y,['space'],Y,,,,,,,M,19,
17,0,187,6,6,4,['k'],['d'],N,Y,['space'],Y,,,,,,,M,19,
17,1,188,1,1,4,['d'],['d'],Y,N,None,Y,,,,,,,M,19,
17,2,189,1,1,4,['k'],['d'],N,N,None,Y,,,,,,,M,19,
17,3,190,0,0,4,['d'],['d'],Y,N,None,Y,,,,,,,M,19,
17,4,191,10,10,4,['k'],['k'],Y,Y,['space'],Y,,,,,,,M,19,
17,5,192,5,5,4,['k'],['d'],N,N,None,Y,,,,,,,M,19,
17,6,193,1,1,4,['d'],['d'],Y,N,None,Y,,,,,,,M,19,
17,7,194,6,6,4,['k'],['k'],Y,N,None,Y,,,,,,,M,19,
17,8,195,7,7,4,['d'],['d'],Y,N,None,Y,,,,,,,M,19,
17,9,196,3,3,4,['d'],['d'],Y,N,None,Y,,,,,,,M,19,
17,10,197,4,4,4,['d'],['k'],N,Y,None,N,,,,,,,M,19,
18,0,198,4,4,4,['k'],['k'],Y,N,None,Y,,,,,,,M,19,
18,1,199,7,7,4,['k'],['d'],N,Y,['space'],Y,36,42,21,,,,M,19,
18,2,200,0,0,5,['k'],['k'],Y,,,,,,,,,,M,19,
18,3,201,9,9,5,['d'],['d'],Y,,,,,,,,,,M,19,
18,4,202,6,6,5,['k'],['d'],N,N,None,Y,,,,,,,M,19,
18,5,203,1,1,5,['k'],['d'],N,Y,['space'],Y,,,,,,,M,19,
18,6,204,3,3,5,['k'],['k'],Y,Y,['space'],Y,,,,,,,M,19,
18,7,205,9,9,5,['k'],['k'],Y,Y,['space'],Y,,,,,,,M,19,
18,8,206,1,1,5,['k'],['k'],Y,N,None,Y,,,,,,,M,19,
18,9,207,0,0,5,['k'],['k'],Y,Y,['space'],Y,,,,,,,M,19,
18,10,208,6,6,5,['d'],['d'],Y,Y,['space'],Y,,,,,,,M,19,
19,0,209,0,0,5,['d'],['d'],Y,N,None,Y,,,,,,,M,19,
19,1,210,2,2,5,['k'],['k'],Y,N,None,Y,,,,,,,M,19,
19,2,211,9,9,5,['d'],['d'],Y,Y,['space'],Y,,,,,,,M,19,
19,3,212,4,4,5,['d'],['d'],Y,N,None,Y,,,,,,,M,19,
19,4,213,8,8,5,['k'],['k'],Y,N,None,Y,,,,,,,M,19,
19,5,214,9,9,5,['d'],['d'],Y,N,None,Y,,,,,,,M,19,
19,6,215,5,5,5,['d'],['d'],Y,Y,['space'],Y,,,,,,,M,19,
19,7,216,9,9,5,['k'],['k'],Y,N,None,Y,,,,,,,M,19,
19,8,217,7,7,5,['d'],['k'],N,Y,['space'],Y,,,,,,,M,19,
19,9,218,9,9,5,['k'],['k'],Y,N,None,Y,,,,,,,M,19,
19,10,219,4,4,5,['k'],['k'],Y,N,None,Y,,,,,,,M,19,
20,0,220,8,8,5,['k'],['k'],Y,N,None,Y,,,,,,,M,19,
20,1,221,2,2,5,['k'],['k'],Y,N,None,Y,,,,,,,M,19,
20,2,222,1,1,5,['d'],['d'],Y,Y,['space'],Y,,,,,,,M,19,
20,3,223,0,0,5,['k'],['k'],Y,Y,['space'],Y,,,,,,,M,19,
20,4,224,8,8,5,['d'],['d'],Y,Y,['space'],Y,,,,,,,M,19,
20,5,225,3,3,5,['d'],['d'],Y,N,None,Y,,,,,,,M,19,
20,6,226,9,9,5,['d'],['k'],N,N,None,Y,,,,,,,M,19,
20,7,227,7,7,5,['d'],['d'],Y,N,None,Y,,,,,,,M,19,
20,8,228,8,8,5,['d'],['k'],N,N,None,Y,,,,,,,M,19,
20,9,229,7,7,5,['k'],['d'],N,N,None,Y,,,,,,,M,19,
20,10,230,2,2,5,['d'],['d'],Y,N,None,Y,,,,,,,M,19,
21,0,231,5,5,5,['d'],['d'],Y,Y,None,N,,,,,,,M,19,
21,1,232,7,7,5,['k'],['k'],Y,Y,['space'],Y,,,,,,,M,19,
21,2,233,8,8,5,['d'],['d'],Y,Y,['space'],Y,,,,,,,M,19,
21,3,234,7,7,5,['d'],['d'],Y,N,None,Y,,,,,,,M,19,
21,4,235,2,2,5,['k'],['k'],Y,N,None,Y,,,,,,,M,19,
21,5,236,0,0,5,['d'],['d'],Y,N,None,Y,,,,,,,M,19,
21,6,237,2,2,5,['d'],['d'],Y,N,None,Y,,,,,,,M,19,
21,7,238,8,8,5,['d'],['d'],Y,Y,['space'],Y,,,,,,,M,19,
21,8,239,7,7,5,['k'],['k'],Y,Y,['space'],Y,,,,,,,M,19,
21,9,240,5,5,5,['d'],['d'],Y,Y,['space'],Y,,,,,,,M,19,
21,10,241,8,8,5,['d'],['d'],Y,Y,['space'],Y,,,,,,,M,19,
22,0,242,8,8,5,['d'],['d'],Y,Y,['space'],Y,,,,,,,M,19,
22,1,243,9,9,5,['d'],['d'],Y,N,None,Y,,,,,,,M,19,
22,2,244,2,2,5,['d'],['d'],Y,N,None,Y,,,,,,,M,19,
22,3,245,7,7,5,['k'],['k'],Y,Y,['space'],Y,,,,,,,M,19,
22,4,246,5,5,5,['d'],['d'],Y,N,None,Y,,,,,,,M,19,
22,5,247,10,10,5,['d'],['d'],Y,N,None,Y,,,,,,,M,19,
22,6,248,1,1,5,['k'],['k'],Y,N,None,Y,,,,,,,M,19,
22,7,249,6,6,5,['d'],['d'],Y,N,None,Y,44,47,20,,,,M,19,
22,8,250,2,2,6,['d'],['d'],Y,,,,,,,,,,M,19,
22,9,251,6,6,6,['k'],['k'],Y,,,,,,,,,,M,19,
22,10,252,9,9,6,['k'],['k'],Y,Y,['space'],Y,,,,,,,M,19,
23,0,253,0,0,6,['d'],['d'],Y,N,None,Y,,,,,,,M,19,
23,1,254,10,10,6,['k'],['k'],Y,N,None,Y,,,,,,,M,19,
23,2,255,6,6,6,['d'],['d'],Y,N,None,Y,,,,,,,M,19,
23,3,256,0,0,6,['d'],['k'],N,Y,['space'],Y,,,,,,,M,19,
23,4,257,4,4,6,['d'],['d'],Y,N,None,Y,,,,,,,M,19,
23,5,258,10,10,6,['d'],['d'],Y,N,None,Y,,,,,,,M,19,
23,6,259,4,4,6,['d'],['d'],Y,Y,None,N,,,,,,,M,19,
23,7,260,8,8,6,['d'],['d'],Y,Y,['space'],Y,,,,,,,M,19,
23,8,261,5,5,6,['d'],['d'],Y,Y,['space'],Y,,,,,,,M,19,
23,9,262,2,2,6,['k'],['k'],Y,N,None,Y,,,,,,,M,19,
23,10,263,10,10,6,['k'],['k'],Y,Y,['space'],Y,,,,,,,M,19,
24,0,264,2,2,6,['k'],['k'],Y,N,None,Y,,,,,,,M,19,
24,1,265,1,1,6,['k'],['d'],N,Y,['space'],Y,,,,,,,M,19,
24,2,266,1,1,6,['k'],['k'],Y,Y,None,N,,,,,,,M,19,
24,3,267,9,9,6,['k'],['d'],N,Y,['space'],Y,,,,,,,M,19,
24,4,268,0,0,6,['d'],['d'],Y,Y,['space'],Y,,,,,,,M,19,
24,5,269,9,9,6,['d'],['d'],Y,N,None,Y,,,,,,,M,19,
24,6,270,8,8,6,['d'],['d'],Y,N,None,Y,,,,,,,M,19,
24,7,271,2,2,6,['k'],['k'],Y,Y,['space'],Y,,,,,,,M,19,
24,8,272,7,7,6,['d'],['k'],N,N,None,Y,,,,,,,M,19,
24,9,273,5,5,6,['k'],['k'],Y,N,None,Y,,,,,,,M,19,
24,10,274,3,3,6,['d'],['k'],N,Y,['space'],Y,,,,,,,M,19,
25,0,275,5,5,6,['d'],['d'],Y,Y,['space'],Y,,,,,,,M,19,
25,1,276,2,2,6,['k'],['k'],Y,Y,['space'],Y,,,,,,,M,19,
25,2,277,10,10,6,['k'],['k'],Y,Y,['space'],Y,,,,,,,M,19,
25,3,278,8,8,6,['d'],['d'],Y,Y,['space'],Y,,,,,,,M,19,
25,4,279,2,2,6,['k'],['d'],N,Y,['space'],Y,,,,,,,M,19,
25,5,280,4,4,6,['d'],['d'],Y,Y,['d'],N,,,,,,,M,19,
25,6,281,9,9,6,['k'],['d'],N,N,None,Y,,,,,,,M,19,
25,7,282,6,6,6,['k'],['k'],Y,Y,['space'],Y,,,,,,,M,19,
25,8,283,5,5,6,['k'],['k'],Y,N,None,Y,,,,,,,M,19,
25,9,284,4,4,6,['k'],['k'],Y,N,None,Y,,,,,,,M,19,
25,10,285,1,1,6,['d'],['k'],N,N,None,Y,,,,,,,M,19,
26,0,286,3,3,6,['k'],['k'],Y,Y,['space'],Y,,,,,,,M,19,
26,1,287,5,5,6,['d'],['d'],Y,N,None,Y,,,,,,,M,19,
26,2,288,0,0,6,['d'],['d'],Y,Y,['space'],Y,,,,,,,M,19,
26,3,289,5,5,6,['k'],['k'],Y,N,None,Y,,,,,,,M,19,
26,4,290,1,1,6,['k'],['k'],Y,N,None,Y,,,,,,,M,19,
26,5,291,6,6,6,['d'],['d'],Y,N,None,Y,,,,,,,M,19,
26,6,292,2,2,6,['d'],['k'],N,N,None,Y,,,,,,,M,19,
26,7,293,10,10,6,['k'],['d'],N,Y,None,N,,,,,,,M,19,
26,8,294,9,9,6,['k'],['d'],N,N,None,Y,,,,,,,M,19,
26,9,295,0,0,6,['d'],['d'],Y,N,None,Y,,,,,,,M,19,
26,10,296,5,5,6,['d'],['k'],N,N,None,Y,,,,,,,M,19,
27,0,297,10,10,6,['k'],['k'],Y,N,None,Y,,,,,,,M,19,
27,1,298,3,3,6,['d'],['d'],Y,N,None,Y,,,,,,,M,19,
27,2,299,0,0,6,['d'],['k'],N,Y,None,N,37,43,23,,,,M,19,
27,3,300,5,5,7,['d'],['d'],Y,,,,,,,,,,M,19,
27,4,301,10,10,7,['d'],['d'],Y,,,,,,,,,,M,19,
27,5,302,3,3,7,['k'],['k'],Y,Y,['space'],Y,,,,,,,M,19,
27,6,303,8,8,7,['d'],['d'],Y,N,None,Y,,,,,,,M,19,
27,7,304,10,10,7,['k'],['d'],N,N,None,Y,,,,,,,M,19,
27,8,305,7,7,7,['d'],['d'],Y,N,None,Y,,,,,,,M,19,
27,9,306,3,3,7,['k'],['d'],N,N,None,Y,,,,,,,M,19,
27,10,307,1,1,7,['k'],['k'],Y,Y,['space'],Y,,,,,,,M,19,
28,0,308,7,7,7,['d'],['k'],N,Y,['space'],Y,,,,,,,M,19,
28,1,309,8,8,7,['k'],['d'],N,N,None,Y,,,,,,,M,19,
28,2,310,0,0,7,['k'],['d'],N,N,None,Y,,,,,,,M,19,
28,3,311,9,9,7,['d'],['d'],Y,N,None,Y,,,,,,,M,19,
28,4,312,9,9,7,['k'],['d'],N,Y,None,N,,,,,,,M,19,
28,5,313,10,10,7,['k'],['k'],Y,N,None,Y,,,,,,,M,19,
28,6,314,2,2,7,['k'],['k'],Y,N,None,Y,,,,,,,M,19,
28,7,315,6,6,7,['d'],['k'],N,N,None,Y,,,,,,,M,19,
28,8,316,7,7,7,['d'],['d'],Y,N,None,Y,,,,,,,M,19,
28,9,317,4,4,7,['k'],['k'],Y,Y,None,N,,,,,,,M,19,
28,10,318,2,2,7,['k'],['k'],Y,Y,None,N,,,,,,,M,19,
29,0,319,6,6,7,['d'],['d'],Y,Y,None,N,,,,,,,M,19,
29,1,320,0,0,7,['k'],['k'],Y,N,None,Y,,,,,,,M,19,
29,2,321,10,10,7,['d'],['d'],Y,Y,['space'],Y,,,,,,,M,19,
29,3,322,4,4,7,['d'],['d'],Y,N,None,Y,,,,,,,M,19,
29,4,323,6,6,7,['k'],['k'],Y,Y,None,N,,,,,,,M,19,
29,5,324,10,10,7,['d'],['d'],Y,N,None,Y,,,,,,,M,19,
29,6,325,9,9,7,['d'],['k'],N,N,None,Y,,,,,,,M,19,
29,7,326,10,10,7,['d'],['d'],Y,N,None,Y,,,,,,,M,19,
29,8,327,1,1,7,['k'],['k'],Y,N,None,Y,,,,,,,M,19,
29,9,328,3,3,7,['k'],['d'],N,N,None,Y,,,,,,,M,19,
29,10,329,3,3,7,['k'],['k'],Y,Y,None,N,,,,,,,M,19,
30,0,330,0,0,7,['k'],['k'],Y,Y,['space'],Y,,,,,,,M,19,
30,1,331,4,4,7,['d'],['d'],Y,N,None,Y,,,,,,,M,19,
30,2,332,5,5,7,['d'],['d'],Y,Y,['space'],Y,,,,,,,M,19,
30,3,333,4,4,7,['d'],['d'],Y,Y,['space'],Y,,,,,,,M,19,
30,4,334,1,1,7,['k'],['d'],N,Y,['space'],Y,,,,,,,M,19,
30,5,335,0,0,7,['k'],['k'],Y,N,None,Y,,,,,,,M,19,
30,6,336,3,3,7,['d'],['d'],Y,N,None,Y,,,,,,,M,19,
30,7,337,7,7,7,['d'],['d'],Y,N,None,Y,,,,,,,M,19,
30,8,338,0,0,7,['d'],['d'],Y,Y,['space'],Y,,,,,,,M,19,
30,9,339,2,2,7,['k'],['k'],Y,Y,['space'],Y,,,,,,,M,19,
30,10,340,4,4,7,['k'],['d'],N,Y,['space'],Y,,,,,,,M,19,
31,0,341,5,5,7,['k'],['k'],Y,Y,['space'],Y,,,,,,,M,19,
31,1,342,5,5,7,['k'],['k'],Y,Y,['space'],Y,,,,,,,M,19,
31,2,343,7,7,7,['d'],['k'],N,Y,['space'],Y,,,,,,,M,19,
31,3,344,9,9,7,['k'],['d'],N,Y,['space'],Y,,,,,,,M,19,
31,4,345,6,6,7,['k'],['k'],Y,Y,['space'],Y,,,,,,,M,19,
31,5,346,7,7,7,['d'],['d'],Y,Y,['space'],Y,,,,,,,M,19,
31,6,347,0,0,7,['d'],['d'],Y,N,None,Y,,,,,,,M,19,
31,7,348,2,2,7,['d'],['d'],Y,N,None,Y,,,,,,,M,19,
31,8,349,4,4,7,['d'],['d'],Y,Y,['space'],Y,37,42,24,,,,M,19,
31,9,350,0,0,8,['d'],['d'],Y,,,,,,,,,,M,19,
31,10,351,4,4,8,['k'],['k'],Y,,,,,,,,,,M,19,
32,0,352,1,1,8,['d'],['d'],Y,Y,['space'],Y,,,,,,,M,19,
32,1,353,2,2,8,['k'],['k'],Y,N,None,Y,,,,,,,M,19,
32,2,354,1,1,8,['d'],['d'],Y,Y,['space'],Y,,,,,,,M,19,
32,3,355,0,0,8,['d'],['d'],Y,N,None,Y,,,,,,,M,19,
32,4,356,4,4,8,['k'],['k'],Y,N,None,Y,,,,,,,M,19,
32,5,357,1,1,8,['k'],['k'],Y,N,None,Y,,,,,,,M,19,
32,6,358,3,3,8,['k'],['k'],Y,N,None,Y,,,,,,,M,19,
32,7,359,3,3,8,['d'],['d'],Y,Y,['space'],Y,,,,,,,M,19,
32,8,360,1,1,8,['d'],['d'],Y,Y,['space'],Y,,,,,,,M,19,
32,9,361,2,2,8,['d'],['d'],Y,Y,['space'],Y,,,,,,,M,19,
32,10,362,5,5,8,['k'],['k'],Y,N,None,Y,,,,,,,M,19,
33,0,363,8,8,8,['d'],['d'],Y,N,None,Y,,,,,,,M,19,
33,1,364,0,0,8,['k'],['k'],Y,Y,['space'],Y,,,,,,,M,19,
33,2,365,2,2,8,['d'],['d'],Y,Y,['space'],Y,,,,,,,M,19,
33,3,366,6,6,8,['k'],['k'],Y,Y,['space'],Y,,,,,,,M,19,
33,4,367,3,3,8,['d'],['d'],Y,Y,['space'],Y,,,,,,,M,19,
33,5,368,10,10,8,['d'],['d'],Y,N,None,Y,,,,,,,M,19,
33,6,369,1,1,8,['k'],['k'],Y,N,None,Y,,,,,,,M,19,
33,7,370,5,5,8,['k'],['d'],N,N,None,Y,,,,,,,M,19,
33,8,371,9,9,8,['k'],['k'],Y,N,None,Y,,,,,,,M,19,
33,9,372,7,7,8,['k'],['k'],Y,N,None,Y,,,,,,,M,19,
33,10,373,3,3,8,['k'],['k'],Y,N,None,Y,,,,,,,M,19,
34,0,374,6,6,8,['d'],['d'],Y,N,None,Y,,,,,,,M,19,
34,1,375,3,3,8,['d'],['d'],Y,Y,['space'],Y,,,,,,,M,19,
34,2,376,6,6,8,['d'],['d'],Y,Y,['space'],Y,,,,,,,M,19,
34,3,377,6,6,8,['d'],['d'],Y,Y,['space'],Y,,,,,,,M,19,
34,4,378,9,9,8,['k'],['k'],Y,N,None,Y,,,,,,,M,19,
34,5,379,5,5,8,['k'],['k'],Y,Y,['space'],Y,,,,,,,M,19,
34,6,380,10,10,8,['d'],['d'],Y,N,None,Y,,,,,,,M,19,
34,7,381,0,0,8,['k'],['k'],Y,Y,['space'],Y,,,,,,,M,19,
34,8,382,2,2,8,['k'],['k'],Y,N,None,Y,,,,,,,M,19,
34,9,383,2,2,8,['k'],['k'],Y,Y,['space'],Y,,,,,,,M,19,
34,10,384,3,3,8,['k'],['k'],Y,Y,['space'],Y,,,,,,,M,19,
35,0,385,10,10,8,['k'],['k'],Y,N,None,Y,,,,,,,M,19,
35,1,386,10,10,8,['k'],['k'],Y,Y,['space'],Y,,,,,,,M,19,
35,2,387,8,8,8,['k'],['d'],N,Y,['space'],Y,,,,,,,M,19,
35,3,388,10,10,8,['k'],['k'],Y,N,None,Y,,,,,,,M,19,
35,4,389,8,8,8,['k'],['k'],Y,N,None,Y,,,,,,,M,19,
35,5,390,4,4,8,['k'],['k'],Y,Y,['space'],Y,,,,,,,M,19,
35,6,391,7,7,8,['d'],['d'],Y,N,None,Y,,,,,,,M,19,
35,7,392,8,8,8,['k'],['d'],N,N,None,Y,,,,,,,M,19,
35,8,393,1,1,8,['k'],['k'],Y,N,None,Y,,,,,,,M,19,
35,9,394,2,2,8,['d'],['d'],Y,Y,['space'],Y,,,,,,,M,19,
35,10,395,0,0,8,['k'],['k'],Y,N,None,Y,,,,,,,M,19,
36,0,396,4,4,8,['k'],['k'],Y,N,None,Y,,,,,,,M,19,
36,1,397,9,9,8,['d'],['d'],Y,Y,['space'],Y,,,,,,,M,19,
36,2,398,3,3,8,['k'],['k'],Y,N,None,Y,,,,,,,M,19,
36,3,399,0,0,8,['d'],['d'],Y,Y,['space'],Y,47,48,22,,,,M,19,
36,4,400,6,6,9,['d'],['d'],Y,,,,,,,,,,M,19,
36,5,401,3,3,9,['k'],['k'],Y,,,,,,,,,,M,19,
36,6,402,0,0,9,['k'],['k'],Y,N,None,Y,,,,,,,M,19,
36,7,403,3,3,9,['k'],['k'],Y,N,None,Y,,,,,,,M,19,
36,8,404,10,10,9,['k'],['k'],Y,N,None,Y,,,,,,,M,19,
36,9,405,8,8,9,['d'],['k'],N,N,None,Y,,,,,,,M,19,
36,10,406,3,3,9,['d'],['d'],Y,Y,['space'],Y,,,,,,,M,19,
37,0,407,0,0,9,['d'],['d'],Y,N,None,Y,,,,,,,M,19,
37,1,408,3,3,9,['k'],['d'],N,Y,['space'],Y,,,,,,,M,19,
37,2,409,7,7,9,['d'],['d'],Y,Y,['space'],Y,,,,,,,M,19,
37,3,410,9,9,9,['d'],['d'],Y,N,None,Y,,,,,,,M,19,
37,4,411,5,5,9,['k'],['d'],N,N,None,Y,,,,,,,M,19,
37,5,412,8,8,9,['k'],['d'],N,N,None,Y,,,,,,,M,19,
37,6,413,7,7,9,['d'],['d'],Y,Y,None,N,,,,,,,M,19,
37,7,414,0,0,9,['k'],['k'],Y,Y,None,N,,,,,,,M,19,
37,8,415,7,7,9,['d'],['d'],Y,N,None,Y,,,,,,,M,19,
37,9,416,7,7,9,['d'],['d'],Y,N,None,Y,,,,,,,M,19,
37,10,417,9,9,9,['d'],['k'],N,N,None,Y,,,,,,,M,19,
38,0,418,4,4,9,['k'],['k'],Y,N,None,Y,,,,,,,M,19,
38,1,419,1,1,9,['d'],['k'],N,Y,None,N,,,,,,,M,19,
38,2,420,7,7,9,['k'],['k'],Y,Y,['space'],Y,,,,,,,M,19,
38,3,421,2,2,9,['k'],['d'],N,Y,['space'],Y,,,,,,,M,19,
38,4,422,8,8,9,['d'],['d'],Y,Y,['space'],Y,,,,,,,M,19,
38,5,423,0,0,9,['k'],['k'],Y,Y,['space'],Y,,,,,,,M,19,
38,6,424,9,9,9,['d'],['d'],Y,Y,['space'],Y,,,,,,,M,19,
38,7,425,10,10,9,['k'],['k'],Y,N,None,Y,,,,,,,M,19,
38,8,426,6,6,9,['d'],['d'],Y,N,None,Y,,,,,,,M,19,
38,9,427,1,1,9,['d'],['k'],N,Y,['space'],Y,,,,,,,M,19,
38,10,428,5,5,9,['k'],['k'],Y,N,None,Y,,,,,,,M,19,
39,0,429,4,4,9,['k'],['k'],Y,N,None,Y,,,,,,,M,19,
39,1,430,4,4,9,['d'],['k'],N,N,['space'],N,,,,,,,M,19,
39,2,431,6,6,9,['d'],['d'],Y,Y,['space'],Y,,,,,,,M,19,
39,3,432,1,1,9,['d'],['d'],Y,N,None,Y,,,,,,,M,19,
39,4,433,6,6,9,['d'],['d'],Y,N,None,Y,,,,,,,M,19,
39,5,434,2,2,9,['d'],['d'],Y,N,None,Y,,,,,,,M,19,
39,6,435,4,4,9,['d'],['d'],Y,Y,['space'],Y,,,,,,,M,19,
39,7,436,2,2,9,['d'],['d'],Y,Y,['space'],Y,,,,,,,M,19,
39,8,437,9,9,9,['k'],['k'],Y,N,None,Y,,,,,,,M,19,
39,9,438,4,4,9,['k'],['k'],Y,N,None,Y,,,,,,,M,19,
39,10,439,8,8,9,['k'],['d'],N,N,None,Y,,,,,,,M,19,
40,0,440,9,9,9,['d'],['d'],Y,N,None,Y,,,,,,,M,19,
40,1,441,4,4,9,['k'],['d'],N,N,['space'],N,,,,,,,M,19,
40,2,442,0,0,9,['k'],['k'],Y,N,None,Y,,,,,,,M,19,
40,3,443,9,9,9,['d'],['d'],Y,Y,['space'],Y,,,,,,,M,19,
40,4,444,9,9,9,['d'],['d'],Y,N,None,Y,,,,,,,M,19,
40,5,445,10,10,9,['k'],['k'],Y,N,None,Y,,,,,,,M,19,
40,6,446,7,7,9,['d'],['d'],Y,Y,['space'],Y,,,,,,,M,19,
40,7,447,0,0,9,['k'],['k'],Y,Y,['space'],Y,,,,,,,M,19,
40,8,448,10,10,9,['k'],['k'],Y,Y,['space'],Y,,,,,,,M,19,
40,9,449,4,4,9,['d'],['d'],Y,N,None,Y,39,43,19,,,,M,19,
40,10,450,3,3,10,['d'],['d'],Y,,,,,,,,,,M,19,
41,0,451,4,4,10,['k'],['d'],N,,,,,,,,,,M,19,
41,1,452,8,8,10,['k'],['k'],Y,N,None,Y,,,,,,,M,19,
41,2,453,1,1,10,['k'],['d'],N,N,None,Y,,,,,,,M,19,
41,3,454,1,1,10,['k'],['k'],Y,N,None,Y,,,,,,,M,19,
41,4,455,8,8,10,['k'],['k'],Y,Y,None,N,,,,,,,M,19,
41,5,456,10,10,10,['k'],['k'],Y,N,None,Y,,,,,,,M,19,
41,6,457,7,7,10,['d'],['d'],Y,N,None,Y,,,,,,,M,19,
41,7,458,8,8,10,['k'],['k'],Y,N,None,Y,,,,,,,M,19,
41,8,459,10,10,10,['k'],['k'],Y,N,None,Y,,,,,,,M,19,
41,9,460,3,3,10,['d'],['d'],Y,Y,['space'],Y,,,,,,,M,19,
41,10,461,3,3,10,['k'],['k'],Y,N,None,Y,,,,,,,M,19,
42,0,462,10,10,10,['d'],['d'],Y,N,None,Y,,,,,,,M,19,
42,1,463,7,7,10,['d'],['d'],Y,N,None,Y,,,,,,,M,19,
42,2,464,7,7,10,['d'],['d'],Y,Y,['space'],Y,,,,,,,M,19,
42,3,465,5,5,10,['d'],['k'],N,Y,['space'],Y,,,,,,,M,19,
42,4,466,0,0,10,['d'],['d'],Y,Y,['k'],N,,,,,,,M,19,
42,5,467,7,7,10,['d'],['d'],Y,N,None,Y,,,,,,,M,19,
42,6,468,5,5,10,['k'],['k'],Y,N,None,Y,,,,,,,M,19,
42,7,469,5,5,10,['k'],['k'],Y,Y,['space'],Y,,,,,,,M,19,
42,8,470,6,6,10,['k'],['k'],Y,N,None,Y,,,,,,,M,19,
42,9,471,1,1,10,['k'],['k'],Y,N,None,Y,,,,,,,M,19,
42,10,472,10,10,10,['k'],['k'],Y,Y,['space'],Y,,,,,,,M,19,
43,0,473,3,3,10,['k'],['k'],Y,Y,['space'],Y,,,,,,,M,19,
43,1,474,1,1,10,['d'],['d'],Y,Y,['space'],Y,,,,,,,M,19,
43,2,475,10,10,10,['d'],['k'],N,N,None,Y,,,,,,,M,19,
43,3,476,9,9,10,['k'],['k'],Y,Y,['space'],Y,,,,,,,M,19,
43,4,477,10,10,10,['k'],['d'],N,N,['space'],N,,,,,,,M,19,
43,5,478,4,4,10,['d'],['d'],Y,Y,None,N,,,,,,,M,19,
43,6,479,8,8,10,['k'],['k'],Y,Y,['space'],Y,,,,,,,M,19,
43,7,480,3,3,10,['k'],['k'],Y,Y,['space'],Y,,,,,,,M,19,
43,8,481,5,5,10,['d'],['d'],Y,Y,['space'],Y,,,,,,,M,19,
43,9,482,3,3,10,['k'],['k'],Y,N,None,Y,,,,,,,M,19,
43,10,483,6,6,10,['d'],['d'],Y,Y,['space'],Y,,,,,,,M,19,
44,0,484,8,8,10,['k'],['k'],Y,Y,['space'],Y,,,,,,,M,19,
44,1,485,7,7,10,['k'],['k'],Y,N,None,Y,,,,,,,M,19,
44,2,486,8,8,10,['k'],['d'],N,Y,None,N,,,,,,,M,19,
44,3,487,5,5,10,['d'],['d'],Y,Y,['space'],Y,,,,,,,M,19,
44,4,488,3,3,10,['k'],['k'],Y,N,None,Y,,,,,,,M,19,
44,5,489,5,5,10,['k'],['k'],Y,Y,['space'],Y,,,,,,,M,19,
44,6,490,1,1,10,['d'],['d'],Y,Y,['space'],Y,,,,,,,M,19,
44,7,491,6,6,10,['k'],['k'],Y,Y,['space'],Y,,,,,,,M,19,
44,8,492,2,2,10,['d'],['k'],N,Y,None,N,,,,,,,M,19,
44,9,493,6,6,10,['k'],['d'],N,N,None,Y,,,,,,,M,19,
44,10,494,9,9,10,['d'],['d'],Y,N,None,Y,,,,,,,M,19,
45,0,495,5,5,10,['k'],['k'],Y,N,None,Y,,,,,,,M,19,
45,1,496,10,10,10,['d'],['d'],Y,N,None,Y,,,,,,,M,19,
45,2,497,9,9,10,['d'],['d'],Y,N,None,Y,,,,,,,M,19,
45,3,498,9,9,10,['k'],['k'],Y,N,None,Y,,,,,,,M,19,
45,4,499,9,9,10,['k'],['k'],Y,Y,['space'],Y,42,42,23,,,,M,19,
45,5,500,9,9,11,['k'],['k'],N,,,,,,,Y,Y,Y,M,19,
45,6,501,6,6,11,['d'],['d'],N,,,,,,,,Y,Y,M,19,
45,7,502,1,1,11,['d'],['k'],Y,Y,['space'],Y,,,,,Y,Y,M,19,
45,8,503,10,10,11,['k'],['d'],Y,N,None,Y,,,,,Y,Y,M,19,
45,9,504,7,7,11,['k'],['d'],Y,Y,None,N,,,,,Y,Y,M,19,
45,10,505,2,2,11,['d'],['k'],Y,N,None,Y,,,,,Y,Y,M,19,
46,0,506,2,2,11,['d'],['k'],Y,Y,['space'],Y,,,,,Y,Y,M,19,
46,1,507,3,3,11,['k'],['d'],Y,Y,['space'],Y,,,,,Y,Y,M,19,
46,2,508,8,8,11,['d'],['k'],Y,N,None,Y,,,,,Y,Y,M,19,
46,3,509,5,5,11,['d'],['k'],Y,N,None,Y,,,,,Y,Y,M,19,
46,4,510,3,3,11,['k'],['d'],Y,Y,['space'],Y,,,,,Y,Y,M,19,
46,5,511,1,1,11,['k'],['d'],Y,Y,['space'],Y,,,,,Y,Y,M,19,
46,6,512,1,1,11,['k'],['d'],Y,Y,['space'],Y,,,,,Y,Y,M,19,
46,7,513,6,6,11,['k'],['d'],Y,N,None,Y,,,,,Y,Y,M,19,
46,8,514,3,3,11,['k'],['d'],Y,Y,['space'],Y,,,,,Y,Y,M,19,
46,9,515,10,10,11,['k'],['d'],Y,Y,['space'],Y,,,,,Y,Y,M,19,
46,10,516,7,7,11,['k'],['k'],N,N,None,Y,,,,,Y,Y,M,19,
47,0,517,3,3,11,['k'],['d'],Y,N,None,Y,,,,,Y,Y,M,19,
47,1,518,10,10,11,['d'],['k'],Y,N,None,Y,,,,,Y,Y,M,19,
47,2,519,0,0,11,['d'],['k'],Y,Y,['space'],Y,,,,,Y,Y,M,19,
47,3,520,3,3,11,['k'],['d'],Y,N,None,Y,,,,,Y,Y,M,19,
47,4,521,7,7,11,['k'],['d'],Y,N,None,Y,,,,,Y,Y,M,19,
47,5,522,10,10,11,['k'],['d'],Y,Y,['space'],Y,,,,,Y,Y,M,19,
47,6,523,1,1,11,['d'],['d'],N,N,None,Y,,,,,Y,Y,M,19,
47,7,524,10,10,11,['d'],['k'],Y,Y,['space'],Y,,,,,Y,Y,M,19,
47,8,525,9,9,11,['k'],['d'],Y,N,None,Y,,,,,Y,Y,M,19,
47,9,526,8,8,11,['d'],['k'],Y,N,None,Y,,,,,Y,Y,M,19,
47,10,527,0,0,11,['d'],['k'],Y,N,None,Y,,,,,Y,Y,M,19,
48,0,528,4,4,11,['k'],['d'],Y,Y,['space'],Y,,,,,Y,Y,M,19,
48,1,529,4,4,11,['k'],['d'],Y,N,None,Y,,,,,Y,Y,M,19,
48,2,530,2,2,11,['d'],['k'],Y,Y,['space'],Y,,,,,Y,Y,M,19,
48,3,531,3,3,11,['k'],['d'],Y,N,None,Y,,,,,Y,Y,M,19,
48,4,532,5,5,11,['k'],['d'],Y,N,None,Y,,,,,Y,Y,M,19,
48,5,533,7,7,11,['d'],['k'],Y,N,None,Y,,,,,Y,Y,M,19,
48,6,534,5,5,11,['k'],['d'],Y,N,None,Y,,,,,Y,Y,M,19,
48,7,535,1,1,11,['d'],['k'],Y,N,None,Y,,,,,Y,Y,M,19,
48,8,536,6,6,11,['k'],['d'],Y,Y,['space'],Y,,,,,Y,Y,M,19,
48,9,537,0,0,11,['k'],['d'],Y,N,None,Y,,,,,Y,Y,M,19,
48,10,538,1,1,11,['d'],['k'],Y,Y,['space'],Y,,,,,Y,Y,M,19,
49,0,539,3,3,11,['d'],['k'],Y,Y,['space'],Y,,,,,Y,Y,M,19,
49,1,540,2,2,11,['k'],['d'],Y,Y,['space'],Y,,,,,Y,Y,M,19,
49,2,541,9,9,11,['k'],['d'],Y,N,None,Y,,,,,Y,Y,M,19,
49,3,542,4,4,11,['k'],['k'],N,Y,None,N,,,,,Y,Y,M,19,
49,4,543,3,3,11,['k'],['d'],Y,Y,None,N,,,,,Y,Y,M,19,
49,5,544,9,9,11,['d'],['d'],N,Y,None,N,,,,,Y,Y,M,19,
49,6,545,9,9,11,['d'],['k'],Y,Y,['space'],Y,,,,,Y,Y,M,19,
49,7,546,10,10,11,['k'],['d'],Y,Y,['space'],Y,,,,,Y,Y,M,19,
49,8,547,7,7,11,['d'],['d'],N,Y,['space'],Y,,,,,Y,Y,M,19,
49,9,548,6,6,11,['d'],['k'],Y,Y,['space'],Y,,,,,Y,Y,M,19,
49,10,549,4,4,11,['k'],['k'],N,N,None,Y,42,44,25,,Y,Y,M,19,
50,0,550,0,0,12,['d'],['d'],N,,,,,,,,Y,Y,M,19,
50,1,551,10,10,12,['d'],['k'],Y,,,,,,,,Y,Y,M,19,
50,2,552,4,4,12,['k'],['d'],Y,N,None,Y,,,,,Y,Y,M,19,
50,3,553,3,3,12,['d'],['k'],Y,Y,['space'],Y,,,,,Y,Y,M,19,
50,4,554,1,1,12,['d'],['k'],Y,N,None,Y,,,,,Y,Y,M,19,
50,5,555,7,7,12,['d'],['d'],N,Y,['space'],Y,,,,,Y,Y,M,19,
50,6,556,8,8,12,['d'],['k'],Y,N,None,Y,,,,,Y,Y,M,19,
50,7,557,6,6,12,['k'],['d'],Y,Y,['space'],Y,,,,,Y,Y,M,19,
50,8,558,8,8,12,['k'],['d'],Y,N,None,Y,,,,,Y,Y,M,19,
50,9,559,4,4,12,['d'],['k'],Y,Y,['space'],Y,,,,,Y,Y,M,19,
50,10,560,8,8,12,['d'],['k'],Y,Y,['space'],Y,,,,,Y,Y,M,19,
51,0,561,8,8,12,['d'],['k'],Y,N,None,Y,,,,,Y,Y,M,19,
51,1,562,0,0,12,['d'],['k'],Y,Y,['space'],Y,,,,,Y,Y,M,19,
51,2,563,8,8,12,['k'],['k'],N,Y,['space'],Y,,,,,Y,Y,M,19,
51,3,564,2,2,12,['k'],['d'],Y,Y,['space'],Y,,,,,Y,Y,M,19,
51,4,565,8,8,12,['d'],['d'],N,Y,['space'],Y,,,,,Y,Y,M,19,
51,5,566,4,4,12,['d'],['k'],Y,Y,None,N,,,,,Y,Y,M,19,
51,6,567,0,0,12,['k'],['d'],Y,N,None,Y,,,,,Y,Y,M,19,
51,7,568,7,7,12,['k'],['d'],Y,N,None,Y,,,,,Y,Y,M,19,
51,8,569,10,10,12,['d'],['k'],Y,N,None,Y,,,,,Y,Y,M,19,
51,9,570,5,5,12,['d'],['k'],Y,Y,['space'],Y,,,,,Y,Y,M,19,
51,10,571,0,0,12,['k'],['d'],Y,N,None,Y,,,,,Y,Y,M,19,
52,0,572,4,4,12,['k'],['d'],Y,N,None,Y,,,,,Y,Y,M,19,
52,1,573,8,8,12,['d'],['k'],Y,Y,['space'],Y,,,,,Y,Y,M,19,
52,2,574,8,8,12,['d'],['k'],Y,Y,['space'],Y,,,,,Y,Y,M,19,
52,3,575,5,5,12,['d'],['d'],N,N,None,Y,,,,,Y,Y,M,19,
52,4,576,10,10,12,['k'],['d'],Y,Y,None,N,,,,,Y,Y,M,19,
52,5,577,1,1,12,['d'],['k'],Y,Y,['space'],Y,,,,,Y,Y,M,19,
52,6,578,2,2,12,['k'],['d'],Y,N,None,Y,,,,,Y,Y,M,19,
52,7,579,7,7,12,['d'],['k'],Y,Y,['space'],Y,,,,,Y,Y,M,19,
52,8,580,7,7,12,['k'],['k'],N,N,None,Y,,,,,Y,Y,M,19,
52,9,581,6,6,12,['k'],['d'],Y,N,None,Y,,,,,Y,Y,M,19,
52,10,582,4,4,12,['d'],['k'],Y,Y,['space'],Y,,,,,Y,Y,M,19,
53,0,583,4,4,12,['d'],['k'],Y,Y,['space'],Y,,,,,Y,Y,M,19,
53,1,584,8,8,12,['d'],['k'],Y,Y,['space'],Y,,,,,Y,Y,M,19,
53,2,585,7,7,12,['d'],['k'],Y,Y,['space'],Y,,,,,Y,Y,M,19,
53,3,586,9,9,12,['k'],['k'],N,N,None,Y,,,,,Y,Y,M,19,
53,4,587,9,9,12,['k'],['d'],Y,Y,None,N,,,,,Y,Y,M,19,
53,5,588,5,5,12,['k'],['d'],Y,Y,['space'],Y,,,,,Y,Y,M,19,
53,6,589,6,6,12,['d'],['k'],Y,Y,['space'],Y,,,,,Y,Y,M,19,
53,7,590,1,1,12,['d'],['k'],Y,Y,['space'],Y,,,,,Y,Y,M,19,
53,8,591,5,5,12,['k'],['d'],Y,N,None,Y,,,,,Y,Y,M,19,
53,9,592,2,2,12,['d'],['k'],Y,Y,['space'],Y,,,,,Y,Y,M,19,
53,10,593,6,6,12,['k'],['d'],Y,N,None,Y,,,,,Y,Y,M,19,
54,0,594,7,7,12,['k'],['k'],N,N,None,Y,,,,,Y,Y,M,19,
54,1,595,10,10,12,['k'],['d'],Y,N,None,Y,,,,,Y,Y,M,19,
54,2,596,8,8,12,['k'],['d'],Y,N,None,Y,,,,,Y,Y,M,19,
54,3,597,8,8,12,['k'],['d'],Y,N,['space'],N,,,,,Y,Y,M,19,
54,4,598,4,4,12,['d'],['k'],Y,N,None,Y,,,,,Y,Y,M,19,
54,5,599,8,8,12,['k'],['d'],Y,N,None,Y,42,44,25,,Y,Y,M,19,
