.thisRepN,.thisTrialN,.thisN,.thisIndex,.thisTrial,Block Number,Key pressed,Category,Correct?,Int Match?,Int Response,Int Correct?,Line Accuracy,Interference Accuracy,Matching Interferences,New instruction shown?,Buttons switched?,Fast?,gender,age,
0,0,0,6,6,1,['k'],['k'],Y,,,,,,,,,,F,18,
0,1,1,8,8,1,['k'],['d'],N,,,,,,,,,,F,18,
0,2,2,7,7,1,['k'],['k'],Y,N,None,Y,,,,,,,F,18,
0,3,3,9,9,1,['d'],['k'],N,Y,None,N,,,,,,,F,18,
0,4,4,2,2,1,['d'],['d'],Y,N,None,Y,,,,,,,F,18,
0,5,5,3,3,1,['k'],['d'],N,N,['space'],N,,,,,,,F,18,
0,6,6,2,2,1,['d'],['k'],N,Y,None,N,,,,,,,F,18,
0,7,7,2,2,1,['k'],['k'],Y,N,None,Y,,,,,,,F,18,
0,8,8,8,8,1,['d'],['d'],Y,N,['space'],N,,,,,,,F,18,
0,9,9,0,0,1,['k'],['k'],Y,N,None,Y,,,,,,,F,18,
0,10,10,10,10,1,['d'],['d'],Y,Y,['space'],Y,,,,,,,F,18,
1,0,11,4,4,1,['d'],['d'],Y,N,None,Y,,,,,,,F,18,
1,1,12,5,5,1,['k'],['d'],N,Y,['space'],Y,,,,,,,F,18,
1,2,13,5,5,1,['k'],['k'],Y,N,None,Y,,,,,,,F,18,
1,3,14,8,8,1,['k'],['k'],Y,N,['space'],N,,,,,,,F,18,
1,4,15,0,0,1,['d'],['d'],Y,N,['space'],N,,,,,,,F,18,
1,5,16,8,8,1,['k'],['k'],Y,N,None,Y,,,,,,,F,18,
1,6,17,2,2,1,['k'],['k'],Y,N,None,Y,,,,,,,F,18,
1,7,18,6,6,1,['d'],['k'],N,N,['space'],N,,,,,,,F,18,
1,8,19,2,2,1,['d'],['k'],N,Y,None,N,,,,,,,F,18,
1,9,20,1,1,1,['k'],['k'],Y,Y,['space'],Y,,,,,,,F,18,
1,10,21,4,4,1,['k'],['d'],N,N,None,Y,,,,,,,F,18,
2,0,22,7,7,1,['k'],['k'],Y,Y,['space'],Y,,,,,,,F,18,
2,1,23,10,10,1,['d'],['d'],Y,Y,['space'],Y,,,,,,,F,18,
2,2,24,3,3,1,['k'],['k'],Y,Y,None,N,,,,,,,F,18,
2,3,25,7,7,1,['d'],['d'],Y,Y,None,N,,,,,,,F,18,
2,4,26,7,7,1,['d'],['d'],Y,Y,['space'],Y,,,,,,,F,18,
2,5,27,8,8,1,['k'],['k'],Y,Y,None,N,,,,,,,F,18,
2,6,28,1,1,1,['d'],['d'],Y,N,None,Y,,,,,,,F,18,
2,7,29,3,3,1,['k'],['k'],Y,N,None,Y,,,,,,,F,18,
2,8,30,4,4,1,['d'],['d'],Y,N,None,Y,,,,,,,F,18,
2,9,31,3,3,1,['d'],['k'],N,N,['space'],N,,,,,,,F,18,
2,10,32,2,2,1,['k'],['d'],N,Y,None,N,,,,,,,F,18,
3,0,33,10,10,1,['k'],['k'],Y,Y,['space'],Y,,,,,,,F,18,
3,1,34,5,5,1,['k'],['k'],Y,N,None,Y,,,,,,,F,18,
3,2,35,9,9,1,['k'],['d'],N,Y,None,N,,,,,,,F,18,
3,3,36,2,2,1,['d'],['d'],Y,Y,None,N,,,,,,,F,18,
3,4,37,6,6,1,['k'],['d'],N,N,None,Y,,,,,,,F,18,
3,5,38,4,4,1,['d'],['d'],Y,N,None,Y,,,,,,,F,18,
3,6,39,7,7,1,['k'],['k'],Y,Y,['space'],Y,,,,,,,F,18,
3,7,40,7,7,1,['k'],['k'],Y,N,['space'],N,,,,,,,F,18,
3,8,41,7,7,1,['d'],['d'],Y,N,['space'],N,,,,,,,F,18,
3,9,42,3,3,1,['k'],['k'],Y,N,['space'],N,,,,,,,F,18,
3,10,43,6,6,1,['d'],['d'],Y,N,None,Y,,,,,,,F,18,
4,0,44,1,1,1,['k'],['k'],Y,Y,['space'],Y,,,,,,,F,18,
4,1,45,9,9,1,['d'],['d'],Y,N,None,Y,,,,,,,F,18,
4,2,46,6,6,1,['d'],['d'],Y,Y,['space'],Y,,,,,,,F,18,
4,3,47,2,2,1,['k'],['k'],Y,N,None,Y,,,,,,,F,18,
4,4,48,1,1,1,['k'],['k'],Y,N,None,Y,,,,,,,F,18,
4,5,49,1,1,1,['k'],['k'],Y,Y,['space'],Y,38,30,20,,,,F,18,
4,6,50,4,4,2,['d'],['d'],Y,,,,,,,,,,F,18,
4,7,51,4,4,2,['k'],['k'],Y,,,,,,,,,,F,18,
4,8,52,7,7,2,['d'],['d'],Y,N,None,Y,,,,,,,F,18,
4,9,53,1,1,2,['k'],['k'],Y,Y,['space'],Y,,,,,,,F,18,
4,10,54,6,6,2,['k'],['d'],N,Y,['space'],Y,,,,,,,F,18,
5,0,55,8,8,2,['d'],['d'],Y,Y,['space'],Y,,,,,,,F,18,
5,1,56,0,0,2,['k'],['k'],Y,N,None,Y,,,,,,,F,18,
5,2,57,4,4,2,['d'],['d'],Y,N,None,Y,,,,,,,F,18,
5,3,58,9,9,2,['k'],['k'],Y,Y,['space'],Y,,,,,,,F,18,
5,4,59,6,6,2,['d'],['d'],Y,N,None,Y,,,,,,,F,18,
5,5,60,2,2,2,['k'],['k'],Y,N,None,Y,,,,,,,F,18,
5,6,61,0,0,2,['d'],['d'],Y,N,['space'],N,,,,,,,F,18,
5,7,62,9,9,2,['d'],['d'],Y,N,None,Y,,,,,,,F,18,
5,8,63,4,4,2,['d'],['d'],Y,N,None,Y,,,,,,,F,18,
5,9,64,10,10,2,['k'],['k'],Y,N,None,Y,,,,,,,F,18,
5,10,65,2,2,2,['k'],['k'],Y,Y,['space'],Y,,,,,,,F,18,
6,0,66,2,2,2,['d'],['k'],N,N,None,Y,,,,,,,F,18,
6,1,67,10,10,2,['k'],['k'],Y,Y,['k'],N,,,,,,,F,18,
6,2,68,6,6,2,['k'],['d'],N,N,None,Y,,,,,,,F,18,
6,3,69,0,0,2,['k'],['k'],Y,Y,['space'],Y,,,,,,,F,18,
6,4,70,2,2,2,['d'],['d'],Y,Y,['space'],Y,,,,,,,F,18,
6,5,71,8,8,2,['k'],['d'],N,N,None,Y,,,,,,,F,18,
6,6,72,3,3,2,['k'],['k'],Y,N,None,Y,,,,,,,F,18,
6,7,73,6,6,2,['d'],['d'],Y,N,None,Y,,,,,,,F,18,
6,8,74,3,3,2,['d'],['d'],Y,Y,None,N,,,,,,,F,18,
6,9,75,9,9,2,['d'],['d'],Y,N,None,Y,,,,,,,F,18,
6,10,76,7,7,2,['k'],['k'],Y,Y,['space'],Y,,,,,,,F,18,
7,0,77,8,8,2,['k'],['k'],Y,Y,['space'],Y,,,,,,,F,18,
7,1,78,1,1,2,['d'],['d'],Y,N,None,Y,,,,,,,F,18,
7,2,79,9,9,2,['d'],['k'],N,N,None,Y,,,,,,,F,18,
7,3,80,6,6,2,['k'],['k'],Y,Y,['space'],Y,,,,,,,F,18,
7,4,81,9,9,2,['k'],['k'],Y,N,None,Y,,,,,,,F,18,
7,5,82,3,3,2,['k'],['k'],Y,Y,['space'],Y,,,,,,,F,18,
7,6,83,6,6,2,['k'],['k'],Y,N,['space'],N,,,,,,,F,18,
7,7,84,0,0,2,['d'],['d'],Y,N,None,Y,,,,,,,F,18,
7,8,85,10,10,2,['k'],['k'],Y,N,['space'],N,,,,,,,F,18,
7,9,86,1,1,2,['d'],['d'],Y,Y,['k'],N,,,,,,,F,18,
7,10,87,4,4,2,['k'],['k'],Y,Y,['space'],Y,,,,,,,F,18,
8,0,88,0,0,2,['k'],['d'],N,N,None,Y,,,,,,,F,18,
8,1,89,10,10,2,['d'],['d'],Y,Y,['space'],Y,,,,,,,F,18,
8,2,90,8,8,2,['k'],['k'],Y,Y,['space'],Y,,,,,,,F,18,
8,3,91,2,2,2,['k'],['k'],Y,N,None,Y,,,,,,,F,18,
8,4,92,8,8,2,['k'],['k'],Y,Y,None,N,,,,,,,F,18,
8,5,93,0,0,2,['d'],['d'],Y,Y,['space'],Y,,,,,,,F,18,
8,6,94,7,7,2,['k'],['k'],Y,N,None,Y,,,,,,,F,18,
8,7,95,7,7,2,['k'],['k'],Y,Y,['space'],Y,,,,,,,F,18,
8,8,96,9,9,2,['d'],['d'],Y,Y,None,N,,,,,,,F,18,
8,9,97,10,10,2,['d'],['d'],Y,N,None,Y,,,,,,,F,18,
8,10,98,2,2,2,['d'],['d'],Y,N,['space'],N,,,,,,,F,18,
9,0,99,3,3,2,['d'],['k'],N,Y,['space'],Y,43,39,22,,,,F,18,
9,1,100,10,10,3,['d'],['d'],Y,,,,,,,,,,F,18,
9,2,101,0,0,3,['k'],['k'],Y,,,,,,,,,,F,18,
9,3,102,9,9,3,['d'],['d'],Y,Y,['space'],Y,,,,,,,F,18,
9,4,103,0,0,3,['k'],['k'],Y,Y,['space'],Y,,,,,,,F,18,
9,5,104,2,2,3,['d'],['d'],Y,Y,['space'],Y,,,,,,,F,18,
9,6,105,4,4,3,['k'],['k'],Y,N,None,Y,,,,,,,F,18,
9,7,106,0,0,3,['k'],['k'],Y,N,None,Y,,,,,,,F,18,
9,8,107,1,1,3,['d'],['d'],Y,Y,['space'],Y,,,,,,,F,18,
9,9,108,1,1,3,['k'],['k'],Y,Y,['space'],Y,,,,,,,F,18,
9,10,109,4,4,3,['k'],['d'],N,Y,['space'],Y,,,,,,,F,18,
10,0,110,5,5,3,['d'],['d'],Y,N,None,Y,,,,,,,F,18,
10,1,111,8,8,3,['k'],['k'],Y,Y,['space'],Y,,,,,,,F,18,
10,2,112,10,10,3,['d'],['d'],Y,N,None,Y,,,,,,,F,18,
10,3,113,8,8,3,['k'],['k'],Y,N,None,Y,,,,,,,F,18,
10,4,114,3,3,3,['k'],['k'],Y,N,None,Y,,,,,,,F,18,
10,5,115,4,4,3,['k'],['k'],Y,Y,None,N,,,,,,,F,18,
10,6,116,2,2,3,['d'],['d'],Y,Y,None,N,,,,,,,F,18,
10,7,117,5,5,3,['k'],['k'],Y,N,None,Y,,,,,,,F,18,
10,8,118,6,6,3,['d'],['d'],Y,N,None,Y,,,,,,,F,18,
10,9,119,9,9,3,['d'],['d'],Y,Y,['space'],Y,,,,,,,F,18,
10,10,120,2,2,3,['k'],['k'],Y,N,None,Y,,,,,,,F,18,
11,0,121,7,7,3,['k'],['k'],Y,Y,['space'],Y,,,,,,,F,18,
11,1,122,4,4,3,['d'],['d'],Y,N,None,Y,,,,,,,F,18,
11,2,123,9,9,3,['k'],['k'],Y,Y,['space'],Y,,,,,,,F,18,
11,3,124,2,2,3,['k'],['k'],Y,Y,['space'],Y,,,,,,,F,18,
11,4,125,5,5,3,['k'],['d'],N,N,None,Y,,,,,,,F,18,
11,5,126,9,9,3,['k'],['k'],Y,Y,['space'],Y,,,,,,,F,18,
11,6,127,1,1,3,['k'],['d'],N,N,None,Y,,,,,,,F,18,
11,7,128,0,0,3,['k'],['k'],Y,N,None,Y,,,,,,,F,18,
11,8,129,10,10,3,['k'],['k'],Y,N,None,Y,,,,,,,F,18,
11,9,130,6,6,3,['k'],['d'],N,N,None,Y,,,,,,,F,18,
11,10,131,2,2,3,['d'],['d'],Y,N,None,Y,,,,,,,F,18,
12,0,132,6,6,3,['d'],['k'],N,N,None,Y,,,,,,,F,18,
12,1,133,6,6,3,['d'],['k'],N,N,['space'],N,,,,,,,F,18,
12,2,134,3,3,3,['d'],['d'],Y,N,['space'],N,,,,,,,F,18,
12,3,135,9,9,3,['d'],['d'],Y,Y,None,N,,,,,,,F,18,
12,4,136,7,7,3,['k'],['k'],Y,Y,None,N,,,,,,,F,18,
12,5,137,6,6,3,['k'],['k'],Y,Y,['space'],Y,,,,,,,F,18,
12,6,138,9,9,3,['k'],['k'],Y,N,None,Y,,,,,,,F,18,
12,7,139,5,5,3,['d'],['d'],Y,N,None,Y,,,,,,,F,18,
12,8,140,7,7,3,['k'],['k'],Y,N,None,Y,,,,,,,F,18,
12,9,141,0,0,3,['k'],['k'],Y,Y,None,N,,,,,,,F,18,
12,10,142,1,1,3,['d'],['k'],N,Y,['space'],Y,,,,,,,F,18,
13,0,143,5,5,3,['d'],['d'],Y,N,None,Y,,,,,,,F,18,
13,1,144,3,3,3,['d'],['d'],Y,Y,None,N,,,,,,,F,18,
13,2,145,8,8,3,['d'],['d'],Y,Y,['space'],Y,,,,,,,F,18,
13,3,146,10,10,3,['d'],['d'],Y,Y,['space'],Y,,,,,,,F,18,
13,4,147,7,7,3,['d'],['k'],N,Y,['space'],Y,,,,,,,F,18,
13,5,148,10,10,3,['k'],['d'],N,N,None,Y,,,,,,,F,18,
13,6,149,7,7,3,['k'],['d'],N,Y,None,N,40,39,24,,,,F,18,
13,7,150,4,4,4,['k'],['d'],N,,,,,,,,,,F,18,
13,8,151,5,5,4,['d'],['d'],Y,,,,,,,,,,F,18,
13,9,152,9,9,4,['k'],['k'],Y,Y,None,N,,,,,,,F,18,
13,10,153,0,0,4,['k'],['k'],Y,Y,['space'],Y,,,,,,,F,18,
14,0,154,7,7,4,['k'],['k'],Y,N,None,Y,,,,,,,F,18,
14,1,155,1,1,4,['k'],['k'],Y,N,None,Y,,,,,,,F,18,
14,2,156,10,10,4,['k'],['k'],Y,Y,['space'],Y,,,,,,,F,18,
14,3,157,2,2,4,['k'],['k'],Y,Y,['space'],Y,,,,,,,F,18,
14,4,158,7,7,4,['k'],['k'],Y,Y,['space'],Y,,,,,,,F,18,
14,5,159,10,10,4,['d'],['d'],Y,Y,['space'],Y,,,,,,,F,18,
14,6,160,5,5,4,['d'],['d'],Y,Y,['space'],Y,,,,,,,F,18,
14,7,161,3,3,4,['k'],['d'],N,N,None,Y,,,,,,,F,18,
14,8,162,10,10,4,['k'],['k'],Y,N,None,Y,,,,,,,F,18,
14,9,163,9,9,4,['d'],['d'],Y,Y,['space'],Y,,,,,,,F,18,
14,10,164,8,8,4,['k'],['k'],Y,N,None,Y,,,,,,,F,18,
15,0,165,2,2,4,['k'],['k'],Y,N,None,Y,,,,,,,F,18,
15,1,166,5,5,4,['d'],['d'],Y,N,None,Y,,,,,,,F,18,
15,2,167,0,0,4,['k'],['k'],Y,N,None,Y,,,,,,,F,18,
15,3,168,0,0,4,['d'],['d'],Y,N,['space'],N,,,,,,,F,18,
15,4,169,6,6,4,['d'],['d'],Y,N,None,Y,,,,,,,F,18,
15,5,170,9,9,4,['k'],['d'],N,Y,['space'],Y,,,,,,,F,18,
15,6,171,5,5,4,['d'],['d'],Y,N,None,Y,,,,,,,F,18,
15,7,172,9,9,4,['k'],['k'],Y,Y,['space'],Y,,,,,,,F,18,
15,8,173,9,9,4,['k'],['k'],Y,N,None,Y,,,,,,,F,18,
15,9,174,0,0,4,['k'],['k'],Y,N,['space'],N,,,,,,,F,18,
15,10,175,1,1,4,['k'],['k'],Y,Y,['space'],Y,,,,,,,F,18,
16,0,176,6,6,4,['k'],['d'],N,Y,['space'],Y,,,,,,,F,18,
16,1,177,7,7,4,['d'],['d'],Y,Y,['space'],Y,,,,,,,F,18,
16,2,178,1,1,4,['k'],['d'],N,N,None,Y,,,,,,,F,18,
16,3,179,10,10,4,['d'],['d'],Y,Y,['space'],Y,,,,,,,F,18,
16,4,180,2,2,4,['d'],['d'],Y,N,None,Y,,,,,,,F,18,
16,5,181,0,0,4,['k'],['d'],N,N,None,Y,,,,,,,F,18,
16,6,182,3,3,4,['k'],['k'],Y,N,None,Y,,,,,,,F,18,
16,7,183,3,3,4,['k'],['k'],Y,N,None,Y,,,,,,,F,18,
16,8,184,5,5,4,['k'],['d'],N,Y,['k'],N,,,,,,,F,18,
16,9,185,3,3,4,['d'],['k'],N,N,None,Y,,,,,,,F,18,
16,10,186,9,9,4,['d'],['k'],N,N,None,Y,,,,,,,F,18,
17,0,187,7,7,4,['k'],['d'],N,N,None,Y,,,,,,,F,18,
17,1,188,5,5,4,['d'],['d'],Y,Y,['d'],N,,,,,,,F,18,
17,2,189,2,2,4,['k'],['k'],Y,Y,None,N,,,,,,,F,18,
17,3,190,2,2,4,['k'],['k'],Y,N,None,Y,,,,,,,F,18,
17,4,191,4,4,4,['k'],['k'],Y,Y,None,N,,,,,,,F,18,
17,5,192,3,3,4,['k'],['k'],Y,Y,['space'],Y,,,,,,,F,18,
17,6,193,0,0,4,['k'],['k'],Y,Y,None,N,,,,,,,F,18,
17,7,194,9,9,4,['d'],['d'],Y,N,None,Y,,,,,,,F,18,
17,8,195,4,4,4,['k'],['k'],Y,N,None,Y,,,,,,,F,18,
17,9,196,9,9,4,['k'],['k'],Y,N,None,Y,,,,,,,F,18,
17,10,197,4,4,4,['d'],['d'],Y,Y,['space'],Y,,,,,,,F,18,
18,0,198,4,4,4,['k'],['k'],Y,Y,None,N,,,,,,,F,18,
18,1,199,1,1,4,['k'],['d'],N,N,None,Y,39,39,22,,,,F,18,
18,2,200,6,6,5,['d'],['d'],Y,,,,,,,,,,F,18,
18,3,201,5,5,5,['k'],['k'],Y,,,,,,,,,,F,18,
18,4,202,8,8,5,['d'],['d'],Y,N,['space'],N,,,,,,,F,18,
18,5,203,8,8,5,['k'],['k'],Y,N,None,Y,,,,,,,F,18,
18,6,204,5,5,5,['k'],['k'],Y,N,None,Y,,,,,,,F,18,
18,7,205,3,3,5,['k'],['k'],Y,Y,['space'],Y,,,,,,,F,18,
18,8,206,4,4,5,['d'],['d'],Y,Y,['space'],Y,,,,,,,F,18,
18,9,207,8,8,5,['k'],['k'],Y,Y,['space'],Y,,,,,,,F,18,
18,10,208,7,7,5,['d'],['d'],Y,N,None,Y,,,,,,,F,18,
19,0,209,0,0,5,['k'],['k'],Y,N,None,Y,,,,,,,F,18,
19,1,210,8,8,5,['d'],['d'],Y,N,None,Y,,,,,,,F,18,
19,2,211,4,4,5,['k'],['k'],Y,Y,None,N,,,,,,,F,18,
19,3,212,9,9,5,['k'],['k'],Y,N,['d'],N,,,,,,,F,18,
19,4,213,2,2,5,['k'],['k'],Y,Y,['space'],Y,,,,,,,F,18,
19,5,214,10,10,5,['k'],['k'],Y,Y,['space'],Y,,,,,,,F,18,
19,6,215,4,4,5,['d'],['d'],Y,N,None,Y,,,,,,,F,18,
19,7,216,4,4,5,['d'],['d'],Y,Y,['space'],Y,,,,,,,F,18,
19,8,217,4,4,5,['k'],['d'],N,N,['space'],N,,,,,,,F,18,
19,9,218,10,10,5,['d'],['d'],Y,Y,['space'],Y,,,,,,,F,18,
19,10,219,10,10,5,['k'],['d'],N,N,None,Y,,,,,,,F,18,
20,0,220,8,8,5,['d'],['d'],Y,N,None,Y,,,,,,,F,18,
20,1,221,7,7,5,['k'],['k'],Y,N,None,Y,,,,,,,F,18,
20,2,222,3,3,5,['k'],['k'],Y,N,None,Y,,,,,,,F,18,
20,3,223,6,6,5,['k'],['k'],Y,N,None,Y,,,,,,,F,18,
20,4,224,0,0,5,['d'],['d'],Y,Y,['space'],Y,,,,,,,F,18,
20,5,225,2,2,5,['k'],['k'],Y,N,None,Y,,,,,,,F,18,
20,6,226,10,10,5,['d'],['d'],Y,N,['space'],N,,,,,,,F,18,
20,7,227,4,4,5,['k'],['k'],Y,Y,None,N,,,,,,,F,18,
20,8,228,2,2,5,['k'],['d'],N,Y,['space'],Y,,,,,,,F,18,
20,9,229,7,7,5,['d'],['d'],Y,Y,['space'],Y,,,,,,,F,18,
20,10,230,2,2,5,['k'],['k'],Y,Y,['d'],N,,,,,,,F,18,
21,0,231,8,8,5,['d'],['k'],N,Y,None,N,,,,,,,F,18,
21,1,232,5,5,5,['k'],['d'],N,Y,['space'],Y,,,,,,,F,18,
21,2,233,8,8,5,['k'],['k'],Y,N,['space'],N,,,,,,,F,18,
21,3,234,1,1,5,['d'],['d'],Y,Y,['space'],Y,,,,,,,F,18,
21,4,235,0,0,5,['d'],['d'],Y,Y,None,N,,,,,,,F,18,
21,5,236,9,9,5,['d'],['d'],Y,N,None,Y,,,,,,,F,18,
21,6,237,1,1,5,['d'],['d'],Y,N,None,Y,,,,,,,F,18,
21,7,238,0,0,5,['k'],['k'],Y,Y,['k'],N,,,,,,,F,18,
21,8,239,4,4,5,['d'],['d'],Y,N,None,Y,,,,,,,F,18,
21,9,240,10,10,5,['k'],['k'],Y,N,['space'],N,,,,,,,F,18,
21,10,241,9,9,5,['k'],['k'],Y,Y,None,N,,,,,,,F,18,
22,0,242,9,9,5,['d'],['k'],N,Y,['space'],Y,,,,,,,F,18,
22,1,243,3,3,5,['k'],['d'],N,Y,['space'],Y,,,,,,,F,18,
22,2,244,4,4,5,['k'],['k'],Y,N,['space'],N,,,,,,,F,18,
22,3,245,1,1,5,['k'],['k'],Y,N,None,Y,,,,,,,F,18,
22,4,246,3,3,5,['k'],['k'],Y,Y,None,N,,,,,,,F,18,
22,5,247,1,1,5,['d'],['d'],Y,Y,['space'],Y,,,,,,,F,18,
22,6,248,9,9,5,['d'],['d'],Y,Y,['space'],Y,,,,,,,F,18,
22,7,249,1,1,5,['d'],['d'],Y,N,None,Y,43,33,24,,,,F,18,
22,8,250,4,4,6,['k'],['k'],Y,,,,,,,,,,F,18,
22,9,251,6,6,6,['k'],['k'],Y,,,,,,,,,,F,18,
22,10,252,4,4,6,['d'],['d'],Y,N,None,Y,,,,,,,F,18,
23,0,253,0,0,6,['d'],['d'],Y,Y,['space'],Y,,,,,,,F,18,
23,1,254,5,5,6,['k'],['k'],Y,N,None,Y,,,,,,,F,18,
23,2,255,5,5,6,['k'],['d'],N,Y,None,N,,,,,,,F,18,
23,3,256,2,2,6,['d'],['d'],Y,Y,['space'],Y,,,,,,,F,18,
23,4,257,0,0,6,['d'],['d'],Y,N,None,Y,,,,,,,F,18,
23,5,258,0,0,6,['d'],['d'],Y,Y,['space'],Y,,,,,,,F,18,
23,6,259,2,2,6,['k'],['k'],Y,Y,['space'],Y,,,,,,,F,18,
23,7,260,10,10,6,['d'],['d'],Y,Y,['space'],Y,,,,,,,F,18,
23,8,261,4,4,6,['k'],['k'],Y,N,None,Y,,,,,,,F,18,
23,9,262,6,6,6,['k'],['d'],N,N,None,Y,,,,,,,F,18,
23,10,263,7,7,6,['k'],['k'],Y,N,None,Y,,,,,,,F,18,
24,0,264,0,0,6,['k'],['k'],Y,Y,['space'],Y,,,,,,,F,18,
24,1,265,9,9,6,['k'],['k'],Y,N,None,Y,,,,,,,F,18,
24,2,266,10,10,6,['k'],['k'],Y,N,None,Y,,,,,,,F,18,
24,3,267,5,5,6,['k'],['d'],N,N,None,Y,,,,,,,F,18,
24,4,268,7,7,6,['k'],['d'],N,Y,['space'],Y,,,,,,,F,18,
24,5,269,7,7,6,['k'],['k'],Y,Y,['space'],Y,,,,,,,F,18,
24,6,270,8,8,6,['d'],['d'],Y,N,None,Y,,,,,,,F,18,
24,7,271,3,3,6,['k'],['k'],Y,Y,['space'],Y,,,,,,,F,18,
24,8,272,9,9,6,['d'],['d'],Y,N,['space'],N,,,,,,,F,18,
24,9,273,10,10,6,['d'],['k'],N,N,None,Y,,,,,,,F,18,
24,10,274,6,6,6,['d'],['d'],Y,Y,['space'],Y,,,,,,,F,18,
25,0,275,6,6,6,['k'],['d'],N,Y,None,N,,,,,,,F,18,
25,1,276,0,0,6,['k'],['k'],Y,N,None,Y,,,,,,,F,18,
25,2,277,3,3,6,['d'],['d'],Y,N,None,Y,,,,,,,F,18,
25,3,278,0,0,6,['k'],['k'],Y,N,None,Y,,,,,,,F,18,
25,4,279,7,7,6,['k'],['k'],Y,Y,['d'],N,,,,,,,F,18,
25,5,280,5,5,6,['d'],['d'],Y,N,None,Y,,,,,,,F,18,
25,6,281,7,7,6,['d'],['d'],Y,N,None,Y,,,,,,,F,18,
25,7,282,7,7,6,['k'],['k'],Y,N,None,Y,,,,,,,F,18,
25,8,283,2,2,6,['d'],['d'],Y,N,None,Y,,,,,,,F,18,
25,9,284,3,3,6,None,,Timed out,Y,None,N,,,,,,,F,18,
25,10,285,3,3,6,['d'],['d'],Y,Y,None,N,,,,,,,F,18,
26,0,286,2,2,6,['k'],['d'],N,Y,None,N,,,,,,,F,18,
26,1,287,4,4,6,['k'],['k'],Y,Y,['d'],N,,,,,,,F,18,
26,2,288,6,6,6,['k'],['k'],Y,N,None,Y,,,,,,,F,18,
26,3,289,7,7,6,['d'],['d'],Y,Y,None,N,,,,,,,F,18,
26,4,290,1,1,6,['d'],['d'],Y,N,None,Y,,,,,,,F,18,
26,5,291,9,9,6,['d'],['d'],Y,Y,None,N,,,,,,,F,18,
26,6,292,3,3,6,['k'],['k'],Y,N,None,Y,,,,,,,F,18,
26,7,293,3,3,6,['d'],['d'],Y,Y,None,N,,,,,,,F,18,
26,8,294,3,3,6,['k'],['k'],Y,Y,None,N,,,,,,,F,18,
26,9,295,3,3,6,['k'],['k'],Y,N,None,Y,,,,,,,F,18,
26,10,296,0,0,6,['k'],['k'],Y,N,None,Y,,,,,,,F,18,
27,0,297,2,2,6,['k'],['k'],Y,Y,None,N,,,,,,,F,18,
27,1,298,8,8,6,['k'],['k'],Y,N,None,Y,,,,,,,F,18,
27,2,299,2,2,6,['k'],['k'],Y,N,None,Y,42,35,22,,,,F,18,
27,3,300,10,10,7,['d'],['k'],N,,,,,,,,,,F,18,
27,4,301,1,1,7,['d'],['d'],Y,,,,,,,,,,F,18,
27,5,302,5,5,7,['k'],['k'],Y,N,None,Y,,,,,,,F,18,
27,6,303,1,1,7,['k'],['k'],Y,Y,['space'],Y,,,,,,,F,18,
27,7,304,9,9,7,['d'],['d'],Y,Y,['space'],Y,,,,,,,F,18,
27,8,305,4,4,7,['k'],['k'],Y,Y,['space'],Y,,,,,,,F,18,
27,9,306,0,0,7,['k'],['k'],Y,N,None,Y,,,,,,,F,18,
27,10,307,5,5,7,['d'],['k'],N,N,['space'],N,,,,,,,F,18,
28,0,308,3,3,7,['d'],['d'],Y,N,None,Y,,,,,,,F,18,
28,1,309,1,1,7,['d'],['d'],Y,Y,None,N,,,,,,,F,18,
28,2,310,2,2,7,['k'],['k'],Y,N,None,Y,,,,,,,F,18,
28,3,311,7,7,7,['k'],['k'],Y,N,None,Y,,,,,,,F,18,
28,4,312,1,1,7,['d'],['d'],Y,Y,['space'],Y,,,,,,,F,18,
28,5,313,4,4,7,['d'],['d'],Y,N,None,Y,,,,,,,F,18,
28,6,314,7,7,7,['d'],['d'],Y,N,['space'],N,,,,,,,F,18,
28,7,315,3,3,7,['k'],['k'],Y,Y,['d'],N,,,,,,,F,18,
28,8,316,1,1,7,None,,Timed out,N,['space'],N,,,,,,,F,18,
28,9,317,1,1,7,['d'],['d'],Y,N,['space'],N,,,,,,,F,18,
28,10,318,8,8,7,['d'],['d'],Y,N,None,Y,,,,,,,F,18,
29,0,319,5,5,7,None,,Timed out,N,None,Y,,,,,,,F,18,
29,1,320,4,4,7,['d'],['k'],N,Y,None,N,,,,,,,F,18,
29,2,321,5,5,7,['d'],['d'],Y,Y,None,N,,,,,,,F,18,
29,3,322,5,5,7,['d'],['d'],Y,Y,['space'],Y,,,,,,,F,18,
29,4,323,6,6,7,['d'],['d'],Y,Y,['space'],Y,,,,,,,F,18,
29,5,324,2,2,7,['d'],['d'],Y,Y,['space'],Y,,,,,,,F,18,
29,6,325,2,2,7,['d'],['d'],Y,N,None,Y,,,,,,,F,18,
29,7,326,5,5,7,['k'],['k'],Y,Y,['d'],N,,,,,,,F,18,
29,8,327,9,9,7,['k'],['k'],Y,Y,['space'],Y,,,,,,,F,18,
29,9,328,0,0,7,['d'],['d'],Y,N,None,Y,,,,,,,F,18,
29,10,329,7,7,7,['d'],['d'],Y,N,None,Y,,,,,,,F,18,
30,0,330,1,1,7,['d'],['d'],Y,N,['space'],N,,,,,,,F,18,
30,1,331,8,8,7,['k'],['d'],N,N,None,Y,,,,,,,F,18,
30,2,332,9,9,7,['k'],['d'],N,Y,None,N,,,,,,,F,18,
30,3,333,1,1,7,['d'],['d'],Y,N,None,Y,,,,,,,F,18,
30,4,334,6,6,7,['d'],['k'],N,N,None,Y,,,,,,,F,18,
30,5,335,10,10,7,['k'],['k'],Y,N,None,Y,,,,,,,F,18,
30,6,336,7,7,7,['k'],['k'],Y,Y,None,N,,,,,,,F,18,
30,7,337,2,2,7,['d'],['d'],Y,Y,None,N,,,,,,,F,18,
30,8,338,6,6,7,None,,Timed out,Y,None,N,,,,,,,F,18,
30,9,339,0,0,7,['d'],['d'],Y,N,None,Y,,,,,,,F,18,
30,10,340,3,3,7,['k'],['k'],Y,Y,None,N,,,,,,,F,18,
31,0,341,9,9,7,['k'],['k'],Y,Y,['space'],Y,,,,,,,F,18,
31,1,342,6,6,7,['d'],['d'],Y,Y,['space'],Y,,,,,,,F,18,
31,2,343,8,8,7,['k'],['k'],Y,Y,['space'],Y,,,,,,,F,18,
31,3,344,5,5,7,['k'],['k'],Y,Y,['space'],Y,,,,,,,F,18,
31,4,345,2,2,7,['d'],['d'],Y,Y,['space'],Y,,,,,,,F,18,
31,5,346,10,10,7,['k'],['k'],Y,N,None,Y,,,,,,,F,18,
31,6,347,4,4,7,['k'],['k'],Y,N,None,Y,,,,,,,F,18,
31,7,348,10,10,7,['d'],['d'],Y,Y,None,N,,,,,,,F,18,
31,8,349,3,3,7,['k'],['k'],Y,N,None,Y,41,32,24,,,,F,18,
31,9,350,7,7,8,['d'],['d'],Y,,,,,,,,,,F,18,
31,10,351,5,5,8,['d'],['d'],Y,,,,,,,,,,F,18,
32,0,352,7,7,8,['d'],['d'],Y,Y,['d'],N,,,,,,,F,18,
32,1,353,10,10,8,['d'],['d'],Y,Y,['space'],Y,,,,,,,F,18,
32,2,354,9,9,8,['d'],['d'],Y,N,None,Y,,,,,,,F,18,
32,3,355,8,8,8,['k'],['k'],Y,Y,['space'],Y,,,,,,,F,18,
32,4,356,8,8,8,['d'],['k'],N,Y,None,N,,,,,,,F,18,
32,5,357,7,7,8,['d'],['d'],Y,Y,['space'],Y,,,,,,,F,18,
32,6,358,9,9,8,['d'],['d'],Y,Y,None,N,,,,,,,F,18,
32,7,359,8,8,8,['k'],['k'],Y,N,None,Y,,,,,,,F,18,
32,8,360,9,9,8,['k'],['k'],Y,Y,None,N,,,,,,,F,18,
32,9,361,9,9,8,['k'],['k'],Y,N,['space'],N,,,,,,,F,18,
32,10,362,2,2,8,['k'],['k'],Y,N,None,Y,,,,,,,F,18,
33,0,363,3,3,8,['d'],['d'],Y,Y,['space'],Y,,,,,,,F,18,
33,1,364,8,8,8,['k'],['d'],N,N,None,Y,,,,,,,F,18,
33,2,365,4,4,8,['d'],['d'],Y,Y,['space'],Y,,,,,,,F,18,
33,3,366,10,10,8,['d'],['k'],N,Y,['space'],Y,,,,,,,F,18,
33,4,367,4,4,8,['k'],['k'],Y,N,None,Y,,,,,,,F,18,
33,5,368,2,2,8,['d'],['d'],Y,Y,['space'],Y,,,,,,,F,18,
33,6,369,6,6,8,['d'],['d'],Y,N,None,Y,,,,,,,F,18,
33,7,370,1,1,8,['d'],['k'],N,N,None,Y,,,,,,,F,18,
33,8,371,6,6,8,['k'],['k'],Y,N,None,Y,,,,,,,F,18,
33,9,372,8,8,8,['k'],['k'],Y,N,['space'],N,,,,,,,F,18,
33,10,373,10,10,8,['d'],['d'],Y,Y,['k'],N,,,,,,,F,18,
34,0,374,10,10,8,['k'],['d'],N,N,None,Y,,,,,,,F,18,
34,1,375,8,8,8,['k'],['d'],N,N,['space'],N,,,,,,,F,18,
34,2,376,5,5,8,['d'],['d'],Y,N,['space'],N,,,,,,,F,18,
34,3,377,3,3,8,['k'],['k'],Y,N,None,Y,,,,,,,F,18,
34,4,378,4,4,8,['k'],['k'],Y,Y,['space'],Y,,,,,,,F,18,
34,5,379,0,0,8,['k'],['d'],N,N,None,Y,,,,,,,F,18,
34,6,380,10,10,8,['k'],['d'],N,Y,['s'],N,,,,,,,F,18,
34,7,381,7,7,8,None,,Timed out,N,None,Y,,,,,,,F,18,
34,8,382,6,6,8,['k'],['k'],Y,Y,['space'],Y,,,,,,,F,18,
34,9,383,4,4,8,['k'],['k'],Y,N,None,Y,,,,,,,F,18,
34,10,384,2,2,8,['d'],['d'],Y,Y,['space'],Y,,,,,,,F,18,
35,0,385,6,6,8,['k'],['k'],Y,Y,['space'],Y,,,,,,,F,18,
35,1,386,0,0,8,['d'],['d'],Y,N,None,Y,,,,,,,F,18,
35,2,387,8,8,8,['k'],['k'],Y,Y,None,N,,,,,,,F,18,
35,3,388,0,0,8,['d'],['d'],Y,N,None,Y,,,,,,,F,18,
35,4,389,10,10,8,['k'],['k'],Y,N,None,Y,,,,,,,F,18,
35,5,390,6,6,8,['d'],['d'],Y,Y,['space'],Y,,,,,,,F,18,
35,6,391,10,10,8,['k'],['k'],Y,Y,['space'],Y,,,,,,,F,18,
35,7,392,10,10,8,['d'],['k'],N,Y,['space'],Y,,,,,,,F,18,
35,8,393,6,6,8,None,,Timed out,Y,['d'],N,,,,,,,F,18,
35,9,394,4,4,8,['d'],['d'],Y,Y,['space'],Y,,,,,,,F,18,
35,10,395,1,1,8,None,,Timed out,N,None,Y,,,,,,,F,18,
36,0,396,4,4,8,['k'],['k'],Y,Y,['space'],Y,,,,,,,F,18,
36,1,397,10,10,8,['k'],['k'],Y,Y,None,N,,,,,,,F,18,
36,2,398,6,6,8,['k'],['k'],Y,N,None,Y,,,,,,,F,18,
36,3,399,5,5,8,['d'],['k'],N,N,None,Y,37,35,25,,,,F,18,
36,4,400,7,7,9,['k'],['k'],Y,,,,,,,,,,F,18,
36,5,401,10,10,9,['d'],['d'],Y,,,,,,,,,,F,18,
36,6,402,1,1,9,['d'],['d'],Y,N,None,Y,,,,,,,F,18,
36,7,403,6,6,9,['k'],['k'],Y,Y,None,N,,,,,,,F,18,
36,8,404,2,2,9,['k'],['k'],Y,N,None,Y,,,,,,,F,18,
36,9,405,5,5,9,['d'],['d'],Y,Y,None,N,,,,,,,F,18,
36,10,406,7,7,9,['d'],['d'],Y,N,['k'],N,,,,,,,F,18,
37,0,407,0,0,9,['k'],['k'],Y,N,None,Y,,,,,,,F,18,
37,1,408,1,1,9,['k'],['k'],Y,N,None,Y,,,,,,,F,18,
37,2,409,5,5,9,['d'],['d'],Y,N,None,Y,,,,,,,F,18,
37,3,410,0,0,9,['d'],['k'],N,N,None,Y,,,,,,,F,18,
37,4,411,8,8,9,['d'],['d'],Y,N,['space'],N,,,,,,,F,18,
37,5,412,8,8,9,['d'],['d'],Y,Y,None,N,,,,,,,F,18,
37,6,413,8,8,9,['d'],['d'],Y,N,None,Y,,,,,,,F,18,
37,7,414,4,4,9,['k'],['d'],N,Y,['space'],Y,,,,,,,F,18,
37,8,415,9,9,9,['k'],['k'],Y,Y,['space'],Y,,,,,,,F,18,
37,9,416,8,8,9,['k'],['k'],Y,N,None,Y,,,,,,,F,18,
37,10,417,8,8,9,['d'],['d'],Y,N,['space'],N,,,,,,,F,18,
38,0,418,3,3,9,['k'],['k'],Y,Y,['space'],Y,,,,,,,F,18,
38,1,419,4,4,9,['d'],['k'],N,N,None,Y,,,,,,,F,18,
38,2,420,1,1,9,['k'],['k'],Y,N,['k'],N,,,,,,,F,18,
38,3,421,5,5,9,['k'],['k'],Y,Y,None,N,,,,,,,F,18,
38,4,422,10,10,9,['d'],['d'],Y,Y,['space'],Y,,,,,,,F,18,
38,5,423,0,0,9,['d'],['d'],Y,Y,['space'],Y,,,,,,,F,18,
38,6,424,3,3,9,['d'],['d'],Y,Y,['space'],Y,,,,,,,F,18,
38,7,425,5,5,9,['k'],['d'],N,Y,['k'],N,,,,,,,F,18,
38,8,426,0,0,9,['k'],['d'],N,Y,['space'],Y,,,,,,,F,18,
38,9,427,5,5,9,['k'],['k'],Y,Y,['space'],Y,,,,,,,F,18,
38,10,428,10,10,9,['d'],['d'],Y,Y,['space'],Y,,,,,,,F,18,
39,0,429,1,1,9,['k'],['k'],Y,Y,None,N,,,,,,,F,18,
39,1,430,0,0,9,['d'],['d'],Y,Y,['space'],Y,,,,,,,F,18,
39,2,431,10,10,9,['d'],['d'],Y,Y,None,N,,,,,,,F,18,
39,3,432,2,2,9,['k'],['k'],Y,N,None,Y,,,,,,,F,18,
39,4,433,3,3,9,['k'],['k'],Y,Y,['space'],Y,,,,,,,F,18,
39,5,434,3,3,9,['k'],['d'],N,N,None,Y,,,,,,,F,18,
39,6,435,0,0,9,['k'],['k'],Y,Y,['space'],Y,,,,,,,F,18,
39,7,436,2,2,9,None,,Timed out,N,None,Y,,,,,,,F,18,
39,8,437,5,5,9,['k'],['k'],Y,Y,['space'],Y,,,,,,,F,18,
39,9,438,1,1,9,['d'],['d'],Y,N,None,Y,,,,,,,F,18,
39,10,439,0,0,9,['k'],['k'],Y,N,None,Y,,,,,,,F,18,
40,0,440,6,6,9,['k'],['k'],Y,Y,['space'],Y,,,,,,,F,18,
40,1,441,10,10,9,['d'],['d'],Y,N,None,Y,,,,,,,F,18,
40,2,442,1,1,9,['d'],['d'],Y,Y,None,N,,,,,,,F,18,
40,3,443,1,1,9,['k'],['k'],Y,Y,['space'],Y,,,,,,,F,18,
40,4,444,9,9,9,['k'],['d'],N,Y,['space'],Y,,,,,,,F,18,
40,5,445,0,0,9,['d'],['d'],Y,N,None,Y,,,,,,,F,18,
40,6,446,6,6,9,['k'],['k'],Y,Y,['space'],Y,,,,,,,F,18,
40,7,447,10,10,9,['k'],['k'],Y,N,None,Y,,,,,,,F,18,
40,8,448,1,1,9,['k'],['k'],Y,N,None,Y,,,,,,,F,18,
40,9,449,8,8,9,['d'],['k'],N,N,None,Y,41,36,25,,,,F,18,
40,10,450,6,6,10,['d'],['d'],Y,,,,,,,,,,F,18,
41,0,451,5,5,10,['k'],['k'],Y,,,,,,,,,,F,18,
41,1,452,7,7,10,['d'],['d'],Y,N,None,Y,,,,,,,F,18,
41,2,453,6,6,10,['d'],['d'],Y,Y,['space'],Y,,,,,,,F,18,
41,3,454,3,3,10,['k'],['k'],Y,Y,['space'],Y,,,,,,,F,18,
41,4,455,0,0,10,['d'],['d'],Y,Y,['space'],Y,,,,,,,F,18,
41,5,456,6,6,10,['d'],['d'],Y,N,None,Y,,,,,,,F,18,
41,6,457,0,0,10,['k'],['k'],Y,N,['d'],N,,,,,,,F,18,
41,7,458,7,7,10,['d'],['d'],Y,Y,['space'],Y,,,,,,,F,18,
41,8,459,9,9,10,['d'],['d'],Y,Y,None,N,,,,,,,F,18,
41,9,460,7,7,10,['k'],['k'],Y,N,None,Y,,,,,,,F,18,
41,10,461,7,7,10,['k'],['k'],Y,Y,['d'],N,,,,,,,F,18,
42,0,462,9,9,10,['k'],['d'],N,Y,['space'],Y,,,,,,,F,18,
42,1,463,0,0,10,['k'],['k'],Y,Y,None,N,,,,,,,F,18,
42,2,464,3,3,10,['k'],['k'],Y,Y,['space'],Y,,,,,,,F,18,
42,3,465,9,9,10,['d'],['k'],N,N,None,Y,,,,,,,F,18,
42,4,466,3,3,10,['k'],['k'],Y,Y,['k'],N,,,,,,,F,18,
42,5,467,9,9,10,['k'],['k'],Y,N,None,Y,,,,,,,F,18,
42,6,468,6,6,10,['k'],['k'],Y,Y,['space'],Y,,,,,,,F,18,
42,7,469,10,10,10,['k'],['k'],Y,N,['space'],N,,,,,,,F,18,
42,8,470,0,0,10,['d'],['d'],Y,Y,None,N,,,,,,,F,18,
42,9,471,6,6,10,['d'],['d'],Y,Y,['space'],Y,,,,,,,F,18,
42,10,472,8,8,10,['d'],['d'],Y,Y,['space'],Y,,,,,,,F,18,
43,0,473,5,5,10,['k'],['k'],Y,Y,['space'],Y,,,,,,,F,18,
43,1,474,1,1,10,['k'],['k'],Y,N,None,Y,,,,,,,F,18,
43,2,475,4,4,10,['d'],['d'],Y,Y,['space'],Y,,,,,,,F,18,
43,3,476,10,10,10,['k'],['k'],Y,Y,['space'],Y,,,,,,,F,18,
43,4,477,2,2,10,['d'],['d'],Y,N,None,Y,,,,,,,F,18,
43,5,478,2,2,10,['k'],['k'],Y,Y,['space'],Y,,,,,,,F,18,
43,6,479,9,9,10,['k'],['k'],Y,N,None,Y,,,,,,,F,18,
43,7,480,5,5,10,['k'],['k'],Y,Y,None,N,,,,,,,F,18,
43,8,481,8,8,10,['d'],['d'],Y,Y,['d'],N,,,,,,,F,18,
43,9,482,5,5,10,['d'],['d'],Y,N,None,Y,,,,,,,F,18,
43,10,483,9,9,10,['d'],['d'],Y,N,None,Y,,,,,,,F,18,
44,0,484,4,4,10,['d'],['d'],Y,N,None,Y,,,,,,,F,18,
44,1,485,2,2,10,['k'],['k'],Y,Y,None,N,,,,,,,F,18,
44,2,486,1,1,10,['k'],['d'],N,Y,['space'],Y,,,,,,,F,18,
44,3,487,1,1,10,['k'],['d'],N,N,None,Y,,,,,,,F,18,
44,4,488,0,0,10,['d'],['d'],Y,N,None,Y,,,,,,,F,18,
44,5,489,5,5,10,['k'],['k'],Y,Y,['space'],Y,,,,,,,F,18,
44,6,490,7,7,10,['k'],['k'],Y,Y,None,N,,,,,,,F,18,
44,7,491,3,3,10,['d'],['d'],Y,N,None,Y,,,,,,,F,18,
44,8,492,3,3,10,['d'],['k'],N,Y,['space'],Y,,,,,,,F,18,
44,9,493,3,3,10,['d'],['d'],Y,N,['space'],N,,,,,,,F,18,
44,10,494,7,7,10,None,,Timed out,N,None,Y,,,,,,,F,18,
45,0,495,7,7,10,['d'],['d'],Y,N,['d'],N,,,,,,,F,18,
45,1,496,3,3,10,['k'],['d'],N,N,None,Y,,,,,,,F,18,
45,2,497,10,10,10,['k'],['k'],Y,N,None,Y,,,,,,,F,18,
45,3,498,9,9,10,None,,Timed out,N,None,Y,,,,,,,F,18,
45,4,499,1,1,10,['k'],['d'],N,N,['space'],N,41,34,25,,,,F,18,
45,5,500,8,8,11,['d'],['k'],Y,,,,,,,Y,Y,Y,F,18,
45,6,501,7,7,11,['d'],['k'],Y,,,,,,,,Y,Y,F,18,
45,7,502,3,3,11,['d'],['k'],Y,N,None,Y,,,,,Y,Y,F,18,
45,8,503,3,3,11,['d'],['d'],N,N,['space'],N,,,,,Y,Y,F,18,
45,9,504,3,3,11,['d'],['d'],N,N,None,Y,,,,,Y,Y,F,18,
45,10,505,1,1,11,['k'],['d'],Y,Y,['space'],Y,,,,,Y,Y,F,18,
46,0,506,4,4,11,['d'],['d'],N,Y,['space'],Y,,,,,Y,Y,F,18,
46,1,507,0,0,11,['k'],['k'],N,N,None,Y,,,,,Y,Y,F,18,
46,2,508,7,7,11,['k'],['k'],N,Y,['space'],Y,,,,,Y,Y,F,18,
46,3,509,4,4,11,['k'],['d'],Y,N,None,Y,,,,,Y,Y,F,18,
46,4,510,0,0,11,['k'],['k'],N,Y,None,N,,,,,Y,Y,F,18,
46,5,511,8,8,11,['k'],['d'],Y,N,None,Y,,,,,Y,Y,F,18,
46,6,512,5,5,11,['k'],['d'],Y,Y,['k'],N,,,,,Y,Y,F,18,
46,7,513,2,2,11,['k'],['d'],Y,Y,None,N,,,,,Y,Y,F,18,
46,8,514,8,8,11,['d'],['k'],Y,N,None,Y,,,,,Y,Y,F,18,
46,9,515,6,6,11,['k'],['d'],Y,N,None,Y,,,,,Y,Y,F,18,
46,10,516,1,1,11,None,,Timed out,N,None,Y,,,,,Y,Y,F,18,
47,0,517,8,8,11,['k'],['d'],Y,Y,['space'],Y,,,,,Y,Y,F,18,
47,1,518,1,1,11,['k'],['d'],Y,N,None,Y,,,,,Y,Y,F,18,
47,2,519,8,8,11,['k'],['d'],Y,N,None,Y,,,,,Y,Y,F,18,
47,3,520,4,4,11,['d'],['k'],Y,N,None,Y,,,,,Y,Y,F,18,
47,4,521,10,10,11,['k'],['d'],Y,N,None,Y,,,,,Y,Y,F,18,
47,5,522,9,9,11,['d'],['k'],Y,N,None,Y,,,,,Y,Y,F,18,
47,6,523,0,0,11,['k'],['d'],Y,Y,['space'],Y,,,,,Y,Y,F,18,
47,7,524,1,1,11,['k'],['d'],Y,Y,['space'],Y,,,,,Y,Y,F,18,
47,8,525,9,9,11,['d'],['d'],N,Y,['space'],Y,,,,,Y,Y,F,18,
47,9,526,5,5,11,['d'],['k'],Y,Y,['space'],Y,,,,,Y,Y,F,18,
47,10,527,3,3,11,['d'],['d'],N,N,None,Y,,,,,Y,Y,F,18,
48,0,528,7,7,11,['k'],['k'],N,Y,['space'],Y,,,,,Y,Y,F,18,
48,1,529,7,7,11,['k'],['d'],Y,Y,['space'],Y,,,,,Y,Y,F,18,
48,2,530,0,0,11,None,,Timed out,N,None,Y,,,,,Y,Y,F,18,
48,3,531,6,6,11,['k'],['k'],N,N,['k'],N,,,,,Y,Y,F,18,
48,4,532,6,6,11,['d'],['k'],Y,N,['space'],N,,,,,Y,Y,F,18,
48,5,533,1,1,11,['d'],['k'],Y,Y,['space'],Y,,,,,Y,Y,F,18,
48,6,534,5,5,11,['k'],['d'],Y,Y,['space'],Y,,,,,Y,Y,F,18,
48,7,535,5,5,11,['d'],['k'],Y,Y,['space'],Y,,,,,Y,Y,F,18,
48,8,536,0,0,11,['d'],['d'],N,N,None,Y,,,,,Y,Y,F,18,
48,9,537,6,6,11,['k'],['d'],Y,N,None,Y,,,,,Y,Y,F,18,
48,10,538,1,1,11,['k'],['d'],Y,N,['space'],N,,,,,Y,Y,F,18,
49,0,539,9,9,11,['d'],['k'],Y,N,None,Y,,,,,Y,Y,F,18,
49,1,540,9,9,11,['d'],['d'],N,Y,['space'],Y,,,,,Y,Y,F,18,
49,2,541,5,5,11,['k'],['d'],Y,Y,None,N,,,,,Y,Y,F,18,
49,3,542,8,8,11,['k'],['d'],Y,N,None,Y,,,,,Y,Y,F,18,
49,4,543,5,5,11,['d'],['k'],Y,Y,['space'],Y,,,,,Y,Y,F,18,
49,5,544,8,8,11,['k'],['d'],Y,N,None,Y,,,,,Y,Y,F,18,
49,6,545,10,10,11,['d'],['k'],Y,Y,['space'],Y,,,,,Y,Y,F,18,
49,7,546,3,3,11,['k'],['d'],Y,N,None,Y,,,,,Y,Y,F,18,
49,8,547,7,7,11,['k'],['k'],N,Y,['space'],Y,,,,,Y,Y,F,18,
49,9,548,4,4,11,['k'],['d'],Y,N,None,Y,,,,,Y,Y,F,18,
49,10,549,0,0,11,['d'],['d'],N,N,None,Y,34,40,21,,Y,Y,F,18,
50,0,550,2,2,12,None,,Timed out,,,,,,,,Y,Y,F,18,
50,1,551,6,6,12,['k'],['d'],Y,,,,,,,,Y,Y,F,18,
50,2,552,4,4,12,['k'],['d'],Y,Y,['space'],Y,,,,,Y,Y,F,18,
50,3,553,6,6,12,['k'],['k'],N,Y,['space'],Y,,,,,Y,Y,F,18,
50,4,554,1,1,12,['d'],['k'],Y,N,None,Y,,,,,Y,Y,F,18,
50,5,555,8,8,12,['d'],['k'],Y,Y,['space'],Y,,,,,Y,Y,F,18,
50,6,556,6,6,12,['d'],['d'],N,Y,['space'],Y,,,,,Y,Y,F,18,
50,7,557,4,4,12,['d'],['k'],Y,N,None,Y,,,,,Y,Y,F,18,
50,8,558,1,1,12,['k'],['d'],Y,N,None,Y,,,,,Y,Y,F,18,
50,9,559,6,6,12,['k'],['d'],Y,N,None,Y,,,,,Y,Y,F,18,
50,10,560,10,10,12,['d'],['k'],Y,Y,['space'],Y,,,,,Y,Y,F,18,
51,0,561,7,7,12,['d'],['k'],Y,N,None,Y,,,,,Y,Y,F,18,
51,1,562,3,3,12,['k'],['d'],Y,N,None,Y,,,,,Y,Y,F,18,
51,2,563,5,5,12,['d'],['k'],Y,N,None,Y,,,,,Y,Y,F,18,
51,3,564,2,2,12,None,,Timed out,N,None,Y,,,,,Y,Y,F,18,
51,4,565,4,4,12,['d'],['k'],Y,N,None,Y,,,,,Y,Y,F,18,
51,5,566,3,3,12,['d'],['k'],Y,N,['space'],N,,,,,Y,Y,F,18,
51,6,567,5,5,12,['k'],['d'],Y,Y,['d'],N,,,,,Y,Y,F,18,
51,7,568,5,5,12,['k'],['k'],N,N,None,Y,,,,,Y,Y,F,18,
51,8,569,4,4,12,['d'],['k'],Y,Y,None,N,,,,,Y,Y,F,18,
51,9,570,2,2,12,['d'],['k'],Y,Y,['space'],Y,,,,,Y,Y,F,18,
51,10,571,1,1,12,['d'],['k'],Y,Y,['space'],Y,,,,,Y,Y,F,18,
52,0,572,10,10,12,['d'],['k'],Y,Y,None,N,,,,,Y,Y,F,18,
52,1,573,8,8,12,['d'],['k'],Y,N,['k'],N,,,,,Y,Y,F,18,
52,2,574,3,3,12,['k'],['d'],Y,N,None,Y,,,,,Y,Y,F,18,
52,3,575,7,7,12,['k'],['d'],Y,Y,['space'],Y,,,,,Y,Y,F,18,
52,4,576,8,8,12,['k'],['d'],Y,Y,['space'],Y,,,,,Y,Y,F,18,
52,5,577,9,9,12,['k'],['d'],Y,Y,['space'],Y,,,,,Y,Y,F,18,
52,6,578,7,7,12,['d'],['d'],N,N,None,Y,,,,,Y,Y,F,18,
52,7,579,4,4,12,['k'],['d'],Y,N,None,Y,,,,,Y,Y,F,18,
52,8,580,1,1,12,['k'],['d'],Y,N,None,Y,,,,,Y,Y,F,18,
52,9,581,6,6,12,['k'],['d'],Y,N,['space'],N,,,,,Y,Y,F,18,
52,10,582,5,5,12,['k'],['k'],N,N,None,Y,,,,,Y,Y,F,18,
53,0,583,6,6,12,['d'],['d'],N,N,None,Y,,,,,Y,Y,F,18,
53,1,584,8,8,12,['d'],['k'],Y,N,['space'],N,,,,,Y,Y,F,18,
53,2,585,8,8,12,['k'],['d'],Y,Y,None,N,,,,,Y,Y,F,18,
53,3,586,10,10,12,['k'],['d'],Y,N,None,Y,,,,,Y,Y,F,18,
53,4,587,1,1,12,['k'],['d'],Y,N,None,Y,,,,,Y,Y,F,18,
53,5,588,10,10,12,['k'],['d'],Y,N,None,Y,,,,,Y,Y,F,18,
53,6,589,8,8,12,['k'],['d'],Y,Y,['space'],Y,,,,,Y,Y,F,18,
53,7,590,5,5,12,['d'],['k'],Y,Y,['space'],Y,,,,,Y,Y,F,18,
53,8,591,2,2,12,None,,Timed out,Y,None,N,,,,,Y,Y,F,18,
53,9,592,2,2,12,['k'],['d'],Y,Y,['space'],Y,,,,,Y,Y,F,18,
53,10,593,4,4,12,['k'],['d'],Y,N,None,Y,,,,,Y,Y,F,18,
54,0,594,9,9,12,['d'],['k'],Y,N,None,Y,,,,,Y,Y,F,18,
54,1,595,5,5,12,['d'],['k'],Y,Y,None,N,,,,,Y,Y,F,18,
54,2,596,9,9,12,['d'],['k'],Y,N,None,Y,,,,,Y,Y,F,18,
54,3,597,10,10,12,['k'],['k'],N,N,['space'],N,,,,,Y,Y,F,18,
54,4,598,5,5,12,['k'],['d'],Y,N,None,Y,,,,,Y,Y,F,18,
54,5,599,10,10,12,['d'],['k'],Y,N,None,Y,40,37,19,,Y,Y,F,18,
