.thisRepN,.thisTrialN,.thisN,.thisIndex,.thisTrial,Block Number,Key pressed,Category,Correct?,Int Match?,Int Response,Int Correct?,Line Accuracy,Interference Accuracy,Matching Interferences,New instruction shown?,Buttons switched?,Fast?,gender,age,
0,0,0,10,10,1,['k'],['d'],N,,,,,,,,,,f,23,
0,1,1,0,0,1,['d'],['d'],Y,,,,,,,,,,f,23,
0,2,2,1,1,1,['k'],['d'],N,N,None,Y,,,,,,,f,23,
0,3,3,0,0,1,['d'],['k'],N,N,None,Y,,,,,,,f,23,
0,4,4,6,6,1,['k'],['k'],Y,Y,None,N,,,,,,,f,23,
0,5,5,0,0,1,['d'],['k'],N,N,['d'],N,,,,,,,f,23,
0,6,6,1,1,1,['d'],['d'],Y,Y,['space'],Y,,,,,,,f,23,
0,7,7,9,9,1,['k'],['d'],N,Y,['space'],Y,,,,,,,f,23,
0,8,8,0,0,1,['k'],['d'],N,Y,['space'],Y,,,,,,,f,23,
0,9,9,10,10,1,['d'],['k'],N,N,None,Y,,,,,,,f,23,
0,10,10,3,3,1,['k'],['d'],N,Y,['space'],Y,,,,,,,f,23,
1,0,11,6,6,1,['d'],['d'],Y,N,None,Y,,,,,,,f,23,
1,1,12,4,4,1,['d'],['k'],N,Y,None,N,,,,,,,f,23,
1,2,13,1,1,1,['d'],['d'],Y,N,None,Y,,,,,,,f,23,
1,3,14,9,9,1,['d'],['k'],N,N,None,Y,,,,,,,f,23,
1,4,15,9,9,1,['k'],['k'],Y,N,None,Y,,,,,,,f,23,
1,5,16,9,9,1,['d'],['d'],Y,Y,None,N,,,,,,,f,23,
1,6,17,4,4,1,['d'],['d'],Y,N,None,Y,,,,,,,f,23,
1,7,18,0,0,1,['k'],['k'],Y,N,['space'],N,,,,,,,f,23,
1,8,19,3,3,1,['d'],['d'],Y,Y,['space'],Y,,,,,,,f,23,
1,9,20,3,3,1,['k'],['k'],Y,N,None,Y,,,,,,,f,23,
1,10,21,4,4,1,['d'],['d'],Y,Y,['space'],Y,,,,,,,f,23,
2,0,22,2,2,1,['k'],['k'],Y,N,None,Y,,,,,,,f,23,
2,1,23,0,0,1,['d'],['d'],Y,N,None,Y,,,,,,,f,23,
2,2,24,7,7,1,['k'],['d'],N,N,None,Y,,,,,,,f,23,
2,3,25,8,8,1,['k'],['k'],Y,Y,['space'],Y,,,,,,,f,23,
2,4,26,0,0,1,['d'],['d'],Y,Y,['space'],Y,,,,,,,f,23,
2,5,27,2,2,1,['k'],['k'],Y,N,None,Y,,,,,,,f,23,
2,6,28,7,7,1,['d'],['d'],Y,N,None,Y,,,,,,,f,23,
2,7,29,9,9,1,['k'],['k'],Y,N,None,Y,,,,,,,f,23,
2,8,30,2,2,1,['k'],['k'],Y,N,None,Y,,,,,,,f,23,
2,9,31,4,4,1,['d'],['k'],N,Y,['d'],N,,,,,,,f,23,
2,10,32,0,0,1,['k'],['k'],Y,Y,['space'],Y,,,,,,,f,23,
3,0,33,7,7,1,['d'],['d'],Y,Y,['space'],Y,,,,,,,f,23,
3,1,34,1,1,1,['k'],['k'],Y,N,None,Y,,,,,,,f,23,
3,2,35,5,5,1,['d'],['d'],Y,N,None,Y,,,,,,,f,23,
3,3,36,4,4,1,['k'],['d'],N,N,None,Y,,,,,,,f,23,
3,4,37,1,1,1,['d'],['d'],Y,Y,None,N,,,,,,,f,23,
3,5,38,6,6,1,['k'],['k'],Y,Y,None,N,,,,,,,f,23,
3,6,39,6,6,1,['d'],['d'],Y,Y,['space'],Y,,,,,,,f,23,
3,7,40,9,9,1,['k'],['k'],Y,Y,['space'],Y,,,,,,,f,23,
3,8,41,10,10,1,['d'],['d'],Y,N,None,Y,,,,,,,f,23,
3,9,42,10,10,1,['k'],['k'],Y,N,None,Y,,,,,,,f,23,
3,10,43,4,4,1,['d'],['d'],Y,Y,None,N,,,,,,,f,23,
4,0,44,9,9,1,['k'],['d'],N,N,None,Y,,,,,,,f,23,
4,1,45,2,2,1,['d'],['d'],Y,Y,['space'],Y,,,,,,,f,23,
4,2,46,6,6,1,['d'],['d'],Y,N,None,Y,,,,,,,f,23,
4,3,47,4,4,1,['d'],['d'],Y,N,None,Y,,,,,,,f,23,
4,4,48,8,8,1,['k'],['d'],N,Y,['d'],N,,,,,,,f,23,
4,5,49,0,0,1,['k'],['d'],N,N,None,Y,34,38,21,,,,f,23,
4,6,50,2,2,2,['k'],['k'],Y,,,,,,,,,,f,23,
4,7,51,5,5,2,['k'],['d'],N,,,,,,,,,,f,23,
4,8,52,5,5,2,['k'],['k'],Y,Y,None,N,,,,,,,f,23,
4,9,53,4,4,2,['k'],['k'],Y,N,None,Y,,,,,,,f,23,
4,10,54,1,1,2,['k'],['k'],Y,N,None,Y,,,,,,,f,23,
5,0,55,6,6,2,['d'],['d'],Y,N,None,Y,,,,,,,f,23,
5,1,56,5,5,2,['d'],['k'],N,N,None,Y,,,,,,,f,23,
5,2,57,8,8,2,['k'],['d'],N,Y,None,N,,,,,,,f,23,
5,3,58,2,2,2,['k'],['k'],Y,N,None,Y,,,,,,,f,23,
5,4,59,4,4,2,['d'],['k'],N,Y,None,N,,,,,,,f,23,
5,5,60,6,6,2,['d'],['d'],Y,Y,['space'],Y,,,,,,,f,23,
5,6,61,2,2,2,['k'],['k'],Y,N,['space'],N,,,,,,,f,23,
5,7,62,2,2,2,['k'],['k'],Y,N,['space'],N,,,,,,,f,23,
5,8,63,2,2,2,['d'],['k'],N,Y,['space'],Y,,,,,,,f,23,
5,9,64,4,4,2,['d'],['d'],Y,N,None,Y,,,,,,,f,23,
5,10,65,10,10,2,['k'],['d'],N,Y,None,N,,,,,,,f,23,
6,0,66,9,9,2,['d'],['k'],N,N,None,Y,,,,,,,f,23,
6,1,67,3,3,2,['k'],['k'],Y,N,['space'],N,,,,,,,f,23,
6,2,68,1,1,2,['k'],['k'],Y,N,None,Y,,,,,,,f,23,
6,3,69,2,2,2,['k'],['k'],Y,N,['space'],N,,,,,,,f,23,
6,4,70,2,2,2,['d'],['d'],Y,Y,['d'],N,,,,,,,f,23,
6,5,71,5,5,2,['d'],['d'],Y,Y,None,N,,,,,,,f,23,
6,6,72,4,4,2,['k'],['k'],Y,N,['k'],N,,,,,,,f,23,
6,7,73,6,6,2,['d'],['d'],Y,Y,['space'],Y,,,,,,,f,23,
6,8,74,8,8,2,['d'],['d'],Y,N,None,Y,,,,,,,f,23,
6,9,75,1,1,2,['k'],['d'],N,Y,None,N,,,,,,,f,23,
6,10,76,0,0,2,['d'],['d'],Y,Y,['space'],Y,,,,,,,f,23,
7,0,77,3,3,2,['k'],['k'],Y,N,None,Y,,,,,,,f,23,
7,1,78,8,8,2,['k'],['d'],N,Y,['d'],N,,,,,,,f,23,
7,2,79,7,7,2,['k'],['k'],Y,Y,None,N,,,,,,,f,23,
7,3,80,1,1,2,['k'],['k'],Y,Y,['d'],N,,,,,,,f,23,
7,4,81,2,2,2,['k'],['k'],Y,Y,None,N,,,,,,,f,23,
7,5,82,7,7,2,['d'],['d'],Y,Y,None,N,,,,,,,f,23,
7,6,83,0,0,2,['k'],['d'],N,Y,None,N,,,,,,,f,23,
7,7,84,4,4,2,['k'],['k'],Y,N,None,Y,,,,,,,f,23,
7,8,85,7,7,2,['d'],['d'],Y,Y,['space'],Y,,,,,,,f,23,
7,9,86,10,10,2,['d'],['d'],Y,Y,None,N,,,,,,,f,23,
7,10,87,10,10,2,['k'],['k'],Y,N,None,Y,,,,,,,f,23,
8,0,88,10,10,2,['d'],['d'],Y,N,None,Y,,,,,,,f,23,
8,1,89,0,0,2,['k'],['k'],Y,N,None,Y,,,,,,,f,23,
8,2,90,5,5,2,['d'],['d'],Y,Y,['space'],Y,,,,,,,f,23,
8,3,91,5,5,2,['k'],['d'],N,Y,None,N,,,,,,,f,23,
8,4,92,1,1,2,['k'],['k'],Y,N,None,Y,,,,,,,f,23,
8,5,93,8,8,2,['d'],['d'],Y,N,None,Y,,,,,,,f,23,
8,6,94,1,1,2,['k'],['d'],N,N,None,Y,,,,,,,f,23,
8,7,95,3,3,2,['k'],['k'],Y,Y,None,N,,,,,,,f,23,
8,8,96,2,2,2,['d'],['k'],N,N,['space'],N,,,,,,,f,23,
8,9,97,8,8,2,['k'],['k'],Y,Y,['space'],Y,,,,,,,f,23,
8,10,98,7,7,2,['k'],['k'],Y,Y,['space'],Y,,,,,,,f,23,
9,0,99,0,0,2,['d'],['k'],N,N,['space'],N,36,25,24,,,,f,23,
9,1,100,9,9,3,['d'],['d'],Y,,,,,,,,,,f,23,
9,2,101,3,3,3,['d'],['d'],Y,,,,,,,,,,f,23,
9,3,102,9,9,3,['k'],['k'],Y,Y,['space'],Y,,,,,,,f,23,
9,4,103,3,3,3,['d'],['k'],N,N,None,Y,,,,,,,f,23,
9,5,104,10,10,3,['d'],['d'],Y,Y,['space'],Y,,,,,,,f,23,
9,6,105,9,9,3,['k'],['k'],Y,Y,['space'],Y,,,,,,,f,23,
9,7,106,2,2,3,['d'],['d'],Y,N,None,Y,,,,,,,f,23,
9,8,107,0,0,3,['k'],['k'],Y,N,None,Y,,,,,,,f,23,
9,9,108,1,1,3,['d'],['d'],Y,Y,['space'],Y,,,,,,,f,23,
9,10,109,10,10,3,['k'],['k'],Y,Y,['space'],Y,,,,,,,f,23,
10,0,110,2,2,3,['k'],['k'],Y,Y,['space'],Y,,,,,,,f,23,
10,1,111,9,9,3,['d'],['k'],N,N,None,Y,,,,,,,f,23,
10,2,112,0,0,3,['d'],['d'],Y,N,['space'],N,,,,,,,f,23,
10,3,113,3,3,3,['k'],['k'],Y,Y,None,N,,,,,,,f,23,
10,4,114,7,7,3,['k'],['k'],Y,N,None,Y,,,,,,,f,23,
10,5,115,5,5,3,['k'],['k'],Y,N,None,Y,,,,,,,f,23,
10,6,116,0,0,3,['k'],['k'],Y,N,None,Y,,,,,,,f,23,
10,7,117,6,6,3,['k'],['k'],Y,Y,['space'],Y,,,,,,,f,23,
10,8,118,2,2,3,['d'],['d'],Y,Y,['space'],Y,,,,,,,f,23,
10,9,119,4,4,3,['k'],['k'],Y,N,None,Y,,,,,,,f,23,
10,10,120,7,7,3,['k'],['k'],Y,Y,['space'],Y,,,,,,,f,23,
11,0,121,3,3,3,['k'],['k'],Y,N,None,Y,,,,,,,f,23,
11,1,122,5,5,3,['d'],['d'],Y,N,None,Y,,,,,,,f,23,
11,2,123,1,1,3,['d'],['d'],Y,N,None,Y,,,,,,,f,23,
11,3,124,9,9,3,['d'],['d'],Y,N,None,Y,,,,,,,f,23,
11,4,125,8,8,3,['d'],['d'],Y,Y,['space'],Y,,,,,,,f,23,
11,5,126,3,3,3,['k'],['k'],Y,Y,['space'],Y,,,,,,,f,23,
11,6,127,4,4,3,['d'],['d'],Y,Y,['space'],Y,,,,,,,f,23,
11,7,128,6,6,3,['k'],['k'],Y,N,None,Y,,,,,,,f,23,
11,8,129,10,10,3,['d'],['k'],N,N,None,Y,,,,,,,f,23,
11,9,130,10,10,3,['k'],['k'],Y,Y,['space'],Y,,,,,,,f,23,
11,10,131,3,3,3,['d'],['d'],Y,Y,['space'],Y,,,,,,,f,23,
12,0,132,4,4,3,['k'],['k'],Y,N,None,Y,,,,,,,f,23,
12,1,133,8,8,3,['d'],['k'],N,Y,['space'],Y,,,,,,,f,23,
12,2,134,7,7,3,['k'],['k'],Y,Y,['space'],Y,,,,,,,f,23,
12,3,135,8,8,3,['k'],['k'],Y,N,None,Y,,,,,,,f,23,
12,4,136,5,5,3,['d'],['d'],Y,N,None,Y,,,,,,,f,23,
12,5,137,3,3,3,['d'],['d'],Y,Y,['space'],Y,,,,,,,f,23,
12,6,138,5,5,3,['d'],['k'],N,Y,['k'],N,,,,,,,f,23,
12,7,139,6,6,3,['d'],['d'],Y,N,None,Y,,,,,,,f,23,
12,8,140,7,7,3,['k'],['k'],Y,Y,['space'],Y,,,,,,,f,23,
12,9,141,5,5,3,['k'],['k'],Y,N,None,Y,,,,,,,f,23,
12,10,142,8,8,3,['d'],['d'],Y,N,None,Y,,,,,,,f,23,
13,0,143,1,1,3,['k'],['k'],Y,Y,['space'],Y,,,,,,,f,23,
13,1,144,2,2,3,['d'],['d'],Y,Y,None,N,,,,,,,f,23,
13,2,145,7,7,3,['d'],['d'],Y,N,None,Y,,,,,,,f,23,
13,3,146,10,10,3,['d'],['d'],Y,N,None,Y,,,,,,,f,23,
13,4,147,3,3,3,['d'],['d'],Y,Y,['space'],Y,,,,,,,f,23,
13,5,148,10,10,3,['d'],['d'],Y,Y,['space'],Y,,,,,,,f,23,
13,6,149,8,8,3,['d'],['k'],N,N,None,Y,44,44,24,,,,f,23,
13,7,150,7,7,4,['d'],['d'],Y,,,,,,,,,,f,23,
13,8,151,7,7,4,['k'],['k'],Y,,,,,,,,,,f,23,
13,9,152,9,9,4,['d'],['k'],N,Y,None,N,,,,,,,f,23,
13,10,153,5,5,4,['d'],['d'],Y,N,None,Y,,,,,,,f,23,
14,0,154,1,1,4,['k'],['k'],Y,Y,['space'],Y,,,,,,,f,23,
14,1,155,0,0,4,['k'],['k'],Y,Y,['space'],Y,,,,,,,f,23,
14,2,156,9,9,4,['d'],['k'],N,Y,['space'],Y,,,,,,,f,23,
14,3,157,6,6,4,['d'],['d'],Y,Y,['space'],Y,,,,,,,f,23,
14,4,158,8,8,4,['k'],['k'],Y,Y,['space'],Y,,,,,,,f,23,
14,5,159,3,3,4,['d'],['d'],Y,N,None,Y,,,,,,,f,23,
14,6,160,5,5,4,['d'],['d'],Y,Y,['space'],Y,,,,,,,f,23,
14,7,161,0,0,4,['k'],['d'],N,Y,None,N,,,,,,,f,23,
14,8,162,6,6,4,['d'],['d'],Y,Y,['space'],Y,,,,,,,f,23,
14,9,163,5,5,4,['k'],['k'],Y,N,['space'],N,,,,,,,f,23,
14,10,164,10,10,4,['k'],['k'],Y,Y,['d'],N,,,,,,,f,23,
15,0,165,8,8,4,['k'],['k'],Y,Y,['space'],Y,,,,,,,f,23,
15,1,166,3,3,4,['d'],['d'],Y,N,None,Y,,,,,,,f,23,
15,2,167,6,6,4,['d'],['d'],Y,N,None,Y,,,,,,,f,23,
15,3,168,6,6,4,['d'],['d'],Y,N,None,Y,,,,,,,f,23,
15,4,169,8,8,4,['k'],['k'],Y,Y,['space'],Y,,,,,,,f,23,
15,5,170,1,1,4,['k'],['k'],Y,N,None,Y,,,,,,,f,23,
15,6,171,1,1,4,['k'],['k'],Y,N,None,Y,,,,,,,f,23,
15,7,172,8,8,4,['k'],['k'],Y,Y,['space'],Y,,,,,,,f,23,
15,8,173,4,4,4,['k'],['k'],Y,Y,None,N,,,,,,,f,23,
15,9,174,3,3,4,['d'],['d'],Y,Y,['space'],Y,,,,,,,f,23,
15,10,175,9,9,4,['k'],['k'],Y,Y,['space'],Y,,,,,,,f,23,
16,0,176,6,6,4,['d'],['k'],N,N,None,Y,,,,,,,f,23,
16,1,177,5,5,4,['k'],['k'],Y,Y,['space'],Y,,,,,,,f,23,
16,2,178,7,7,4,['k'],['k'],Y,N,None,Y,,,,,,,f,23,
16,3,179,3,3,4,['d'],['d'],Y,Y,['d'],N,,,,,,,f,23,
16,4,180,4,4,4,['k'],['k'],Y,N,None,Y,,,,,,,f,23,
16,5,181,6,6,4,['k'],['k'],Y,Y,['space'],Y,,,,,,,f,23,
16,6,182,3,3,4,['d'],['d'],Y,N,None,Y,,,,,,,f,23,
16,7,183,3,3,4,['k'],['k'],Y,Y,['space'],Y,,,,,,,f,23,
16,8,184,1,1,4,['k'],['k'],Y,Y,['d'],N,,,,,,,f,23,
16,9,185,6,6,4,['k'],['d'],N,Y,None,N,,,,,,,f,23,
16,10,186,5,5,4,['k'],['k'],Y,Y,['space'],Y,,,,,,,f,23,
17,0,187,10,10,4,['k'],['d'],N,Y,['space'],Y,,,,,,,f,23,
17,1,188,8,8,4,['d'],['d'],Y,N,None,Y,,,,,,,f,23,
17,2,189,8,8,4,['d'],['d'],Y,N,None,Y,,,,,,,f,23,
17,3,190,3,3,4,['d'],['d'],Y,N,None,Y,,,,,,,f,23,
17,4,191,1,1,4,['d'],['k'],N,N,None,Y,,,,,,,f,23,
17,5,192,0,0,4,['k'],['k'],Y,Y,['space'],Y,,,,,,,f,23,
17,6,193,0,0,4,['d'],['d'],Y,N,None,Y,,,,,,,f,23,
17,7,194,5,5,4,['k'],['k'],Y,N,None,Y,,,,,,,f,23,
17,8,195,6,6,4,['d'],['d'],Y,N,None,Y,,,,,,,f,23,
17,9,196,9,9,4,['d'],['d'],Y,N,None,Y,,,,,,,f,23,
17,10,197,10,10,4,['k'],['k'],Y,N,None,Y,,,,,,,f,23,
18,0,198,3,3,4,['k'],['d'],N,N,None,Y,,,,,,,f,23,
18,1,199,6,6,4,['d'],['d'],Y,N,None,Y,42,40,25,,,,f,23,
18,2,200,0,0,5,['d'],['d'],Y,,,,,,,,,,f,23,
18,3,201,0,0,5,['d'],['d'],Y,,,,,,,,,,f,23,
18,4,202,3,3,5,['k'],['k'],Y,N,None,Y,,,,,,,f,23,
18,5,203,7,7,5,['k'],['d'],N,N,None,Y,,,,,,,f,23,
18,6,204,8,8,5,['k'],['k'],Y,Y,['d'],N,,,,,,,f,23,
18,7,205,2,2,5,['d'],['k'],N,N,['d'],N,,,,,,,f,23,
18,8,206,9,9,5,['k'],['k'],Y,N,None,Y,,,,,,,f,23,
18,9,207,8,8,5,['d'],['d'],Y,N,None,Y,,,,,,,f,23,
18,10,208,3,3,5,['k'],['d'],N,N,None,Y,,,,,,,f,23,
19,0,209,4,4,5,None,,Timed out,Y,None,N,,,,,,,f,23,
19,1,210,0,0,5,['k'],['k'],Y,N,None,Y,,,,,,,f,23,
19,2,211,1,1,5,['d'],['d'],Y,Y,None,N,,,,,,,f,23,
19,3,212,2,2,5,['d'],['d'],Y,N,None,Y,,,,,,,f,23,
19,4,213,9,9,5,['k'],['k'],Y,N,None,Y,,,,,,,f,23,
19,5,214,4,4,5,['d'],['d'],Y,Y,['space'],Y,,,,,,,f,23,
19,6,215,1,1,5,['d'],['d'],Y,N,None,Y,,,,,,,f,23,
19,7,216,8,8,5,['d'],['d'],Y,Y,['space'],Y,,,,,,,f,23,
19,8,217,2,2,5,['k'],['k'],Y,N,None,Y,,,,,,,f,23,
19,9,218,0,0,5,['k'],['k'],Y,Y,['space'],Y,,,,,,,f,23,
19,10,219,0,0,5,['k'],['d'],N,Y,['space'],Y,,,,,,,f,23,
20,0,220,8,8,5,['k'],['d'],N,N,None,Y,,,,,,,f,23,
20,1,221,10,10,5,['d'],['d'],Y,N,None,Y,,,,,,,f,23,
20,2,222,5,5,5,['d'],['d'],Y,Y,['space'],Y,,,,,,,f,23,
20,3,223,8,8,5,['d'],['d'],Y,N,['space'],N,,,,,,,f,23,
20,4,224,9,9,5,['d'],['k'],N,Y,['space'],Y,,,,,,,f,23,
20,5,225,4,4,5,['k'],['k'],Y,Y,['k'],N,,,,,,,f,23,
20,6,226,10,10,5,['d'],['d'],Y,N,['space'],N,,,,,,,f,23,
20,7,227,5,5,5,['d'],['d'],Y,Y,['space'],Y,,,,,,,f,23,
20,8,228,6,6,5,['d'],['d'],Y,N,None,Y,,,,,,,f,23,
20,9,229,5,5,5,['d'],['d'],Y,N,None,Y,,,,,,,f,23,
20,10,230,1,1,5,['k'],['k'],Y,Y,None,N,,,,,,,f,23,
21,0,231,5,5,5,['d'],['d'],Y,Y,['space'],Y,,,,,,,f,23,
21,1,232,10,10,5,['d'],['d'],Y,N,None,Y,,,,,,,f,23,
21,2,233,1,1,5,['d'],['k'],N,N,None,Y,,,,,,,f,23,
21,3,234,4,4,5,['k'],['k'],Y,N,None,Y,,,,,,,f,23,
21,4,235,4,4,5,['k'],['k'],Y,Y,None,N,,,,,,,f,23,
21,5,236,3,3,5,['k'],['k'],Y,Y,None,N,,,,,,,f,23,
21,6,237,7,7,5,['d'],['d'],Y,N,None,Y,,,,,,,f,23,
21,7,238,6,6,5,['d'],['d'],Y,Y,None,N,,,,,,,f,23,
21,8,239,9,9,5,['k'],['k'],Y,N,None,Y,,,,,,,f,23,
21,9,240,3,3,5,['d'],['k'],N,Y,None,N,,,,,,,f,23,
21,10,241,1,1,5,['k'],['k'],Y,N,None,Y,,,,,,,f,23,
22,0,242,5,5,5,['k'],['d'],N,Y,None,N,,,,,,,f,23,
22,1,243,8,8,5,['d'],['d'],Y,Y,['d'],N,,,,,,,f,23,
22,2,244,10,10,5,['d'],['d'],Y,Y,None,N,,,,,,,f,23,
22,3,245,10,10,5,['k'],['k'],Y,Y,None,N,,,,,,,f,23,
22,4,246,5,5,5,['d'],['d'],Y,Y,None,N,,,,,,,f,23,
22,5,247,6,6,5,['k'],['k'],Y,Y,None,N,,,,,,,f,23,
22,6,248,10,10,5,['d'],['d'],Y,N,None,Y,,,,,,,f,23,
22,7,249,4,4,5,['k'],['k'],Y,Y,['space'],Y,40,30,24,,,,f,23,
22,8,250,6,6,6,['d'],['d'],Y,,,,,,,,,,f,23,
22,9,251,9,9,6,['d'],['d'],Y,,,,,,,,,,f,23,
22,10,252,0,0,6,['k'],['k'],Y,Y,['space'],Y,,,,,,,f,23,
23,0,253,9,9,6,['k'],['k'],Y,Y,['space'],Y,,,,,,,f,23,
23,1,254,4,4,6,['k'],['k'],Y,Y,['space'],Y,,,,,,,f,23,
23,2,255,8,8,6,['k'],['k'],Y,N,None,Y,,,,,,,f,23,
23,3,256,5,5,6,['k'],['k'],Y,Y,['space'],Y,,,,,,,f,23,
23,4,257,8,8,6,['d'],['d'],Y,N,None,Y,,,,,,,f,23,
23,5,258,3,3,6,['k'],['k'],Y,Y,['space'],Y,,,,,,,f,23,
23,6,259,8,8,6,['d'],['d'],Y,N,None,Y,,,,,,,f,23,
23,7,260,6,6,6,['d'],['d'],Y,Y,['space'],Y,,,,,,,f,23,
23,8,261,4,4,6,['d'],['d'],Y,Y,['space'],Y,,,,,,,f,23,
23,9,262,10,10,6,['k'],['k'],Y,N,None,Y,,,,,,,f,23,
23,10,263,7,7,6,['d'],['d'],Y,Y,['space'],Y,,,,,,,f,23,
24,0,264,9,9,6,['k'],['k'],Y,N,None,Y,,,,,,,f,23,
24,1,265,0,0,6,['k'],['k'],Y,N,None,Y,,,,,,,f,23,
24,2,266,2,2,6,['k'],['k'],Y,Y,['space'],Y,,,,,,,f,23,
24,3,267,9,9,6,['k'],['k'],Y,N,None,Y,,,,,,,f,23,
24,4,268,4,4,6,['k'],['k'],Y,N,None,Y,,,,,,,f,23,
24,5,269,2,2,6,['d'],['d'],Y,Y,['space'],Y,,,,,,,f,23,
24,6,270,1,1,6,['k'],['k'],Y,Y,['space'],Y,,,,,,,f,23,
24,7,271,7,7,6,['d'],['d'],Y,N,None,Y,,,,,,,f,23,
24,8,272,9,9,6,['k'],['k'],Y,Y,['space'],Y,,,,,,,f,23,
24,9,273,1,1,6,['k'],['d'],N,N,None,Y,,,,,,,f,23,
24,10,274,1,1,6,['k'],['k'],Y,N,['space'],N,,,,,,,f,23,
25,0,275,9,9,6,['k'],['k'],Y,Y,None,N,,,,,,,f,23,
25,1,276,4,4,6,['k'],['k'],Y,Y,['space'],Y,,,,,,,f,23,
25,2,277,5,5,6,['d'],['d'],Y,Y,['space'],Y,,,,,,,f,23,
25,3,278,4,4,6,['k'],['k'],Y,Y,['space'],Y,,,,,,,f,23,
25,4,279,6,6,6,['d'],['d'],Y,N,['space'],N,,,,,,,f,23,
25,5,280,6,6,6,['d'],['d'],Y,Y,None,N,,,,,,,f,23,
25,6,281,10,10,6,['d'],['d'],Y,N,None,Y,,,,,,,f,23,
25,7,282,2,2,6,['d'],['d'],Y,Y,['space'],Y,,,,,,,f,23,
25,8,283,9,9,6,['d'],['d'],Y,Y,['space'],Y,,,,,,,f,23,
25,9,284,4,4,6,['d'],['k'],N,Y,['space'],Y,,,,,,,f,23,
25,10,285,3,3,6,['d'],['d'],Y,N,None,Y,,,,,,,f,23,
26,0,286,5,5,6,['k'],['k'],Y,Y,None,N,,,,,,,f,23,
26,1,287,4,4,6,['k'],['k'],Y,N,None,Y,,,,,,,f,23,
26,2,288,10,10,6,['k'],['d'],N,N,None,Y,,,,,,,f,23,
26,3,289,10,10,6,['k'],['k'],Y,Y,['space'],Y,,,,,,,f,23,
26,4,290,6,6,6,['d'],['d'],Y,Y,None,N,,,,,,,f,23,
26,5,291,3,3,6,['d'],['d'],Y,Y,['space'],Y,,,,,,,f,23,
26,6,292,2,2,6,['k'],['d'],N,Y,['space'],Y,,,,,,,f,23,
26,7,293,5,5,6,['k'],['k'],Y,N,None,Y,,,,,,,f,23,
26,8,294,9,9,6,['d'],['d'],Y,N,None,Y,,,,,,,f,23,
26,9,295,5,5,6,['d'],['d'],Y,N,None,Y,,,,,,,f,23,
26,10,296,6,6,6,['k'],['k'],Y,N,None,Y,,,,,,,f,23,
27,0,297,1,1,6,['k'],['k'],Y,N,None,Y,,,,,,,f,23,
27,1,298,7,7,6,['d'],['d'],Y,N,None,Y,,,,,,,f,23,
27,2,299,4,4,6,['k'],['k'],Y,N,None,Y,46,42,25,,,,f,23,
27,3,300,3,3,7,['k'],['k'],Y,,,,,,,,,,f,23,
27,4,301,2,2,7,['k'],['k'],Y,,,,,,,,,,f,23,
27,5,302,4,4,7,['d'],['k'],N,Y,None,N,,,,,,,f,23,
27,6,303,6,6,7,['k'],['k'],Y,Y,['space'],Y,,,,,,,f,23,
27,7,304,4,4,7,['k'],['k'],Y,Y,None,N,,,,,,,f,23,
27,8,305,0,0,7,['d'],['d'],Y,Y,None,N,,,,,,,f,23,
27,9,306,2,2,7,['k'],['k'],Y,Y,None,N,,,,,,,f,23,
27,10,307,8,8,7,['k'],['d'],N,N,None,Y,,,,,,,f,23,
28,0,308,0,0,7,['d'],['d'],Y,N,None,Y,,,,,,,f,23,
28,1,309,2,2,7,['d'],['d'],Y,N,['space'],N,,,,,,,f,23,
28,2,310,2,2,7,['d'],['d'],Y,Y,None,N,,,,,,,f,23,
28,3,311,1,1,7,['d'],['k'],N,N,None,Y,,,,,,,f,23,
28,4,312,10,10,7,['k'],['k'],Y,N,None,Y,,,,,,,f,23,
28,5,313,2,2,7,['d'],['d'],Y,Y,['k'],N,,,,,,,f,23,
28,6,314,1,1,7,['d'],['d'],Y,Y,['space'],Y,,,,,,,f,23,
28,7,315,1,1,7,['d'],['d'],Y,N,None,Y,,,,,,,f,23,
28,8,316,7,7,7,['k'],['k'],Y,N,None,Y,,,,,,,f,23,
28,9,317,9,9,7,['d'],['d'],Y,Y,['d'],N,,,,,,,f,23,
28,10,318,3,3,7,['k'],['k'],Y,N,['space'],N,,,,,,,f,23,
29,0,319,3,3,7,['d'],['d'],Y,Y,None,N,,,,,,,f,23,
29,1,320,2,2,7,['k'],['k'],Y,N,None,Y,,,,,,,f,23,
29,2,321,7,7,7,['d'],['d'],Y,N,None,Y,,,,,,,f,23,
29,3,322,5,5,7,['d'],['d'],Y,N,None,Y,,,,,,,f,23,
29,4,323,9,9,7,['k'],['k'],Y,N,None,Y,,,,,,,f,23,
29,5,324,8,8,7,['k'],['k'],Y,N,None,Y,,,,,,,f,23,
29,6,325,6,6,7,['d'],['d'],Y,Y,None,N,,,,,,,f,23,
29,7,326,8,8,7,['k'],['k'],Y,N,None,Y,,,,,,,f,23,
29,8,327,10,10,7,['d'],['k'],N,Y,None,N,,,,,,,f,23,
29,9,328,2,2,7,['d'],['d'],Y,N,None,Y,,,,,,,f,23,
29,10,329,9,9,7,['d'],['d'],Y,Y,None,N,,,,,,,f,23,
30,0,330,5,5,7,['k'],['k'],Y,Y,None,N,,,,,,,f,23,
30,1,331,6,6,7,['k'],['d'],N,N,None,Y,,,,,,,f,23,
30,2,332,7,7,7,['k'],['k'],Y,Y,['d'],N,,,,,,,f,23,
30,3,333,7,7,7,['k'],['k'],Y,N,None,Y,,,,,,,f,23,
30,4,334,8,8,7,['k'],['k'],Y,Y,None,N,,,,,,,f,23,
30,5,335,7,7,7,['d'],['d'],Y,N,['d'],N,,,,,,,f,23,
30,6,336,10,10,7,['d'],['d'],Y,Y,None,N,,,,,,,f,23,
30,7,337,10,10,7,['k'],['k'],Y,N,None,Y,,,,,,,f,23,
30,8,338,7,7,7,['d'],['d'],Y,Y,['d'],N,,,,,,,f,23,
30,9,339,9,9,7,['k'],['k'],Y,N,['d'],N,,,,,,,f,23,
30,10,340,2,2,7,['k'],['d'],N,Y,None,N,,,,,,,f,23,
31,0,341,4,4,7,['d'],['d'],Y,N,None,Y,,,,,,,f,23,
31,1,342,10,10,7,['d'],['d'],Y,Y,None,N,,,,,,,f,23,
31,2,343,3,3,7,['k'],['k'],Y,Y,None,N,,,,,,,f,23,
31,3,344,10,10,7,['d'],['d'],Y,N,None,Y,,,,,,,f,23,
31,4,345,6,6,7,['k'],['k'],Y,N,None,Y,,,,,,,f,23,
31,5,346,2,2,7,['d'],['d'],Y,Y,None,N,,,,,,,f,23,
31,6,347,1,1,7,['k'],['k'],Y,N,None,Y,,,,,,,f,23,
31,7,348,5,5,7,['d'],['d'],Y,Y,['space'],Y,,,,,,,f,23,
31,8,349,0,0,7,['k'],['d'],N,Y,['space'],Y,43,24,24,,,,f,23,
31,9,350,5,5,8,['d'],['d'],Y,,,,,,,,,,f,23,
31,10,351,10,10,8,['d'],['d'],Y,,,,,,,,,,f,23,
32,0,352,7,7,8,['d'],['d'],Y,N,None,Y,,,,,,,f,23,
32,1,353,1,1,8,['d'],['d'],Y,N,['space'],N,,,,,,,f,23,
32,2,354,3,3,8,['k'],['k'],Y,Y,['space'],Y,,,,,,,f,23,
32,3,355,2,2,8,['k'],['k'],Y,Y,['space'],Y,,,,,,,f,23,
32,4,356,10,10,8,['k'],['d'],N,Y,None,N,,,,,,,f,23,
32,5,357,1,1,8,['d'],['d'],Y,N,None,Y,,,,,,,f,23,
32,6,358,8,8,8,['k'],['k'],Y,N,None,Y,,,,,,,f,23,
32,7,359,8,8,8,['k'],['k'],Y,N,None,Y,,,,,,,f,23,
32,8,360,2,2,8,['d'],['d'],Y,N,['d'],N,,,,,,,f,23,
32,9,361,5,5,8,['k'],['k'],Y,N,['d'],N,,,,,,,f,23,
32,10,362,4,4,8,['k'],['k'],Y,N,None,Y,,,,,,,f,23,
33,0,363,2,2,8,['k'],['k'],Y,Y,None,N,,,,,,,f,23,
33,1,364,10,10,8,['k'],['k'],Y,Y,None,N,,,,,,,f,23,
33,2,365,8,8,8,['d'],['k'],N,Y,None,N,,,,,,,f,23,
33,3,366,6,6,8,['k'],['k'],Y,Y,None,N,,,,,,,f,23,
33,4,367,5,5,8,['d'],['d'],Y,N,None,Y,,,,,,,f,23,
33,5,368,2,2,8,['d'],['d'],Y,Y,None,N,,,,,,,f,23,
33,6,369,7,7,8,['d'],['d'],Y,N,None,Y,,,,,,,f,23,
33,7,370,4,4,8,['d'],['k'],N,Y,['space'],Y,,,,,,,f,23,
33,8,371,6,6,8,['d'],['k'],N,Y,None,N,,,,,,,f,23,
33,9,372,8,8,8,['k'],['k'],Y,N,None,Y,,,,,,,f,23,
33,10,373,8,8,8,['k'],['k'],Y,Y,['space'],Y,,,,,,,f,23,
34,0,374,8,8,8,['d'],['d'],Y,N,None,Y,,,,,,,f,23,
34,1,375,1,1,8,['k'],['k'],Y,N,None,Y,,,,,,,f,23,
34,2,376,9,9,8,['d'],['k'],N,Y,['space'],Y,,,,,,,f,23,
34,3,377,4,4,8,['k'],['k'],Y,N,None,Y,,,,,,,f,23,
34,4,378,6,6,8,['k'],['d'],N,N,None,Y,,,,,,,f,23,
34,5,379,6,6,8,['k'],['d'],N,N,['d'],N,,,,,,,f,23,
34,6,380,9,9,8,['k'],['d'],N,Y,None,N,,,,,,,f,23,
34,7,381,1,1,8,['d'],['d'],Y,N,['d'],N,,,,,,,f,23,
34,8,382,1,1,8,['d'],['d'],Y,Y,['d'],N,,,,,,,f,23,
34,9,383,6,6,8,['d'],['d'],Y,N,['space'],N,,,,,,,f,23,
34,10,384,3,3,8,['k'],['k'],Y,Y,['space'],Y,,,,,,,f,23,
35,0,385,2,2,8,['k'],['k'],Y,N,None,Y,,,,,,,f,23,
35,1,386,1,1,8,['d'],['d'],Y,N,['space'],N,,,,,,,f,23,
35,2,387,4,4,8,['k'],['k'],Y,N,['d'],N,,,,,,,f,23,
35,3,388,2,2,8,['d'],['d'],Y,N,['space'],N,,,,,,,f,23,
35,4,389,8,8,8,['d'],['d'],Y,N,None,Y,,,,,,,f,23,
35,5,390,2,2,8,['k'],['k'],Y,Y,None,N,,,,,,,f,23,
35,6,391,8,8,8,['d'],['d'],Y,Y,['space'],Y,,,,,,,f,23,
35,7,392,3,3,8,['k'],['k'],Y,N,None,Y,,,,,,,f,23,
35,8,393,4,4,8,['k'],['k'],Y,N,None,Y,,,,,,,f,23,
35,9,394,10,10,8,['d'],['k'],N,Y,None,N,,,,,,,f,23,
35,10,395,0,0,8,['k'],['d'],N,N,None,Y,,,,,,,f,23,
36,0,396,1,1,8,['k'],['k'],Y,N,['space'],N,,,,,,,f,23,
36,1,397,6,6,8,['k'],['k'],Y,N,['k'],N,,,,,,,f,23,
36,2,398,9,9,8,['k'],['k'],Y,Y,None,N,,,,,,,f,23,
36,3,399,3,3,8,['d'],['k'],N,N,None,Y,39,25,19,,,,f,23,
36,4,400,5,5,9,['d'],['d'],Y,,,,,,,,,,f,23,
36,5,401,1,1,9,['d'],['d'],Y,,,,,,,,,,f,23,
36,6,402,7,7,9,['d'],['d'],Y,Y,['space'],Y,,,,,,,f,23,
36,7,403,7,7,9,['d'],['k'],N,N,None,Y,,,,,,,f,23,
36,8,404,8,8,9,['k'],['k'],Y,N,None,Y,,,,,,,f,23,
36,9,405,10,10,9,['d'],['d'],Y,N,None,Y,,,,,,,f,23,
36,10,406,3,3,9,['k'],['k'],Y,N,None,Y,,,,,,,f,23,
37,0,407,3,3,9,['k'],['d'],N,N,None,Y,,,,,,,f,23,
37,1,408,5,5,9,['d'],['k'],N,Y,None,N,,,,,,,f,23,
37,2,409,4,4,9,['k'],['k'],Y,Y,None,N,,,,,,,f,23,
37,3,410,9,9,9,['d'],['d'],Y,N,None,Y,,,,,,,f,23,
37,4,411,3,3,9,['k'],['k'],Y,N,None,Y,,,,,,,f,23,
37,5,412,8,8,9,['d'],['k'],N,Y,['space'],Y,,,,,,,f,23,
37,6,413,1,1,9,['k'],['k'],Y,Y,['space'],Y,,,,,,,f,23,
37,7,414,0,0,9,['d'],['d'],Y,Y,['k'],N,,,,,,,f,23,
37,8,415,4,4,9,['k'],['k'],Y,Y,None,N,,,,,,,f,23,
37,9,416,7,7,9,['k'],['k'],Y,N,None,Y,,,,,,,f,23,
37,10,417,9,9,9,['d'],['d'],Y,N,None,Y,,,,,,,f,23,
38,0,418,7,7,9,['k'],['k'],Y,Y,None,N,,,,,,,f,23,
38,1,419,2,2,9,['k'],['d'],N,N,None,Y,,,,,,,f,23,
38,2,420,10,10,9,['k'],['k'],Y,Y,None,N,,,,,,,f,23,
38,3,421,6,6,9,['k'],['k'],Y,N,None,Y,,,,,,,f,23,
38,4,422,9,9,9,['k'],['k'],Y,N,None,Y,,,,,,,f,23,
38,5,423,0,0,9,['d'],['d'],Y,N,None,Y,,,,,,,f,23,
38,6,424,5,5,9,['k'],['k'],Y,N,None,Y,,,,,,,f,23,
38,7,425,10,10,9,['d'],['k'],N,N,['space'],N,,,,,,,f,23,
38,8,426,0,0,9,['d'],['d'],Y,N,None,Y,,,,,,,f,23,
38,9,427,6,6,9,['k'],['k'],Y,N,None,Y,,,,,,,f,23,
38,10,428,7,7,9,['d'],['d'],Y,N,None,Y,,,,,,,f,23,
39,0,429,7,7,9,['k'],['k'],Y,N,['space'],N,,,,,,,f,23,
39,1,430,0,0,9,['k'],['k'],Y,Y,['space'],Y,,,,,,,f,23,
39,2,431,1,1,9,['d'],['d'],Y,N,None,Y,,,,,,,f,23,
39,3,432,9,9,9,['d'],['d'],Y,N,None,Y,,,,,,,f,23,
39,4,433,7,7,9,['d'],['d'],Y,N,None,Y,,,,,,,f,23,
39,5,434,3,3,9,['d'],['d'],Y,N,['space'],N,,,,,,,f,23,
39,6,435,0,0,9,['k'],['k'],Y,Y,['space'],Y,,,,,,,f,23,
39,7,436,8,8,9,['d'],['k'],N,Y,['d'],N,,,,,,,f,23,
39,8,437,0,0,9,['k'],['k'],Y,Y,None,N,,,,,,,f,23,
39,9,438,2,2,9,['d'],['d'],Y,Y,None,N,,,,,,,f,23,
39,10,439,3,3,9,['d'],['k'],N,N,None,Y,,,,,,,f,23,
40,0,440,7,7,9,['k'],['d'],N,Y,None,N,,,,,,,f,23,
40,1,441,9,9,9,['d'],['d'],Y,N,None,Y,,,,,,,f,23,
40,2,442,7,7,9,['d'],['d'],Y,Y,['space'],Y,,,,,,,f,23,
40,3,443,1,1,9,['k'],['d'],N,Y,['space'],Y,,,,,,,f,23,
40,4,444,7,7,9,['d'],['d'],Y,Y,['space'],Y,,,,,,,f,23,
40,5,445,8,8,9,['k'],['k'],Y,N,None,Y,,,,,,,f,23,
40,6,446,9,9,9,['d'],['d'],Y,Y,['space'],Y,,,,,,,f,23,
40,7,447,9,9,9,['k'],['k'],Y,N,None,Y,,,,,,,f,23,
40,8,448,9,9,9,['k'],['k'],Y,N,['space'],N,,,,,,,f,23,
40,9,449,3,3,9,['d'],['d'],Y,Y,['d'],N,40,33,20,,,,f,23,
40,10,450,3,3,10,['d'],['d'],Y,,,,,,,,,,f,23,
41,0,451,5,5,10,['k'],['d'],N,,,,,,,,,,f,23,
41,1,452,2,2,10,['d'],['d'],Y,Y,None,N,,,,,,,f,23,
41,2,453,9,9,10,['d'],['d'],Y,N,['space'],N,,,,,,,f,23,
41,3,454,5,5,10,['k'],['k'],Y,Y,['space'],Y,,,,,,,f,23,
41,4,455,8,8,10,['d'],['k'],N,Y,['space'],Y,,,,,,,f,23,
41,5,456,8,8,10,['k'],['k'],Y,Y,['space'],Y,,,,,,,f,23,
41,6,457,3,3,10,['k'],['d'],N,N,['k'],N,,,,,,,f,23,
41,7,458,5,5,10,['d'],['k'],N,N,['d'],N,,,,,,,f,23,
41,8,459,1,1,10,['d'],['d'],Y,Y,['space'],Y,,,,,,,f,23,
41,9,460,7,7,10,['k'],['k'],Y,Y,None,N,,,,,,,f,23,
41,10,461,2,2,10,['k'],['k'],Y,Y,None,N,,,,,,,f,23,
42,0,462,0,0,10,['k'],['k'],Y,Y,None,N,,,,,,,f,23,
42,1,463,3,3,10,['k'],['k'],Y,Y,None,N,,,,,,,f,23,
42,2,464,2,2,10,['d'],['d'],Y,Y,None,N,,,,,,,f,23,
42,3,465,8,8,10,['k'],['k'],Y,Y,None,N,,,,,,,f,23,
42,4,466,5,5,10,['d'],['d'],Y,N,None,Y,,,,,,,f,23,
42,5,467,7,7,10,['d'],['d'],Y,N,None,Y,,,,,,,f,23,
42,6,468,8,8,10,['d'],['d'],Y,N,None,Y,,,,,,,f,23,
42,7,469,6,6,10,['d'],['d'],Y,N,None,Y,,,,,,,f,23,
42,8,470,7,7,10,['k'],['k'],Y,Y,None,N,,,,,,,f,23,
42,9,471,7,7,10,['k'],['k'],Y,N,None,Y,,,,,,,f,23,
42,10,472,3,3,10,['k'],['k'],Y,N,None,Y,,,,,,,f,23,
43,0,473,4,4,10,['k'],['k'],Y,N,None,Y,,,,,,,f,23,
43,1,474,10,10,10,['d'],['d'],Y,N,None,Y,,,,,,,f,23,
43,2,475,5,5,10,['k'],['k'],Y,N,None,Y,,,,,,,f,23,
43,3,476,0,0,10,['d'],['d'],Y,Y,['space'],Y,,,,,,,f,23,
43,4,477,10,10,10,['d'],['d'],Y,N,['space'],N,,,,,,,f,23,
43,5,478,3,3,10,['d'],['d'],Y,N,['d'],N,,,,,,,f,23,
43,6,479,7,7,10,['k'],['d'],N,N,['space'],N,,,,,,,f,23,
43,7,480,6,6,10,['k'],['d'],N,N,['d'],N,,,,,,,f,23,
43,8,481,9,9,10,['k'],['k'],Y,N,['space'],N,,,,,,,f,23,
43,9,482,1,1,10,['k'],['k'],Y,N,None,Y,,,,,,,f,23,
43,10,483,6,6,10,['k'],['k'],Y,N,['d'],N,,,,,,,f,23,
44,0,484,8,8,10,['d'],['d'],Y,Y,['space'],Y,,,,,,,f,23,
44,1,485,7,7,10,['d'],['d'],Y,N,['space'],N,,,,,,,f,23,
44,2,486,1,1,10,['k'],['k'],Y,Y,['space'],Y,,,,,,,f,23,
44,3,487,10,10,10,['d'],['d'],Y,N,['d'],N,,,,,,,f,23,
44,4,488,4,4,10,['d'],['d'],Y,N,None,Y,,,,,,,f,23,
44,5,489,7,7,10,['k'],['k'],Y,Y,['space'],Y,,,,,,,f,23,
44,6,490,10,10,10,['d'],['d'],Y,N,['k'],N,,,,,,,f,23,
44,7,491,5,5,10,['d'],['k'],N,Y,['space'],Y,,,,,,,f,23,
44,8,492,1,1,10,['k'],['k'],Y,N,['k'],N,,,,,,,f,23,
44,9,493,9,9,10,['d'],['d'],Y,N,['k'],N,,,,,,,f,23,
44,10,494,4,4,10,['k'],['k'],Y,Y,['d'],N,,,,,,,f,23,
45,0,495,4,4,10,['d'],['d'],Y,Y,None,N,,,,,,,f,23,
45,1,496,6,6,10,['d'],['d'],Y,N,['k'],N,,,,,,,f,23,
45,2,497,4,4,10,['d'],['d'],Y,N,['d'],N,,,,,,,f,23,
45,3,498,1,1,10,['d'],['k'],N,N,['d'],N,,,,,,,f,23,
45,4,499,0,0,10,['k'],['k'],Y,Y,['k'],N,42,20,20,,,,f,23,
45,5,500,5,5,11,['k'],['k'],N,,,,,,,Y,Y,Y,f,23,
45,6,501,2,2,11,['d'],['d'],N,,,,,,,,Y,Y,f,23,
45,7,502,0,0,11,['k'],['k'],N,N,None,Y,,,,,Y,Y,f,23,
45,8,503,3,3,11,['k'],['k'],N,N,['space'],N,,,,,Y,Y,f,23,
45,9,504,7,7,11,['d'],['d'],N,N,['space'],N,,,,,Y,Y,f,23,
45,10,505,2,2,11,['d'],['k'],Y,Y,['d'],N,,,,,Y,Y,f,23,
46,0,506,7,7,11,['d'],['k'],Y,N,['space'],N,,,,,Y,Y,f,23,
46,1,507,5,5,11,['d'],['d'],N,N,None,Y,,,,,Y,Y,f,23,
46,2,508,3,3,11,['d'],['k'],Y,N,None,Y,,,,,Y,Y,f,23,
46,3,509,2,2,11,['k'],['d'],Y,Y,['space'],Y,,,,,Y,Y,f,23,
46,4,510,7,7,11,['k'],['d'],Y,N,['space'],N,,,,,Y,Y,f,23,
46,5,511,10,10,11,['d'],['k'],Y,Y,['space'],Y,,,,,Y,Y,f,23,
46,6,512,3,3,11,['k'],['d'],Y,N,None,Y,,,,,Y,Y,f,23,
46,7,513,5,5,11,['d'],['d'],N,Y,None,N,,,,,Y,Y,f,23,
46,8,514,6,6,11,['k'],['d'],Y,Y,['space'],Y,,,,,Y,Y,f,23,
46,9,515,10,10,11,['d'],['d'],N,Y,None,N,,,,,Y,Y,f,23,
46,10,516,0,0,11,['k'],['d'],Y,N,['space'],N,,,,,Y,Y,f,23,
47,0,517,9,9,11,['d'],['d'],N,Y,None,N,,,,,Y,Y,f,23,
47,1,518,10,10,11,['d'],['k'],Y,N,None,Y,,,,,Y,Y,f,23,
47,2,519,9,9,11,['k'],['d'],Y,Y,['k'],N,,,,,Y,Y,f,23,
47,3,520,8,8,11,['d'],['d'],N,Y,['space'],Y,,,,,Y,Y,f,23,
47,4,521,6,6,11,['d'],['k'],Y,Y,None,N,,,,,Y,Y,f,23,
47,5,522,5,5,11,['k'],['d'],Y,N,['space'],N,,,,,Y,Y,f,23,
47,6,523,10,10,11,['d'],['k'],Y,N,['space'],N,,,,,Y,Y,f,23,
47,7,524,6,6,11,None,,Timed out,N,None,Y,,,,,Y,Y,f,23,
47,8,525,4,4,11,['d'],['k'],Y,N,None,Y,,,,,Y,Y,f,23,
47,9,526,2,2,11,['d'],['d'],N,Y,None,N,,,,,Y,Y,f,23,
47,10,527,1,1,11,['d'],['d'],N,N,None,Y,,,,,Y,Y,f,23,
48,0,528,10,10,11,['d'],['d'],N,N,None,Y,,,,,Y,Y,f,23,
48,1,529,4,4,11,['k'],['d'],Y,N,None,Y,,,,,Y,Y,f,23,
48,2,530,4,4,11,['d'],['k'],Y,N,['space'],N,,,,,Y,Y,f,23,
48,3,531,5,5,11,['d'],['k'],Y,N,None,Y,,,,,Y,Y,f,23,
48,4,532,8,8,11,['d'],['k'],Y,N,None,Y,,,,,Y,Y,f,23,
48,5,533,7,7,11,['k'],['k'],N,N,None,Y,,,,,Y,Y,f,23,
48,6,534,1,1,11,['k'],['d'],Y,Y,['d'],N,,,,,Y,Y,f,23,
48,7,535,6,6,11,['k'],['d'],Y,Y,['space'],Y,,,,,Y,Y,f,23,
48,8,536,8,8,11,['d'],['k'],Y,Y,None,N,,,,,Y,Y,f,23,
48,9,537,9,9,11,['k'],['d'],Y,Y,['space'],Y,,,,,Y,Y,f,23,
48,10,538,1,1,11,['k'],['d'],Y,Y,['space'],Y,,,,,Y,Y,f,23,
49,0,539,0,0,11,['k'],['k'],N,Y,['k'],N,,,,,Y,Y,f,23,
49,1,540,9,9,11,['k'],['d'],Y,N,None,Y,,,,,Y,Y,f,23,
49,2,541,3,3,11,['d'],['k'],Y,Y,['space'],Y,,,,,Y,Y,f,23,
49,3,542,2,2,11,['k'],['k'],N,N,None,Y,,,,,Y,Y,f,23,
49,4,543,3,3,11,['k'],['k'],N,N,['space'],N,,,,,Y,Y,f,23,
49,5,544,6,6,11,['d'],['d'],N,N,['d'],N,,,,,Y,Y,f,23,
49,6,545,0,0,11,['k'],['d'],Y,N,None,Y,,,,,Y,Y,f,23,
49,7,546,1,1,11,['k'],['d'],Y,N,None,Y,,,,,Y,Y,f,23,
49,8,547,2,2,11,['k'],['d'],Y,Y,['k'],N,,,,,Y,Y,f,23,
49,9,548,10,10,11,['d'],['k'],Y,N,['space'],N,,,,,Y,Y,f,23,
49,10,549,9,9,11,['k'],['k'],N,Y,None,N,30,25,20,,Y,Y,f,23,
50,0,550,0,0,12,['k'],['k'],N,,,,,,,,Y,Y,f,23,
50,1,551,10,10,12,['d'],['k'],Y,,,,,,,,Y,Y,f,23,
50,2,552,0,0,12,['d'],['k'],Y,N,['space'],N,,,,,Y,Y,f,23,
50,3,553,6,6,12,['k'],['d'],Y,N,None,Y,,,,,Y,Y,f,23,
50,4,554,9,9,12,['d'],['d'],N,N,None,Y,,,,,Y,Y,f,23,
50,5,555,0,0,12,['k'],['k'],N,Y,['d'],N,,,,,Y,Y,f,23,
50,6,556,8,8,12,['d'],['d'],N,Y,None,N,,,,,Y,Y,f,23,
50,7,557,4,4,12,['k'],['d'],Y,N,['d'],N,,,,,Y,Y,f,23,
50,8,558,5,5,12,['k'],['k'],N,Y,['k'],N,,,,,Y,Y,f,23,
50,9,559,5,5,12,['k'],['k'],N,N,['k'],N,,,,,Y,Y,f,23,
50,10,560,1,1,12,['k'],['d'],Y,Y,['k'],N,,,,,Y,Y,f,23,
51,0,561,10,10,12,['k'],['k'],N,N,['k'],N,,,,,Y,Y,f,23,
51,1,562,5,5,12,['k'],['d'],Y,Y,['space'],Y,,,,,Y,Y,f,23,
51,2,563,9,9,12,['k'],['d'],Y,N,None,Y,,,,,Y,Y,f,23,
51,3,564,0,0,12,['k'],['d'],Y,Y,['k'],N,,,,,Y,Y,f,23,
51,4,565,0,0,12,['d'],['k'],Y,Y,['space'],Y,,,,,Y,Y,f,23,
51,5,566,2,2,12,['d'],['k'],Y,Y,['space'],Y,,,,,Y,Y,f,23,
51,6,567,6,6,12,['d'],['k'],Y,Y,['space'],Y,,,,,Y,Y,f,23,
51,7,568,2,2,12,['k'],['d'],Y,Y,['space'],Y,,,,,Y,Y,f,23,
51,8,569,4,4,12,['d'],['k'],Y,Y,['space'],Y,,,,,Y,Y,f,23,
51,9,570,8,8,12,['k'],['k'],N,N,None,Y,,,,,Y,Y,f,23,
51,10,571,10,10,12,['d'],['d'],N,Y,['space'],Y,,,,,Y,Y,f,23,
52,0,572,2,2,12,['k'],['d'],Y,Y,['k'],N,,,,,Y,Y,f,23,
52,1,573,6,6,12,['d'],['k'],Y,Y,['space'],Y,,,,,Y,Y,f,23,
52,2,574,0,0,12,['k'],['d'],Y,Y,None,N,,,,,Y,Y,f,23,
52,3,575,4,4,12,['k'],['d'],Y,Y,None,N,,,,,Y,Y,f,23,
52,4,576,4,4,12,['d'],['k'],Y,Y,None,N,,,,,Y,Y,f,23,
52,5,577,10,10,12,['d'],['k'],Y,N,['k'],N,,,,,Y,Y,f,23,
52,6,578,5,5,12,['k'],['d'],Y,Y,['k'],N,,,,,Y,Y,f,23,
52,7,579,0,0,12,['d'],['d'],N,Y,['space'],Y,,,,,Y,Y,f,23,
52,8,580,5,5,12,['k'],['d'],Y,N,None,Y,,,,,Y,Y,f,23,
52,9,581,3,3,12,['k'],['d'],Y,N,['d'],N,,,,,Y,Y,f,23,
52,10,582,7,7,12,['d'],['d'],N,Y,None,N,,,,,Y,Y,f,23,
53,0,583,7,7,12,['k'],['k'],N,Y,['k'],N,,,,,Y,Y,f,23,
53,1,584,4,4,12,['d'],['k'],Y,N,['d'],N,,,,,Y,Y,f,23,
53,2,585,1,1,12,['d'],['k'],Y,Y,['space'],Y,,,,,Y,Y,f,23,
53,3,586,0,0,12,['d'],['d'],N,Y,['k'],N,,,,,Y,Y,f,23,
53,4,587,8,8,12,['k'],['d'],Y,N,None,Y,,,,,Y,Y,f,23,
53,5,588,9,9,12,['d'],['k'],Y,Y,['space'],Y,,,,,Y,Y,f,23,
53,6,589,7,7,12,['d'],['k'],Y,Y,['space'],Y,,,,,Y,Y,f,23,
53,7,590,10,10,12,['k'],['k'],N,N,None,Y,,,,,Y,Y,f,23,
53,8,591,7,7,12,['k'],['k'],N,N,None,Y,,,,,Y,Y,f,23,
53,9,592,3,3,12,['d'],['k'],Y,N,None,Y,,,,,Y,Y,f,23,
53,10,593,6,6,12,['d'],['d'],N,N,None,Y,,,,,Y,Y,f,23,
54,0,594,2,2,12,['k'],['d'],Y,N,None,Y,,,,,Y,Y,f,23,
54,1,595,8,8,12,['d'],['d'],N,N,None,Y,,,,,Y,Y,f,23,
54,2,596,4,4,12,['k'],['d'],Y,N,['space'],N,,,,,Y,Y,f,23,
54,3,597,7,7,12,['d'],['k'],Y,N,None,Y,,,,,Y,Y,f,23,
54,4,598,0,0,12,['k'],['d'],Y,N,None,Y,,,,,Y,Y,f,23,
54,5,599,0,0,12,['d'],['k'],Y,N,['k'],N,33,26,25,,Y,Y,f,23,
