.thisRepN,.thisTrialN,.thisN,.thisIndex,.thisTrial,Block Number,Key pressed,Category,Correct?,Int Match?,Int Response,Int Correct?,Line Accuracy,Interference Accuracy,Matching Interferences,New instruction shown?,Buttons switched?,Fast?,gender,age,
0,0,0,7,7,1,['k'],['d'],N,,,,,,,,,,M,20,
0,1,1,2,2,1,['d'],['k'],N,,,,,,,,,,M,20,
0,2,2,0,0,1,['k'],['d'],N,N,None,Y,,,,,,,M,20,
0,3,3,5,5,1,['k'],['d'],N,N,None,Y,,,,,,,M,20,
0,4,4,8,8,1,['d'],['d'],Y,Y,['space'],Y,,,,,,,M,20,
0,5,5,8,8,1,['d'],['d'],Y,Y,['space'],Y,,,,,,,M,20,
0,6,6,2,2,1,['k'],['k'],Y,N,None,Y,,,,,,,M,20,
0,7,7,3,3,1,['k'],['k'],Y,N,None,Y,,,,,,,M,20,
0,8,8,1,1,1,['k'],['k'],Y,N,None,Y,,,,,,,M,20,
0,9,9,4,4,1,['d'],['d'],Y,N,None,Y,,,,,,,M,20,
0,10,10,3,3,1,['k'],['d'],N,N,['space'],N,,,,,,,M,20,
1,0,11,5,5,1,['k'],['d'],N,N,None,Y,,,,,,,M,20,
1,1,12,5,5,1,['k'],['k'],Y,Y,['space'],Y,,,,,,,M,20,
1,2,13,3,3,1,['k'],['k'],Y,Y,None,N,,,,,,,M,20,
1,3,14,6,6,1,['k'],['k'],Y,N,None,Y,,,,,,,M,20,
1,4,15,5,5,1,['d'],['d'],Y,N,['space'],N,,,,,,,M,20,
1,5,16,0,0,1,['k'],['k'],Y,N,None,Y,,,,,,,M,20,
1,6,17,7,7,1,['k'],['k'],Y,N,None,Y,,,,,,,M,20,
1,7,18,0,0,1,['d'],['d'],Y,Y,None,N,,,,,,,M,20,
1,8,19,5,5,1,['k'],['k'],Y,Y,None,N,,,,,,,M,20,
1,9,20,2,2,1,['k'],['k'],Y,Y,None,N,,,,,,,M,20,
1,10,21,5,5,1,['k'],['k'],Y,N,None,Y,,,,,,,M,20,
2,0,22,0,0,1,['d'],['d'],Y,N,None,Y,,,,,,,M,20,
2,1,23,6,6,1,['k'],['d'],N,Y,None,N,,,,,,,M,20,
2,2,24,6,6,1,['k'],['d'],N,N,None,Y,,,,,,,M,20,
2,3,25,8,8,1,['k'],['k'],Y,N,None,Y,,,,,,,M,20,
2,4,26,6,6,1,['d'],['k'],N,N,None,Y,,,,,,,M,20,
2,5,27,2,2,1,['k'],['k'],Y,Y,None,N,,,,,,,M,20,
2,6,28,1,1,1,['d'],['d'],Y,Y,['k'],N,,,,,,,M,20,
2,7,29,7,7,1,['d'],['d'],Y,N,None,Y,,,,,,,M,20,
2,8,30,4,4,1,['k'],['k'],Y,Y,None,N,,,,,,,M,20,
2,9,31,3,3,1,['d'],['d'],Y,N,None,Y,,,,,,,M,20,
2,10,32,10,10,1,['k'],['k'],Y,Y,['space'],Y,,,,,,,M,20,
3,0,33,2,2,1,['d'],['d'],Y,Y,None,N,,,,,,,M,20,
3,1,34,7,7,1,['d'],['d'],Y,Y,None,N,,,,,,,M,20,
3,2,35,3,3,1,['k'],['k'],Y,N,None,Y,,,,,,,M,20,
3,3,36,6,6,1,['k'],['k'],Y,Y,['space'],Y,,,,,,,M,20,
3,4,37,4,4,1,['k'],['k'],Y,N,None,Y,,,,,,,M,20,
3,5,38,3,3,1,['d'],['d'],Y,Y,['space'],Y,,,,,,,M,20,
3,6,39,8,8,1,['k'],['k'],Y,Y,['space'],Y,,,,,,,M,20,
3,7,40,1,1,1,['k'],['k'],Y,Y,['space'],Y,,,,,,,M,20,
3,8,41,8,8,1,['k'],['d'],N,Y,['space'],Y,,,,,,,M,20,
3,9,42,5,5,1,['d'],['d'],Y,Y,['space'],Y,,,,,,,M,20,
3,10,43,2,2,1,['k'],['k'],Y,N,None,Y,,,,,,,M,20,
4,0,44,0,0,1,['k'],['k'],Y,N,None,Y,,,,,,,M,20,
4,1,45,9,9,1,['k'],['k'],Y,Y,['space'],Y,,,,,,,M,20,
4,2,46,5,5,1,['k'],['k'],Y,Y,['space'],Y,,,,,,,M,20,
4,3,47,2,2,1,['k'],['d'],N,N,None,Y,,,,,,,M,20,
4,4,48,9,9,1,['d'],['d'],Y,N,None,Y,,,,,,,M,20,
4,5,49,3,3,1,['d'],['d'],Y,N,None,Y,39,36,22,,,,M,20,
4,6,50,1,1,2,['d'],['d'],Y,,,,,,,,,,M,20,
4,7,51,7,7,2,['k'],['d'],N,,,,,,,,,,M,20,
4,8,52,1,1,2,['d'],['d'],Y,Y,['space'],Y,,,,,,,M,20,
4,9,53,2,2,2,['k'],['k'],Y,Y,None,N,,,,,,,M,20,
4,10,54,2,2,2,['k'],['k'],Y,Y,['space'],Y,,,,,,,M,20,
5,0,55,1,1,2,['k'],['k'],Y,Y,['space'],Y,,,,,,,M,20,
5,1,56,5,5,2,['k'],['k'],Y,N,None,Y,,,,,,,M,20,
5,2,57,6,6,2,['d'],['d'],Y,Y,None,N,,,,,,,M,20,
5,3,58,7,7,2,['k'],['k'],Y,N,None,Y,,,,,,,M,20,
5,4,59,3,3,2,['k'],['k'],Y,Y,None,N,,,,,,,M,20,
5,5,60,5,5,2,['k'],['k'],Y,N,None,Y,,,,,,,M,20,
5,6,61,8,8,2,['d'],['d'],Y,N,None,Y,,,,,,,M,20,
5,7,62,0,0,2,['d'],['d'],Y,Y,None,N,,,,,,,M,20,
5,8,63,10,10,2,['d'],['k'],N,N,None,Y,,,,,,,M,20,
5,9,64,1,1,2,['k'],['d'],N,Y,None,N,,,,,,,M,20,
5,10,65,10,10,2,['d'],['d'],Y,Y,None,N,,,,,,,M,20,
6,0,66,8,8,2,['k'],['k'],Y,Y,None,N,,,,,,,M,20,
6,1,67,7,7,2,['k'],['k'],Y,N,None,Y,,,,,,,M,20,
6,2,68,9,9,2,['k'],['k'],Y,N,None,Y,,,,,,,M,20,
6,3,69,1,1,2,['d'],['d'],Y,N,None,Y,,,,,,,M,20,
6,4,70,3,3,2,['d'],['d'],Y,N,None,Y,,,,,,,M,20,
6,5,71,6,6,2,['d'],['d'],Y,N,None,Y,,,,,,,M,20,
6,6,72,8,8,2,['k'],['k'],Y,Y,['space'],Y,,,,,,,M,20,
6,7,73,9,9,2,['k'],['d'],N,N,None,Y,,,,,,,M,20,
6,8,74,0,0,2,['k'],['k'],Y,N,None,Y,,,,,,,M,20,
6,9,75,4,4,2,['k'],['k'],Y,Y,['space'],Y,,,,,,,M,20,
6,10,76,5,5,2,['k'],['k'],Y,N,None,Y,,,,,,,M,20,
7,0,77,0,0,2,['d'],['k'],N,Y,None,N,,,,,,,M,20,
7,1,78,8,8,2,['k'],['k'],Y,Y,['space'],Y,,,,,,,M,20,
7,2,79,5,5,2,['d'],['d'],Y,Y,['space'],Y,,,,,,,M,20,
7,3,80,3,3,2,['d'],['d'],Y,Y,['space'],Y,,,,,,,M,20,
7,4,81,1,1,2,['d'],['d'],Y,N,None,Y,,,,,,,M,20,
7,5,82,9,9,2,['k'],['d'],N,N,None,Y,,,,,,,M,20,
7,6,83,9,9,2,['d'],['k'],N,N,None,Y,,,,,,,M,20,
7,7,84,10,10,2,['d'],['k'],N,Y,['space'],Y,,,,,,,M,20,
7,8,85,1,1,2,['k'],['k'],Y,N,None,Y,,,,,,,M,20,
7,9,86,10,10,2,['d'],['d'],Y,Y,['space'],Y,,,,,,,M,20,
7,10,87,1,1,2,['k'],['k'],Y,N,None,Y,,,,,,,M,20,
8,0,88,4,4,2,['k'],['k'],Y,Y,['space'],Y,,,,,,,M,20,
8,1,89,9,9,2,['k'],['k'],Y,Y,['space'],Y,,,,,,,M,20,
8,2,90,10,10,2,['k'],['k'],Y,N,None,Y,,,,,,,M,20,
8,3,91,9,9,2,['d'],['d'],Y,N,None,Y,,,,,,,M,20,
8,4,92,5,5,2,['k'],['k'],Y,N,None,Y,,,,,,,M,20,
8,5,93,10,10,2,['d'],['d'],Y,Y,['space'],Y,,,,,,,M,20,
8,6,94,10,10,2,['k'],['k'],Y,N,None,Y,,,,,,,M,20,
8,7,95,10,10,2,['d'],['d'],Y,N,None,Y,,,,,,,M,20,
8,8,96,6,6,2,['k'],['k'],Y,Y,['space'],Y,,,,,,,M,20,
8,9,97,3,3,2,['d'],['d'],Y,Y,['space'],Y,,,,,,,M,20,
8,10,98,2,2,2,['d'],['d'],Y,N,None,Y,,,,,,,M,20,
9,0,99,4,4,2,['k'],['k'],Y,N,None,Y,42,40,23,,,,M,20,
9,1,100,2,2,3,['k'],['k'],Y,,,,,,,,,,M,20,
9,2,101,8,8,3,['k'],['d'],N,,,,,,,,,,M,20,
9,3,102,2,2,3,['d'],['d'],Y,Y,['space'],Y,,,,,,,M,20,
9,4,103,7,7,3,['d'],['d'],Y,N,None,Y,,,,,,,M,20,
9,5,104,7,7,3,['k'],['k'],Y,N,None,Y,,,,,,,M,20,
9,6,105,2,2,3,['k'],['k'],Y,N,None,Y,,,,,,,M,20,
9,7,106,6,6,3,['d'],['d'],Y,N,None,Y,,,,,,,M,20,
9,8,107,8,8,3,['k'],['k'],Y,N,None,Y,,,,,,,M,20,
9,9,108,7,7,3,['d'],['d'],Y,N,None,Y,,,,,,,M,20,
9,10,109,1,1,3,['k'],['k'],Y,Y,['space'],Y,,,,,,,M,20,
10,0,110,6,6,3,['d'],['d'],Y,N,None,Y,,,,,,,M,20,
10,1,111,7,7,3,['k'],['k'],Y,N,None,Y,,,,,,,M,20,
10,2,112,0,0,3,['k'],['k'],Y,Y,['space'],Y,,,,,,,M,20,
10,3,113,4,4,3,['k'],['d'],N,N,None,Y,,,,,,,M,20,
10,4,114,2,2,3,['k'],['k'],Y,Y,None,N,,,,,,,M,20,
10,5,115,9,9,3,['k'],['k'],Y,Y,['space'],Y,,,,,,,M,20,
10,6,116,2,2,3,['d'],['d'],Y,N,None,Y,,,,,,,M,20,
10,7,117,10,10,3,['d'],['d'],Y,N,None,Y,,,,,,,M,20,
10,8,118,5,5,3,['d'],['d'],Y,N,None,Y,,,,,,,M,20,
10,9,119,9,9,3,['k'],['k'],Y,N,None,Y,,,,,,,M,20,
10,10,120,10,10,3,['k'],['k'],Y,N,None,Y,,,,,,,M,20,
11,0,121,4,4,3,['k'],['k'],Y,N,None,Y,,,,,,,M,20,
11,1,122,5,5,3,['d'],['d'],Y,N,None,Y,,,,,,,M,20,
11,2,123,0,0,3,['k'],['k'],Y,Y,['space'],Y,,,,,,,M,20,
11,3,124,7,7,3,['k'],['k'],Y,N,None,Y,,,,,,,M,20,
11,4,125,3,3,3,['d'],['d'],Y,Y,['space'],Y,,,,,,,M,20,
11,5,126,7,7,3,['k'],['k'],Y,Y,['space'],Y,,,,,,,M,20,
11,6,127,7,7,3,['k'],['k'],Y,N,None,Y,,,,,,,M,20,
11,7,128,8,8,3,['d'],['d'],Y,Y,['space'],Y,,,,,,,M,20,
11,8,129,4,4,3,['k'],['d'],N,N,None,Y,,,,,,,M,20,
11,9,130,1,1,3,['d'],['d'],Y,N,None,Y,,,,,,,M,20,
11,10,131,9,9,3,['d'],['d'],Y,Y,None,N,,,,,,,M,20,
12,0,132,8,8,3,['k'],['k'],Y,N,None,Y,,,,,,,M,20,
12,1,133,4,4,3,['k'],['k'],Y,Y,['space'],Y,,,,,,,M,20,
12,2,134,6,6,3,['k'],['k'],Y,Y,['space'],Y,,,,,,,M,20,
12,3,135,3,3,3,['k'],['d'],N,Y,['space'],Y,,,,,,,M,20,
12,4,136,10,10,3,['k'],['k'],Y,N,None,Y,,,,,,,M,20,
12,5,137,9,9,3,['d'],['d'],Y,Y,['k'],N,,,,,,,M,20,
12,6,138,7,7,3,['k'],['k'],Y,Y,None,N,,,,,,,M,20,
12,7,139,6,6,3,['d'],['d'],Y,Y,['space'],Y,,,,,,,M,20,
12,8,140,3,3,3,['d'],['d'],Y,Y,['space'],Y,,,,,,,M,20,
12,9,141,3,3,3,['k'],['k'],Y,Y,['space'],Y,,,,,,,M,20,
12,10,142,2,2,3,['d'],['d'],Y,Y,['space'],Y,,,,,,,M,20,
13,0,143,0,0,3,['d'],['k'],N,Y,['space'],Y,,,,,,,M,20,
13,1,144,10,10,3,['k'],['k'],Y,Y,['space'],Y,,,,,,,M,20,
13,2,145,9,9,3,['d'],['d'],Y,N,None,Y,,,,,,,M,20,
13,3,146,8,8,3,['d'],['d'],Y,N,None,Y,,,,,,,M,20,
13,4,147,6,6,3,['d'],['d'],Y,N,None,Y,,,,,,,M,20,
13,5,148,3,3,3,['k'],['k'],Y,Y,['space'],Y,,,,,,,M,20,
13,6,149,0,0,3,['k'],['k'],Y,N,None,Y,45,44,22,,,,M,20,
13,7,150,8,8,4,['k'],['k'],Y,,,,,,,,,,M,20,
13,8,151,2,2,4,['d'],['d'],Y,,,,,,,,,,M,20,
13,9,152,5,5,4,['k'],['k'],Y,N,None,Y,,,,,,,M,20,
13,10,153,1,1,4,['d'],['k'],N,N,None,Y,,,,,,,M,20,
14,0,154,9,9,4,['d'],['d'],Y,Y,None,N,,,,,,,M,20,
14,1,155,5,5,4,['d'],['d'],Y,N,None,Y,,,,,,,M,20,
14,2,156,1,1,4,['k'],['k'],Y,Y,['space'],Y,,,,,,,M,20,
14,3,157,4,4,4,['k'],['k'],Y,Y,None,N,,,,,,,M,20,
14,4,158,1,1,4,['k'],['k'],Y,Y,None,N,,,,,,,M,20,
14,5,159,8,8,4,['k'],['d'],N,Y,['space'],Y,,,,,,,M,20,
14,6,160,1,1,4,['k'],['k'],Y,Y,None,N,,,,,,,M,20,
14,7,161,2,2,4,['d'],['d'],Y,Y,['space'],Y,,,,,,,M,20,
14,8,162,6,6,4,['d'],['d'],Y,Y,['space'],Y,,,,,,,M,20,
14,9,163,10,10,4,['k'],['k'],Y,Y,['space'],Y,,,,,,,M,20,
14,10,164,7,7,4,['d'],['d'],Y,N,None,Y,,,,,,,M,20,
15,0,165,6,6,4,['k'],['k'],Y,N,None,Y,,,,,,,M,20,
15,1,166,1,1,4,['k'],['d'],N,N,None,Y,,,,,,,M,20,
15,2,167,4,4,4,['k'],['k'],Y,N,None,Y,,,,,,,M,20,
15,3,168,2,2,4,['k'],['k'],Y,N,None,Y,,,,,,,M,20,
15,4,169,2,2,4,['d'],['d'],Y,Y,None,N,,,,,,,M,20,
15,5,170,5,5,4,['k'],['d'],N,Y,['space'],Y,,,,,,,M,20,
15,6,171,2,2,4,['d'],['d'],Y,N,None,Y,,,,,,,M,20,
15,7,172,2,2,4,['k'],['k'],Y,N,None,Y,,,,,,,M,20,
15,8,173,0,0,4,['k'],['k'],Y,Y,None,N,,,,,,,M,20,
15,9,174,6,6,4,['k'],['k'],Y,Y,['space'],Y,,,,,,,M,20,
15,10,175,10,10,4,['k'],['k'],Y,Y,['space'],Y,,,,,,,M,20,
16,0,176,6,6,4,['k'],['k'],Y,N,None,Y,,,,,,,M,20,
16,1,177,7,7,4,['d'],['d'],Y,N,None,Y,,,,,,,M,20,
16,2,178,9,9,4,['d'],['d'],Y,N,None,Y,,,,,,,M,20,
16,3,179,3,3,4,['k'],['k'],Y,Y,['space'],Y,,,,,,,M,20,
16,4,180,10,10,4,['k'],['k'],Y,Y,['space'],Y,,,,,,,M,20,
16,5,181,7,7,4,['d'],['d'],Y,Y,['space'],Y,,,,,,,M,20,
16,6,182,1,1,4,['k'],['k'],Y,Y,['space'],Y,,,,,,,M,20,
16,7,183,9,9,4,['k'],['d'],N,N,None,Y,,,,,,,M,20,
16,8,184,8,8,4,['k'],['k'],Y,Y,['space'],Y,,,,,,,M,20,
16,9,185,4,4,4,['d'],['d'],Y,Y,['space'],Y,,,,,,,M,20,
16,10,186,4,4,4,['k'],['k'],Y,N,None,Y,,,,,,,M,20,
17,0,187,1,1,4,['d'],['d'],Y,N,None,Y,,,,,,,M,20,
17,1,188,4,4,4,['k'],['k'],Y,N,None,Y,,,,,,,M,20,
17,2,189,2,2,4,['d'],['d'],Y,N,None,Y,,,,,,,M,20,
17,3,190,4,4,4,['k'],['k'],Y,N,None,Y,,,,,,,M,20,
17,4,191,1,1,4,['k'],['k'],Y,N,None,Y,,,,,,,M,20,
17,5,192,1,1,4,['d'],['d'],Y,Y,['space'],Y,,,,,,,M,20,
17,6,193,10,10,4,['d'],['d'],Y,Y,['space'],Y,,,,,,,M,20,
17,7,194,9,9,4,['k'],['d'],N,Y,['space'],Y,,,,,,,M,20,
17,8,195,5,5,4,['d'],['d'],Y,N,None,Y,,,,,,,M,20,
17,9,196,8,8,4,['d'],['k'],N,Y,['space'],Y,,,,,,,M,20,
17,10,197,0,0,4,['k'],['k'],Y,N,None,Y,,,,,,,M,20,
18,0,198,4,4,4,['k'],['k'],Y,Y,['space'],Y,,,,,,,M,20,
18,1,199,1,1,4,['d'],['d'],Y,N,None,Y,43,42,25,,,,M,20,
18,2,200,7,7,5,['k'],['k'],Y,,,,,,,,,,M,20,
18,3,201,6,6,5,['k'],['d'],N,,,,,,,,,,M,20,
18,4,202,8,8,5,['d'],['k'],N,Y,None,N,,,,,,,M,20,
18,5,203,8,8,5,['k'],['k'],Y,N,None,Y,,,,,,,M,20,
18,6,204,10,10,5,['k'],['k'],Y,Y,['space'],Y,,,,,,,M,20,
18,7,205,2,2,5,['k'],['k'],Y,N,None,Y,,,,,,,M,20,
18,8,206,8,8,5,['d'],['d'],Y,N,None,Y,,,,,,,M,20,
18,9,207,2,2,5,['k'],['k'],Y,Y,['space'],Y,,,,,,,M,20,
18,10,208,8,8,5,['k'],['k'],Y,Y,['space'],Y,,,,,,,M,20,
19,0,209,6,6,5,['d'],['d'],Y,Y,['space'],Y,,,,,,,M,20,
19,1,210,1,1,5,['d'],['d'],Y,N,None,Y,,,,,,,M,20,
19,2,211,5,5,5,['d'],['d'],Y,N,None,Y,,,,,,,M,20,
19,3,212,9,9,5,['d'],['d'],Y,Y,['space'],Y,,,,,,,M,20,
19,4,213,3,3,5,['k'],['k'],Y,N,None,Y,,,,,,,M,20,
19,5,214,2,2,5,['k'],['k'],Y,N,None,Y,,,,,,,M,20,
19,6,215,1,1,5,['d'],['d'],Y,Y,['space'],Y,,,,,,,M,20,
19,7,216,4,4,5,['d'],['d'],Y,Y,['space'],Y,,,,,,,M,20,
19,8,217,2,2,5,['k'],['k'],Y,Y,['space'],Y,,,,,,,M,20,
19,9,218,4,4,5,['d'],['d'],Y,Y,['space'],Y,,,,,,,M,20,
19,10,219,2,2,5,['k'],['k'],Y,N,None,Y,,,,,,,M,20,
20,0,220,6,6,5,['k'],['k'],Y,Y,['space'],Y,,,,,,,M,20,
20,1,221,3,3,5,['k'],['k'],Y,Y,['space'],Y,,,,,,,M,20,
20,2,222,6,6,5,['k'],['k'],Y,N,None,Y,,,,,,,M,20,
20,3,223,6,6,5,['k'],['k'],Y,N,None,Y,,,,,,,M,20,
20,4,224,10,10,5,['k'],['k'],Y,N,None,Y,,,,,,,M,20,
20,5,225,4,4,5,['d'],['k'],N,Y,['space'],Y,,,,,,,M,20,
20,6,226,4,4,5,['d'],['d'],Y,N,None,Y,,,,,,,M,20,
20,7,227,5,5,5,['k'],['k'],Y,Y,['space'],Y,,,,,,,M,20,
20,8,228,6,6,5,['k'],['k'],Y,Y,['space'],Y,,,,,,,M,20,
20,9,229,5,5,5,['k'],['k'],Y,N,None,Y,,,,,,,M,20,
20,10,230,1,1,5,['k'],['k'],Y,Y,['space'],Y,,,,,,,M,20,
21,0,231,3,3,5,['d'],['d'],Y,Y,['space'],Y,,,,,,,M,20,
21,1,232,6,6,5,['k'],['d'],N,Y,['space'],Y,,,,,,,M,20,
21,2,233,1,1,5,['d'],['d'],Y,N,None,Y,,,,,,,M,20,
21,3,234,8,8,5,['d'],['d'],Y,N,None,Y,,,,,,,M,20,
21,4,235,0,0,5,['k'],['k'],Y,N,None,Y,,,,,,,M,20,
21,5,236,8,8,5,['k'],['k'],Y,Y,['space'],Y,,,,,,,M,20,
21,6,237,9,9,5,['k'],['d'],N,Y,['space'],Y,,,,,,,M,20,
21,7,238,7,7,5,['k'],['k'],Y,Y,['space'],Y,,,,,,,M,20,
21,8,239,3,3,5,['d'],['d'],Y,N,None,Y,,,,,,,M,20,
21,9,240,6,6,5,['d'],['d'],Y,Y,['space'],Y,,,,,,,M,20,
21,10,241,5,5,5,['d'],['d'],Y,N,None,Y,,,,,,,M,20,
22,0,242,5,5,5,['d'],['d'],Y,N,None,Y,,,,,,,M,20,
22,1,243,9,9,5,['k'],['k'],Y,Y,['space'],Y,,,,,,,M,20,
22,2,244,0,0,5,['k'],['k'],Y,N,None,Y,,,,,,,M,20,
22,3,245,0,0,5,['k'],['k'],Y,Y,['space'],Y,,,,,,,M,20,
22,4,246,0,0,5,['d'],['d'],Y,Y,['space'],Y,,,,,,,M,20,
22,5,247,0,0,5,['d'],['d'],Y,N,None,Y,,,,,,,M,20,
22,6,248,4,4,5,['k'],['d'],N,N,None,Y,,,,,,,M,20,
22,7,249,2,2,5,['k'],['k'],Y,N,None,Y,44,47,25,,,,M,20,
22,8,250,6,6,6,['d'],['d'],Y,,,,,,,,,,M,20,
22,9,251,7,7,6,['d'],['d'],Y,,,,,,,,,,M,20,
22,10,252,7,7,6,['d'],['d'],Y,N,None,Y,,,,,,,M,20,
23,0,253,4,4,6,['k'],['k'],Y,N,None,Y,,,,,,,M,20,
23,1,254,6,6,6,['d'],['d'],Y,N,None,Y,,,,,,,M,20,
23,2,255,1,1,6,['d'],['d'],Y,N,None,Y,,,,,,,M,20,
23,3,256,0,0,6,['d'],['d'],Y,Y,None,N,,,,,,,M,20,
23,4,257,0,0,6,['d'],['d'],Y,N,None,Y,,,,,,,M,20,
23,5,258,5,5,6,['d'],['d'],Y,N,None,Y,,,,,,,M,20,
23,6,259,9,9,6,['k'],['k'],Y,N,None,Y,,,,,,,M,20,
23,7,260,5,5,6,['d'],['d'],Y,N,None,Y,,,,,,,M,20,
23,8,261,10,10,6,['k'],['k'],Y,Y,['space'],Y,,,,,,,M,20,
23,9,262,10,10,6,['d'],['d'],Y,N,None,Y,,,,,,,M,20,
23,10,263,0,0,6,['k'],['k'],Y,Y,['space'],Y,,,,,,,M,20,
24,0,264,6,6,6,['d'],['d'],Y,Y,['space'],Y,,,,,,,M,20,
24,1,265,6,6,6,['d'],['d'],Y,Y,['space'],Y,,,,,,,M,20,
24,2,266,9,9,6,['d'],['d'],Y,Y,['space'],Y,,,,,,,M,20,
24,3,267,4,4,6,['k'],['k'],Y,Y,['space'],Y,,,,,,,M,20,
24,4,268,5,5,6,['d'],['d'],Y,Y,['space'],Y,,,,,,,M,20,
24,5,269,0,0,6,['d'],['d'],Y,Y,['space'],Y,,,,,,,M,20,
24,6,270,10,10,6,['d'],['d'],Y,N,None,Y,,,,,,,M,20,
24,7,271,0,0,6,['k'],['k'],Y,N,None,Y,,,,,,,M,20,
24,8,272,6,6,6,['k'],['k'],Y,Y,['space'],Y,,,,,,,M,20,
24,9,273,2,2,6,['k'],['k'],Y,N,None,Y,,,,,,,M,20,
24,10,274,9,9,6,['k'],['k'],Y,N,None,Y,,,,,,,M,20,
25,0,275,4,4,6,['k'],['k'],Y,Y,['space'],Y,,,,,,,M,20,
25,1,276,10,10,6,['d'],['d'],Y,N,None,Y,,,,,,,M,20,
25,2,277,9,9,6,['d'],['d'],Y,Y,['space'],Y,,,,,,,M,20,
25,3,278,9,9,6,['k'],['k'],Y,Y,['space'],Y,,,,,,,M,20,
25,4,279,3,3,6,['d'],['k'],N,Y,['space'],Y,,,,,,,M,20,
25,5,280,8,8,6,['k'],['k'],Y,Y,['space'],Y,,,,,,,M,20,
25,6,281,10,10,6,['k'],['k'],Y,Y,['space'],Y,,,,,,,M,20,
25,7,282,10,10,6,['k'],['k'],Y,Y,['space'],Y,,,,,,,M,20,
25,8,283,1,1,6,['k'],['k'],Y,Y,None,N,,,,,,,M,20,
25,9,284,3,3,6,['k'],['k'],Y,N,None,Y,,,,,,,M,20,
25,10,285,4,4,6,['d'],['d'],Y,N,None,Y,,,,,,,M,20,
26,0,286,0,0,6,['d'],['d'],Y,Y,['space'],Y,,,,,,,M,20,
26,1,287,7,7,6,['d'],['d'],Y,N,None,Y,,,,,,,M,20,
26,2,288,8,8,6,['k'],['k'],Y,N,None,Y,,,,,,,M,20,
26,3,289,4,4,6,['d'],['k'],N,N,None,Y,,,,,,,M,20,
26,4,290,1,1,6,['d'],['d'],Y,Y,['space'],Y,,,,,,,M,20,
26,5,291,3,3,6,['d'],['d'],Y,N,None,Y,,,,,,,M,20,
26,6,292,6,6,6,['k'],['k'],Y,N,None,Y,,,,,,,M,20,
26,7,293,1,1,6,['k'],['d'],N,N,None,Y,,,,,,,M,20,
26,8,294,3,3,6,['k'],['k'],Y,N,['space'],N,,,,,,,M,20,
26,9,295,4,4,6,['d'],['d'],Y,N,None,Y,,,,,,,M,20,
26,10,296,5,5,6,['k'],['k'],Y,N,None,Y,,,,,,,M,20,
27,0,297,6,6,6,['k'],['k'],Y,Y,None,N,,,,,,,M,20,
27,1,298,0,0,6,['d'],['k'],N,Y,['space'],Y,,,,,,,M,20,
27,2,299,10,10,6,['d'],['d'],Y,Y,['space'],Y,46,44,23,,,,M,20,
27,3,300,5,5,7,['k'],['k'],Y,,,,,,,,,,M,20,
27,4,301,5,5,7,['k'],['d'],N,,,,,,,,,,M,20,
27,5,302,9,9,7,['k'],['d'],N,N,None,Y,,,,,,,M,20,
27,6,303,0,0,7,['k'],['k'],Y,Y,['space'],Y,,,,,,,M,20,
27,7,304,4,4,7,['d'],['k'],N,N,None,Y,,,,,,,M,20,
27,8,305,9,9,7,['d'],['d'],Y,N,None,Y,,,,,,,M,20,
27,9,306,6,6,7,['k'],['d'],N,Y,None,N,,,,,,,M,20,
27,10,307,1,1,7,['d'],['d'],Y,Y,['space'],Y,,,,,,,M,20,
28,0,308,4,4,7,['k'],['k'],Y,N,None,Y,,,,,,,M,20,
28,1,309,2,2,7,['d'],['d'],Y,Y,['space'],Y,,,,,,,M,20,
28,2,310,6,6,7,['k'],['k'],Y,N,None,Y,,,,,,,M,20,
28,3,311,2,2,7,['k'],['k'],Y,Y,['space'],Y,,,,,,,M,20,
28,4,312,0,0,7,['d'],['k'],N,Y,['space'],Y,,,,,,,M,20,
28,5,313,3,3,7,['k'],['k'],Y,N,None,Y,,,,,,,M,20,
28,6,314,6,6,7,['d'],['d'],Y,Y,['space'],Y,,,,,,,M,20,
28,7,315,8,8,7,['k'],['k'],Y,Y,['space'],Y,,,,,,,M,20,
28,8,316,3,3,7,['d'],['d'],Y,N,['space'],N,,,,,,,M,20,
28,9,317,0,0,7,['k'],['k'],Y,Y,None,N,,,,,,,M,20,
28,10,318,9,9,7,['k'],['d'],N,N,None,Y,,,,,,,M,20,
29,0,319,7,7,7,['k'],['k'],Y,N,None,Y,,,,,,,M,20,
29,1,320,8,8,7,['d'],['d'],Y,Y,['space'],Y,,,,,,,M,20,
29,2,321,1,1,7,['d'],['d'],Y,N,None,Y,,,,,,,M,20,
29,3,322,10,10,7,['d'],['d'],Y,Y,['space'],Y,,,,,,,M,20,
29,4,323,4,4,7,['d'],['d'],Y,Y,['space'],Y,,,,,,,M,20,
29,5,324,10,10,7,['k'],['k'],Y,N,None,Y,,,,,,,M,20,
29,6,325,5,5,7,['d'],['d'],Y,N,None,Y,,,,,,,M,20,
29,7,326,9,9,7,['k'],['k'],Y,Y,['space'],Y,,,,,,,M,20,
29,8,327,2,2,7,['k'],['k'],Y,Y,['space'],Y,,,,,,,M,20,
29,9,328,8,8,7,['d'],['d'],Y,Y,['space'],Y,,,,,,,M,20,
29,10,329,5,5,7,['d'],['d'],Y,N,None,Y,,,,,,,M,20,
30,0,330,9,9,7,['k'],['k'],Y,Y,['space'],Y,,,,,,,M,20,
30,1,331,6,6,7,['d'],['d'],Y,N,None,Y,,,,,,,M,20,
30,2,332,4,4,7,['d'],['d'],Y,Y,['space'],Y,,,,,,,M,20,
30,3,333,2,2,7,['k'],['d'],N,Y,['space'],Y,,,,,,,M,20,
30,4,334,3,3,7,['d'],['d'],Y,Y,['space'],Y,,,,,,,M,20,
30,5,335,10,10,7,['d'],['k'],N,N,None,Y,,,,,,,M,20,
30,6,336,4,4,7,['d'],['d'],Y,N,None,Y,,,,,,,M,20,
30,7,337,5,5,7,['k'],['d'],N,Y,None,N,,,,,,,M,20,
30,8,338,9,9,7,['k'],['k'],Y,Y,['space'],Y,,,,,,,M,20,
30,9,339,5,5,7,['k'],['k'],Y,N,None,Y,,,,,,,M,20,
30,10,340,7,7,7,['d'],['d'],Y,N,None,Y,,,,,,,M,20,
31,0,341,0,0,7,['k'],['k'],Y,N,None,Y,,,,,,,M,20,
31,1,342,8,8,7,['k'],['d'],N,N,None,Y,,,,,,,M,20,
31,2,343,0,0,7,['k'],['k'],Y,N,None,Y,,,,,,,M,20,
31,3,344,5,5,7,['d'],['d'],Y,N,None,Y,,,,,,,M,20,
31,4,345,4,4,7,['k'],['k'],Y,Y,None,N,,,,,,,M,20,
31,5,346,1,1,7,['k'],['d'],N,Y,None,N,,,,,,,M,20,
31,6,347,9,9,7,['d'],['d'],Y,Y,['space'],Y,,,,,,,M,20,
31,7,348,0,0,7,['d'],['d'],Y,Y,['space'],Y,,,,,,,M,20,
31,8,349,5,5,7,['k'],['k'],Y,N,None,Y,39,42,25,,,,M,20,
31,9,350,10,10,8,['k'],['k'],Y,,,,,,,,,,M,20,
31,10,351,1,1,8,['d'],['d'],Y,,,,,,,,,,M,20,
32,0,352,7,7,8,['k'],['d'],N,Y,None,N,,,,,,,M,20,
32,1,353,8,8,8,['k'],['k'],Y,N,None,Y,,,,,,,M,20,
32,2,354,7,7,8,['d'],['d'],Y,Y,['space'],Y,,,,,,,M,20,
32,3,355,4,4,8,['d'],['d'],Y,Y,['space'],Y,,,,,,,M,20,
32,4,356,6,6,8,['d'],['d'],Y,N,None,Y,,,,,,,M,20,
32,5,357,10,10,8,['d'],['d'],Y,Y,['space'],Y,,,,,,,M,20,
32,6,358,3,3,8,['k'],['k'],Y,N,None,Y,,,,,,,M,20,
32,7,359,2,2,8,['k'],['k'],Y,Y,['space'],Y,,,,,,,M,20,
32,8,360,9,9,8,['d'],['d'],Y,N,None,Y,,,,,,,M,20,
32,9,361,9,9,8,['k'],['k'],Y,Y,['d'],N,,,,,,,M,20,
32,10,362,7,7,8,['k'],['k'],Y,Y,None,N,,,,,,,M,20,
33,0,363,9,9,8,['d'],['d'],Y,N,['space'],N,,,,,,,M,20,
33,1,364,3,3,8,['k'],['k'],Y,N,None,Y,,,,,,,M,20,
33,2,365,9,9,8,['k'],['k'],Y,Y,['space'],Y,,,,,,,M,20,
33,3,366,9,9,8,['k'],['d'],N,Y,['space'],Y,,,,,,,M,20,
33,4,367,6,6,8,['k'],['k'],Y,N,None,Y,,,,,,,M,20,
33,5,368,3,3,8,['k'],['d'],N,Y,['space'],Y,,,,,,,M,20,
33,6,369,2,2,8,['d'],['d'],Y,N,None,Y,,,,,,,M,20,
33,7,370,5,5,8,['k'],['k'],Y,N,None,Y,,,,,,,M,20,
33,8,371,10,10,8,['d'],['d'],Y,Y,['space'],Y,,,,,,,M,20,
33,9,372,8,8,8,['d'],['d'],Y,N,None,Y,,,,,,,M,20,
33,10,373,3,3,8,['k'],['k'],Y,Y,['space'],Y,,,,,,,M,20,
34,0,374,0,0,8,['k'],['k'],Y,Y,['space'],Y,,,,,,,M,20,
34,1,375,9,9,8,['k'],['k'],Y,Y,['space'],Y,,,,,,,M,20,
34,2,376,9,9,8,['d'],['d'],Y,Y,['space'],Y,,,,,,,M,20,
34,3,377,6,6,8,['k'],['k'],Y,N,None,Y,,,,,,,M,20,
34,4,378,7,7,8,['k'],['k'],Y,N,None,Y,,,,,,,M,20,
34,5,379,10,10,8,['d'],['d'],Y,N,None,Y,,,,,,,M,20,
34,6,380,4,4,8,['k'],['k'],Y,Y,['space'],Y,,,,,,,M,20,
34,7,381,4,4,8,['d'],['d'],Y,Y,['space'],Y,,,,,,,M,20,
34,8,382,2,2,8,['d'],['d'],Y,Y,['space'],Y,,,,,,,M,20,
34,9,383,1,1,8,['d'],['d'],Y,Y,['space'],Y,,,,,,,M,20,
34,10,384,4,4,8,['d'],['d'],Y,N,None,Y,,,,,,,M,20,
35,0,385,2,2,8,['d'],['d'],Y,N,None,Y,,,,,,,M,20,
35,1,386,4,4,8,['k'],['k'],Y,N,None,Y,,,,,,,M,20,
35,2,387,3,3,8,['d'],['d'],Y,N,None,Y,,,,,,,M,20,
35,3,388,1,1,8,['k'],['k'],Y,Y,['space'],Y,,,,,,,M,20,
35,4,389,7,7,8,['d'],['k'],N,N,None,Y,,,,,,,M,20,
35,5,390,4,4,8,['d'],['d'],Y,N,None,Y,,,,,,,M,20,
35,6,391,1,1,8,['d'],['d'],Y,N,None,Y,,,,,,,M,20,
35,7,392,0,0,8,['k'],['k'],Y,N,None,Y,,,,,,,M,20,
35,8,393,7,7,8,['k'],['k'],Y,Y,['space'],Y,,,,,,,M,20,
35,9,394,8,8,8,['k'],['k'],Y,N,None,Y,,,,,,,M,20,
35,10,395,0,0,8,['d'],['k'],N,N,None,Y,,,,,,,M,20,
36,0,396,0,0,8,['k'],['k'],Y,N,None,Y,,,,,,,M,20,
36,1,397,8,8,8,['d'],['d'],Y,Y,['space'],Y,,,,,,,M,20,
36,2,398,3,3,8,['k'],['k'],Y,Y,['space'],Y,,,,,,,M,20,
36,3,399,9,9,8,['d'],['k'],N,Y,['space'],Y,44,44,24,,,,M,20,
36,4,400,2,2,9,['k'],['k'],Y,,,,,,,,,,M,20,
36,5,401,9,9,9,['k'],['k'],Y,,,,,,,,,,M,20,
36,6,402,9,9,9,['k'],['k'],Y,N,None,Y,,,,,,,M,20,
36,7,403,6,6,9,['k'],['k'],Y,N,None,Y,,,,,,,M,20,
36,8,404,8,8,9,['d'],['d'],Y,N,None,Y,,,,,,,M,20,
36,9,405,7,7,9,['k'],['k'],Y,Y,['space'],Y,,,,,,,M,20,
36,10,406,0,0,9,['d'],['d'],Y,Y,None,N,,,,,,,M,20,
37,0,407,0,0,9,['k'],['k'],Y,N,None,Y,,,,,,,M,20,
37,1,408,6,6,9,['k'],['k'],Y,Y,['space'],Y,,,,,,,M,20,
37,2,409,7,7,9,['k'],['k'],Y,N,None,Y,,,,,,,M,20,
37,3,410,10,10,9,['k'],['k'],Y,N,None,Y,,,,,,,M,20,
37,4,411,10,10,9,['d'],['k'],N,N,None,Y,,,,,,,M,20,
37,5,412,2,2,9,['d'],['d'],Y,N,None,Y,,,,,,,M,20,
37,6,413,5,5,9,['d'],['d'],Y,N,None,Y,,,,,,,M,20,
37,7,414,10,10,9,['d'],['d'],Y,N,None,Y,,,,,,,M,20,
37,8,415,1,1,9,['d'],['d'],Y,Y,['space'],Y,,,,,,,M,20,
37,9,416,0,0,9,['k'],['d'],N,N,None,Y,,,,,,,M,20,
37,10,417,3,3,9,['k'],['k'],Y,N,None,Y,,,,,,,M,20,
38,0,418,0,0,9,['k'],['k'],Y,Y,['space'],Y,,,,,,,M,20,
38,1,419,4,4,9,['d'],['d'],Y,N,None,Y,,,,,,,M,20,
38,2,420,9,9,9,['d'],['d'],Y,Y,['space'],Y,,,,,,,M,20,
38,3,421,2,2,9,['k'],['k'],Y,N,None,Y,,,,,,,M,20,
38,4,422,1,1,9,['k'],['k'],Y,N,None,Y,,,,,,,M,20,
38,5,423,2,2,9,['k'],['k'],Y,Y,None,N,,,,,,,M,20,
38,6,424,7,7,9,['d'],['k'],N,Y,['space'],Y,,,,,,,M,20,
38,7,425,9,9,9,['k'],['k'],Y,N,None,Y,,,,,,,M,20,
38,8,426,7,7,9,['k'],['k'],Y,Y,['space'],Y,,,,,,,M,20,
38,9,427,3,3,9,['d'],['d'],Y,Y,['space'],Y,,,,,,,M,20,
38,10,428,8,8,9,['d'],['d'],Y,N,None,Y,,,,,,,M,20,
39,0,429,3,3,9,['d'],['d'],Y,Y,['space'],Y,,,,,,,M,20,
39,1,430,5,5,9,['d'],['k'],N,N,None,Y,,,,,,,M,20,
39,2,431,8,8,9,['d'],['d'],Y,Y,['space'],Y,,,,,,,M,20,
39,3,432,10,10,9,['d'],['d'],Y,N,None,Y,,,,,,,M,20,
39,4,433,2,2,9,['k'],['k'],Y,Y,None,N,,,,,,,M,20,
39,5,434,6,6,9,['d'],['k'],N,N,None,Y,,,,,,,M,20,
39,6,435,2,2,9,['d'],['d'],Y,Y,['space'],Y,,,,,,,M,20,
39,7,436,4,4,9,['k'],['k'],Y,N,None,Y,,,,,,,M,20,
39,8,437,10,10,9,['d'],['d'],Y,Y,['space'],Y,,,,,,,M,20,
39,9,438,1,1,9,['k'],['d'],N,N,None,Y,,,,,,,M,20,
39,10,439,7,7,9,['k'],['k'],Y,Y,None,N,,,,,,,M,20,
40,0,440,7,7,9,['d'],['d'],Y,Y,None,N,,,,,,,M,20,
40,1,441,8,8,9,['k'],['k'],Y,Y,['space'],Y,,,,,,,M,20,
40,2,442,0,0,9,['d'],['d'],Y,N,None,Y,,,,,,,M,20,
40,3,443,3,3,9,['k'],['k'],Y,Y,None,N,,,,,,,M,20,
40,4,444,3,3,9,['d'],['d'],Y,Y,['space'],Y,,,,,,,M,20,
40,5,445,2,2,9,['k'],['d'],N,Y,['space'],Y,,,,,,,M,20,
40,6,446,6,6,9,['d'],['d'],Y,N,None,Y,,,,,,,M,20,
40,7,447,2,2,9,['d'],['d'],Y,Y,['space'],Y,,,,,,,M,20,
40,8,448,6,6,9,['d'],['d'],Y,N,None,Y,,,,,,,M,20,
40,9,449,8,8,9,['d'],['d'],Y,N,None,Y,43,42,22,,,,M,20,
40,10,450,8,8,10,['k'],['k'],Y,,,,,,,,,,M,20,
41,0,451,4,4,10,['d'],['d'],Y,,,,,,,,,,M,20,
41,1,452,1,1,10,['k'],['d'],N,Y,['space'],Y,,,,,,,M,20,
41,2,453,10,10,10,['k'],['k'],Y,N,None,Y,,,,,,,M,20,
41,3,454,0,0,10,['k'],['k'],Y,Y,['space'],Y,,,,,,,M,20,
41,4,455,8,8,10,['d'],['d'],Y,N,None,Y,,,,,,,M,20,
41,5,456,10,10,10,['d'],['d'],Y,Y,['space'],Y,,,,,,,M,20,
41,6,457,1,1,10,['k'],['d'],N,Y,['d'],N,,,,,,,M,20,
41,7,458,3,3,10,['k'],['k'],Y,N,None,Y,,,,,,,M,20,
41,8,459,1,1,10,['k'],['d'],N,N,None,Y,,,,,,,M,20,
41,9,460,8,8,10,['k'],['k'],Y,Y,['space'],Y,,,,,,,M,20,
41,10,461,3,3,10,['k'],['k'],Y,N,None,Y,,,,,,,M,20,
42,0,462,7,7,10,['k'],['k'],Y,N,None,Y,,,,,,,M,20,
42,1,463,7,7,10,['d'],['d'],Y,Y,['space'],Y,,,,,,,M,20,
42,2,464,1,1,10,['d'],['d'],Y,N,None,Y,,,,,,,M,20,
42,3,465,5,5,10,['d'],['d'],Y,Y,['space'],Y,,,,,,,M,20,
42,4,466,10,10,10,['d'],['d'],Y,N,None,Y,,,,,,,M,20,
42,5,467,6,6,10,['k'],['k'],Y,Y,['space'],Y,,,,,,,M,20,
42,6,468,4,4,10,['d'],['d'],Y,N,None,Y,,,,,,,M,20,
42,7,469,9,9,10,['k'],['k'],Y,N,None,Y,,,,,,,M,20,
42,8,470,1,1,10,['k'],['k'],Y,N,None,Y,,,,,,,M,20,
42,9,471,2,2,10,['k'],['k'],Y,Y,['space'],Y,,,,,,,M,20,
42,10,472,7,7,10,['k'],['k'],Y,Y,['space'],Y,,,,,,,M,20,
43,0,473,8,8,10,['d'],['d'],Y,Y,['space'],Y,,,,,,,M,20,
43,1,474,7,7,10,['d'],['d'],Y,Y,['space'],Y,,,,,,,M,20,
43,2,475,1,1,10,['d'],['d'],Y,N,None,Y,,,,,,,M,20,
43,3,476,0,0,10,['k'],['d'],N,N,None,Y,,,,,,,M,20,
43,4,477,2,2,10,['d'],['d'],Y,Y,['space'],Y,,,,,,,M,20,
43,5,478,6,6,10,['d'],['k'],N,Y,['space'],Y,,,,,,,M,20,
43,6,479,1,1,10,['d'],['d'],Y,N,None,Y,,,,,,,M,20,
43,7,480,3,3,10,['d'],['k'],N,Y,['space'],Y,,,,,,,M,20,
43,8,481,7,7,10,['d'],['d'],Y,N,None,Y,,,,,,,M,20,
43,9,482,4,4,10,['d'],['d'],Y,Y,None,N,,,,,,,M,20,
43,10,483,5,5,10,['k'],['k'],Y,Y,['space'],Y,,,,,,,M,20,
44,0,484,10,10,10,['k'],['k'],Y,N,None,Y,,,,,,,M,20,
44,1,485,8,8,10,['d'],['d'],Y,Y,['space'],Y,,,,,,,M,20,
44,2,486,4,4,10,['d'],['k'],N,Y,['space'],Y,,,,,,,M,20,
44,3,487,9,9,10,['k'],['k'],Y,Y,['space'],Y,,,,,,,M,20,
44,4,488,1,1,10,['d'],['d'],Y,Y,['space'],Y,,,,,,,M,20,
44,5,489,3,3,10,['k'],['k'],Y,Y,['space'],Y,,,,,,,M,20,
44,6,490,1,1,10,['d'],['d'],Y,N,None,Y,,,,,,,M,20,
44,7,491,10,10,10,['k'],['k'],Y,Y,None,N,,,,,,,M,20,
44,8,492,5,5,10,['k'],['k'],Y,N,None,Y,,,,,,,M,20,
44,9,493,10,10,10,['k'],['k'],Y,N,None,Y,,,,,,,M,20,
44,10,494,4,4,10,['d'],['d'],Y,Y,['space'],Y,,,,,,,M,20,
45,0,495,2,2,10,['k'],['k'],Y,N,None,Y,,,,,,,M,20,
45,1,496,4,4,10,['d'],['d'],Y,Y,['space'],Y,,,,,,,M,20,
45,2,497,4,4,10,['k'],['d'],N,N,None,Y,,,,,,,M,20,
45,3,498,5,5,10,['d'],['d'],Y,N,None,Y,,,,,,,M,20,
45,4,499,7,7,10,['d'],['d'],Y,N,None,Y,42,45,25,,,,M,20,
45,5,500,4,4,11,['d'],['d'],N,,,,,,,Y,Y,Y,M,20,
45,6,501,1,1,11,['k'],['d'],Y,,,,,,,,Y,Y,M,20,
45,7,502,6,6,11,['d'],['d'],N,N,None,Y,,,,,Y,Y,M,20,
45,8,503,2,2,11,['d'],['k'],Y,Y,['space'],Y,,,,,Y,Y,M,20,
45,9,504,5,5,11,['k'],['d'],Y,N,None,Y,,,,,Y,Y,M,20,
45,10,505,9,9,11,['d'],['k'],Y,N,None,Y,,,,,Y,Y,M,20,
46,0,506,5,5,11,['k'],['d'],Y,Y,['space'],Y,,,,,Y,Y,M,20,
46,1,507,3,3,11,['d'],['k'],Y,Y,['space'],Y,,,,,Y,Y,M,20,
46,2,508,8,8,11,['d'],['d'],N,Y,['space'],Y,,,,,Y,Y,M,20,
46,3,509,5,5,11,['d'],['d'],N,N,None,Y,,,,,Y,Y,M,20,
46,4,510,10,10,11,['d'],['k'],Y,N,None,Y,,,,,Y,Y,M,20,
46,5,511,7,7,11,['k'],['k'],N,Y,['space'],Y,,,,,Y,Y,M,20,
46,6,512,8,8,11,['k'],['d'],Y,Y,None,N,,,,,Y,Y,M,20,
46,7,513,0,0,11,['k'],['d'],Y,Y,None,N,,,,,Y,Y,M,20,
46,8,514,3,3,11,['k'],['d'],Y,Y,['space'],Y,,,,,Y,Y,M,20,
46,9,515,1,1,11,['d'],['d'],N,N,None,Y,,,,,Y,Y,M,20,
46,10,516,8,8,11,['d'],['k'],Y,N,None,Y,,,,,Y,Y,M,20,
47,0,517,4,4,11,['k'],['d'],Y,Y,['space'],Y,,,,,Y,Y,M,20,
47,1,518,1,1,11,['d'],['k'],Y,N,None,Y,,,,,Y,Y,M,20,
47,2,519,0,0,11,['d'],['d'],N,N,None,Y,,,,,Y,Y,M,20,
47,3,520,4,4,11,['k'],['d'],Y,N,None,Y,,,,,Y,Y,M,20,
47,4,521,6,6,11,['k'],['d'],Y,Y,['space'],Y,,,,,Y,Y,M,20,
47,5,522,8,8,11,['d'],['d'],N,N,None,Y,,,,,Y,Y,M,20,
47,6,523,0,0,11,['d'],['k'],Y,N,None,Y,,,,,Y,Y,M,20,
47,7,524,5,5,11,['d'],['k'],Y,N,None,Y,,,,,Y,Y,M,20,
47,8,525,2,2,11,['k'],['d'],Y,N,None,Y,,,,,Y,Y,M,20,
47,9,526,4,4,11,['k'],['d'],Y,N,None,Y,,,,,Y,Y,M,20,
47,10,527,5,5,11,['d'],['d'],N,Y,['space'],Y,,,,,Y,Y,M,20,
48,0,528,5,5,11,['d'],['k'],Y,N,None,Y,,,,,Y,Y,M,20,
48,1,529,0,0,11,['k'],['d'],Y,N,None,Y,,,,,Y,Y,M,20,
48,2,530,10,10,11,['d'],['k'],Y,Y,['space'],Y,,,,,Y,Y,M,20,
48,3,531,1,1,11,['k'],['k'],N,Y,['space'],Y,,,,,Y,Y,M,20,
48,4,532,1,1,11,['k'],['d'],Y,Y,['space'],Y,,,,,Y,Y,M,20,
48,5,533,6,6,11,['k'],['d'],Y,N,None,Y,,,,,Y,Y,M,20,
48,6,534,6,6,11,['k'],['d'],Y,N,None,Y,,,,,Y,Y,M,20,
48,7,535,7,7,11,['d'],['d'],N,N,None,Y,,,,,Y,Y,M,20,
48,8,536,5,5,11,['d'],['k'],Y,N,['space'],N,,,,,Y,Y,M,20,
48,9,537,8,8,11,['d'],['k'],Y,Y,['space'],Y,,,,,Y,Y,M,20,
48,10,538,10,10,11,['d'],['k'],Y,N,None,Y,,,,,Y,Y,M,20,
49,0,539,3,3,11,['k'],['d'],Y,Y,['space'],Y,,,,,Y,Y,M,20,
49,1,540,5,5,11,['k'],['d'],Y,Y,['space'],Y,,,,,Y,Y,M,20,
49,2,541,3,3,11,['d'],['k'],Y,N,None,Y,,,,,Y,Y,M,20,
49,3,542,3,3,11,['d'],['k'],Y,N,None,Y,,,,,Y,Y,M,20,
49,4,543,7,7,11,['d'],['d'],N,N,None,Y,,,,,Y,Y,M,20,
49,5,544,9,9,11,['k'],['d'],Y,Y,['space'],Y,,,,,Y,Y,M,20,
49,6,545,6,6,11,['k'],['k'],N,N,None,Y,,,,,Y,Y,M,20,
49,7,546,0,0,11,['k'],['d'],Y,Y,['space'],Y,,,,,Y,Y,M,20,
49,8,547,8,8,11,['k'],['d'],Y,Y,['space'],Y,,,,,Y,Y,M,20,
49,9,548,5,5,11,['d'],['k'],Y,N,None,Y,,,,,Y,Y,M,20,
49,10,549,8,8,11,['k'],['d'],Y,N,None,Y,37,45,20,,Y,Y,M,20,
50,0,550,7,7,12,['k'],['d'],Y,,,,,,,,Y,Y,M,20,
50,1,551,3,3,12,['k'],['d'],Y,,,,,,,,Y,Y,M,20,
50,2,552,9,9,12,['d'],['k'],Y,Y,['space'],Y,,,,,Y,Y,M,20,
50,3,553,10,10,12,['d'],['d'],N,Y,['k'],N,,,,,Y,Y,M,20,
50,4,554,10,10,12,['k'],['d'],Y,Y,None,N,,,,,Y,Y,M,20,
50,5,555,9,9,12,['d'],['k'],Y,N,None,Y,,,,,Y,Y,M,20,
50,6,556,2,2,12,['k'],['d'],Y,N,None,Y,,,,,Y,Y,M,20,
50,7,557,0,0,12,['d'],['d'],N,N,None,Y,,,,,Y,Y,M,20,
50,8,558,0,0,12,['d'],['k'],Y,Y,['space'],Y,,,,,Y,Y,M,20,
50,9,559,10,10,12,['d'],['k'],Y,N,None,Y,,,,,Y,Y,M,20,
50,10,560,8,8,12,['k'],['d'],Y,Y,['space'],Y,,,,,Y,Y,M,20,
51,0,561,10,10,12,['d'],['k'],Y,N,None,Y,,,,,Y,Y,M,20,
51,1,562,7,7,12,['d'],['k'],Y,N,None,Y,,,,,Y,Y,M,20,
51,2,563,0,0,12,['d'],['k'],Y,Y,['space'],Y,,,,,Y,Y,M,20,
51,3,564,8,8,12,['k'],['d'],Y,Y,['space'],Y,,,,,Y,Y,M,20,
51,4,565,0,0,12,['d'],['d'],N,N,None,Y,,,,,Y,Y,M,20,
51,5,566,5,5,12,['k'],['d'],Y,Y,['space'],Y,,,,,Y,Y,M,20,
51,6,567,8,8,12,['d'],['k'],Y,N,None,Y,,,,,Y,Y,M,20,
51,7,568,6,6,12,['d'],['k'],Y,N,None,Y,,,,,Y,Y,M,20,
51,8,569,6,6,12,['d'],['k'],Y,Y,['space'],Y,,,,,Y,Y,M,20,
51,9,570,3,3,12,['d'],['d'],N,N,None,Y,,,,,Y,Y,M,20,
51,10,571,9,9,12,['k'],['d'],Y,Y,['space'],Y,,,,,Y,Y,M,20,
52,0,572,2,2,12,['k'],['d'],Y,Y,['space'],Y,,,,,Y,Y,M,20,
52,1,573,3,3,12,['k'],['k'],N,N,None,Y,,,,,Y,Y,M,20,
52,2,574,7,7,12,['k'],['d'],Y,Y,None,N,,,,,Y,Y,M,20,
52,3,575,10,10,12,['k'],['k'],N,N,None,Y,,,,,Y,Y,M,20,
52,4,576,7,7,12,['k'],['d'],Y,N,None,Y,,,,,Y,Y,M,20,
52,5,577,7,7,12,['d'],['d'],N,Y,None,N,,,,,Y,Y,M,20,
52,6,578,3,3,12,['d'],['k'],Y,N,None,Y,,,,,Y,Y,M,20,
52,7,579,8,8,12,['k'],['k'],N,Y,['space'],Y,,,,,Y,Y,M,20,
52,8,580,9,9,12,['d'],['k'],Y,N,None,Y,,,,,Y,Y,M,20,
52,9,581,7,7,12,['k'],['d'],Y,Y,['space'],Y,,,,,Y,Y,M,20,
52,10,582,2,2,12,['d'],['k'],Y,Y,['space'],Y,,,,,Y,Y,M,20,
53,0,583,0,0,12,['k'],['d'],Y,N,None,Y,,,,,Y,Y,M,20,
53,1,584,3,3,12,['k'],['d'],Y,Y,['space'],Y,,,,,Y,Y,M,20,
53,2,585,6,6,12,['d'],['k'],Y,N,None,Y,,,,,Y,Y,M,20,
53,3,586,0,0,12,['k'],['d'],Y,Y,['space'],Y,,,,,Y,Y,M,20,
53,4,587,9,9,12,['d'],['k'],Y,Y,['space'],Y,,,,,Y,Y,M,20,
53,5,588,9,9,12,['d'],['k'],Y,N,None,Y,,,,,Y,Y,M,20,
53,6,589,7,7,12,['d'],['k'],Y,N,None,Y,,,,,Y,Y,M,20,
53,7,590,9,9,12,['d'],['k'],Y,N,None,Y,,,,,Y,Y,M,20,
53,8,591,3,3,12,['k'],['k'],N,Y,None,N,,,,,Y,Y,M,20,
53,9,592,3,3,12,['d'],['k'],Y,Y,None,N,,,,,Y,Y,M,20,
53,10,593,2,2,12,['k'],['d'],Y,Y,['space'],Y,,,,,Y,Y,M,20,
54,0,594,4,4,12,['d'],['k'],Y,N,None,Y,,,,,Y,Y,M,20,
54,1,595,6,6,12,['k'],['d'],Y,N,None,Y,,,,,Y,Y,M,20,
54,2,596,7,7,12,['d'],['k'],Y,Y,['space'],Y,,,,,Y,Y,M,20,
54,3,597,5,5,12,['d'],['d'],N,Y,['k'],N,,,,,Y,Y,M,20,
54,4,598,10,10,12,['d'],['k'],Y,Y,['space'],Y,,,,,Y,Y,M,20,
54,5,599,10,10,12,['k'],['d'],Y,N,None,Y,40,41,25,,Y,Y,M,20,
