.thisRepN,.thisTrialN,.thisN,.thisIndex,.thisTrial,Block Number,Key pressed,Category,Correct?,Int Match?,Int Response,Int Correct?,Line Accuracy,Interference Accuracy,Matching Interferences,New instruction shown?,Buttons switched?,Fast?,gender,age,
0,0,0,7,7,1,['k'],['k'],Y,,,,,,,,,,F,18,
0,1,1,3,3,1,['d'],['d'],Y,,,,,,,,,,F,18,
0,2,2,5,5,1,['k'],['k'],Y,N,None,Y,,,,,,,F,18,
0,3,3,2,2,1,['d'],['k'],N,N,None,Y,,,,,,,F,18,
0,4,4,3,3,1,['k'],['k'],Y,Y,None,N,,,,,,,F,18,
0,5,5,3,3,1,['d'],['d'],Y,N,['d'],N,,,,,,,F,18,
0,6,6,5,5,1,['d'],['d'],Y,Y,['space'],Y,,,,,,,F,18,
0,7,7,2,2,1,['k'],['k'],Y,N,None,Y,,,,,,,F,18,
0,8,8,2,2,1,['k'],['k'],Y,N,None,Y,,,,,,,F,18,
0,9,9,8,8,1,['d'],['d'],Y,N,None,Y,,,,,,,F,18,
0,10,10,10,10,1,['k'],['k'],Y,N,None,Y,,,,,,,F,18,
1,0,11,4,4,1,['d'],['k'],N,N,None,Y,,,,,,,F,18,
1,1,12,0,0,1,['k'],['k'],Y,N,None,Y,,,,,,,F,18,
1,2,13,8,8,1,['d'],['k'],N,Y,['space'],Y,,,,,,,F,18,
1,3,14,2,2,1,['k'],['k'],Y,Y,['space'],Y,,,,,,,F,18,
1,4,15,10,10,1,['k'],['k'],Y,Y,['space'],Y,,,,,,,F,18,
1,5,16,0,0,1,['d'],['d'],Y,N,None,Y,,,,,,,F,18,
1,6,17,9,9,1,['k'],['k'],Y,Y,None,N,,,,,,,F,18,
1,7,18,6,6,1,['k'],['k'],Y,N,None,Y,,,,,,,F,18,
1,8,19,1,1,1,['k'],['k'],Y,Y,['space'],Y,,,,,,,F,18,
1,9,20,1,1,1,['d'],['d'],Y,N,None,Y,,,,,,,F,18,
1,10,21,1,1,1,['k'],['d'],N,N,['space'],N,,,,,,,F,18,
2,0,22,9,9,1,['k'],['k'],Y,Y,['space'],Y,,,,,,,F,18,
2,1,23,3,3,1,['k'],['k'],Y,N,None,Y,,,,,,,F,18,
2,2,24,10,10,1,['k'],['d'],N,N,None,Y,,,,,,,F,18,
2,3,25,7,7,1,['d'],['d'],Y,N,None,Y,,,,,,,F,18,
2,4,26,7,7,1,['d'],['d'],Y,Y,['space'],Y,,,,,,,F,18,
2,5,27,3,3,1,['k'],['k'],Y,Y,['space'],Y,,,,,,,F,18,
2,6,28,3,3,1,['k'],['d'],N,Y,['space'],Y,,,,,,,F,18,
2,7,29,3,3,1,['k'],['k'],Y,Y,['space'],Y,,,,,,,F,18,
2,8,30,5,5,1,['k'],['k'],Y,N,None,Y,,,,,,,F,18,
2,9,31,9,9,1,['k'],['k'],Y,N,None,Y,,,,,,,F,18,
2,10,32,7,7,1,['k'],['k'],Y,Y,None,N,,,,,,,F,18,
3,0,33,2,2,1,['k'],['d'],N,Y,['space'],Y,,,,,,,F,18,
3,1,34,3,3,1,['d'],['d'],Y,Y,['space'],Y,,,,,,,F,18,
3,2,35,4,4,1,['k'],['d'],N,Y,['space'],Y,,,,,,,F,18,
3,3,36,7,7,1,['k'],['k'],Y,N,None,Y,,,,,,,F,18,
3,4,37,1,1,1,['d'],['d'],Y,N,None,Y,,,,,,,F,18,
3,5,38,8,8,1,['d'],['k'],N,Y,['space'],Y,,,,,,,F,18,
3,6,39,1,1,1,['d'],['d'],Y,Y,['space'],Y,,,,,,,F,18,
3,7,40,9,9,1,['d'],['k'],N,N,None,Y,,,,,,,F,18,
3,8,41,1,1,1,['k'],['d'],N,Y,['space'],Y,,,,,,,F,18,
3,9,42,2,2,1,['k'],['k'],Y,N,None,Y,,,,,,,F,18,
3,10,43,4,4,1,['d'],['k'],N,N,None,Y,,,,,,,F,18,
4,0,44,2,2,1,['k'],['k'],Y,Y,None,N,,,,,,,F,18,
4,1,45,0,0,1,['d'],['k'],N,N,None,Y,,,,,,,F,18,
4,2,46,2,2,1,['d'],['d'],Y,Y,None,N,,,,,,,F,18,
4,3,47,5,5,1,['k'],['d'],N,Y,['space'],Y,,,,,,,F,18,
4,4,48,8,8,1,['k'],['k'],Y,Y,['d'],N,,,,,,,F,18,
4,5,49,1,1,1,['d'],['d'],Y,N,None,Y,36,40,23,,,,F,18,
4,6,50,10,10,2,['d'],['d'],Y,,,,,,,,,,F,18,
4,7,51,2,2,2,['k'],['d'],N,,,,,,,,,,F,18,
4,8,52,5,5,2,['k'],['k'],Y,N,None,Y,,,,,,,F,18,
4,9,53,2,2,2,['k'],['d'],N,N,None,Y,,,,,,,F,18,
4,10,54,9,9,2,['k'],['d'],N,Y,None,N,,,,,,,F,18,
5,0,55,6,6,2,['k'],['k'],Y,Y,['space'],Y,,,,,,,F,18,
5,1,56,9,9,2,['k'],['k'],Y,N,None,Y,,,,,,,F,18,
5,2,57,3,3,2,None,,Timed out,N,None,Y,,,,,,,F,18,
5,3,58,4,4,2,['d'],['d'],Y,N,None,Y,,,,,,,F,18,
5,4,59,8,8,2,['k'],['k'],Y,Y,['space'],Y,,,,,,,F,18,
5,5,60,1,1,2,['k'],['d'],N,N,None,Y,,,,,,,F,18,
5,6,61,10,10,2,['k'],['k'],Y,N,None,Y,,,,,,,F,18,
5,7,62,1,1,2,['d'],['d'],Y,N,None,Y,,,,,,,F,18,
5,8,63,8,8,2,['k'],['d'],N,N,None,Y,,,,,,,F,18,
5,9,64,0,0,2,['k'],['k'],Y,Y,['space'],Y,,,,,,,F,18,
5,10,65,8,8,2,['d'],['d'],Y,N,None,Y,,,,,,,F,18,
6,0,66,0,0,2,['k'],['k'],Y,Y,['space'],Y,,,,,,,F,18,
6,1,67,1,1,2,['d'],['d'],Y,N,None,Y,,,,,,,F,18,
6,2,68,3,3,2,['d'],['d'],Y,Y,['space'],Y,,,,,,,F,18,
6,3,69,10,10,2,['k'],['d'],N,Y,['space'],Y,,,,,,,F,18,
6,4,70,2,2,2,['k'],['k'],Y,N,None,Y,,,,,,,F,18,
6,5,71,6,6,2,['d'],['d'],Y,Y,['space'],Y,,,,,,,F,18,
6,6,72,4,4,2,['k'],['k'],Y,Y,None,N,,,,,,,F,18,
6,7,73,1,1,2,['d'],['d'],Y,Y,['space'],Y,,,,,,,F,18,
6,8,74,7,7,2,['k'],['k'],Y,N,None,Y,,,,,,,F,18,
6,9,75,9,9,2,['d'],['d'],Y,N,None,Y,,,,,,,F,18,
6,10,76,6,6,2,['k'],['d'],N,Y,['space'],Y,,,,,,,F,18,
7,0,77,5,5,2,['d'],['d'],Y,N,None,Y,,,,,,,F,18,
7,1,78,2,2,2,['d'],['d'],Y,N,None,Y,,,,,,,F,18,
7,2,79,2,2,2,['k'],['k'],Y,Y,['space'],Y,,,,,,,F,18,
7,3,80,9,9,2,['d'],['d'],Y,Y,['space'],Y,,,,,,,F,18,
7,4,81,6,6,2,['k'],['k'],Y,N,None,Y,,,,,,,F,18,
7,5,82,4,4,2,['d'],['d'],Y,N,None,Y,,,,,,,F,18,
7,6,83,8,8,2,['d'],['d'],Y,Y,['space'],Y,,,,,,,F,18,
7,7,84,4,4,2,['d'],['d'],Y,N,None,Y,,,,,,,F,18,
7,8,85,0,0,2,['k'],['k'],Y,N,None,Y,,,,,,,F,18,
7,9,86,0,0,2,['k'],['k'],Y,Y,['space'],Y,,,,,,,F,18,
7,10,87,5,5,2,['d'],['d'],Y,N,None,Y,,,,,,,F,18,
8,0,88,3,3,2,['k'],['k'],Y,N,None,Y,,,,,,,F,18,
8,1,89,5,5,2,['d'],['d'],Y,Y,['space'],Y,,,,,,,F,18,
8,2,90,0,0,2,['k'],['d'],N,N,None,Y,,,,,,,F,18,
8,3,91,0,0,2,['d'],['d'],Y,Y,None,N,,,,,,,F,18,
8,4,92,4,4,2,['k'],['d'],N,N,None,Y,,,,,,,F,18,
8,5,93,5,5,2,['k'],['k'],Y,Y,['space'],Y,,,,,,,F,18,
8,6,94,3,3,2,['d'],['d'],Y,Y,['space'],Y,,,,,,,F,18,
8,7,95,0,0,2,['k'],['d'],N,Y,['space'],Y,,,,,,,F,18,
8,8,96,1,1,2,['d'],['d'],Y,Y,None,N,,,,,,,F,18,
8,9,97,9,9,2,['d'],['d'],Y,N,None,Y,,,,,,,F,18,
8,10,98,3,3,2,['d'],['d'],Y,N,None,Y,,,,,,,F,18,
9,0,99,2,2,2,['d'],['d'],Y,Y,['space'],Y,39,44,22,,,,F,18,
9,1,100,5,5,3,['k'],['k'],Y,,,,,,,,,,F,18,
9,2,101,8,8,3,['k'],['k'],Y,,,,,,,,,,F,18,
9,3,102,6,6,3,['k'],['k'],Y,Y,['space'],Y,,,,,,,F,18,
9,4,103,9,9,3,['k'],['k'],Y,Y,['space'],Y,,,,,,,F,18,
9,5,104,8,8,3,['k'],['d'],N,N,None,Y,,,,,,,F,18,
9,6,105,5,5,3,['k'],['k'],Y,Y,['space'],Y,,,,,,,F,18,
9,7,106,6,6,3,['k'],['k'],Y,Y,['space'],Y,,,,,,,F,18,
9,8,107,9,9,3,['d'],['d'],Y,Y,['space'],Y,,,,,,,F,18,
9,9,108,7,7,3,['d'],['d'],Y,Y,['space'],Y,,,,,,,F,18,
9,10,109,7,7,3,['d'],['d'],Y,N,None,Y,,,,,,,F,18,
10,0,110,2,2,3,['d'],['d'],Y,Y,['space'],Y,,,,,,,F,18,
10,1,111,4,4,3,['d'],['d'],Y,N,None,Y,,,,,,,F,18,
10,2,112,10,10,3,['d'],['d'],Y,Y,['space'],Y,,,,,,,F,18,
10,3,113,6,6,3,['k'],['k'],Y,N,None,Y,,,,,,,F,18,
10,4,114,1,1,3,['k'],['k'],Y,N,None,Y,,,,,,,F,18,
10,5,115,6,6,3,['d'],['d'],Y,N,None,Y,,,,,,,F,18,
10,6,116,6,6,3,['d'],['d'],Y,N,None,Y,,,,,,,F,18,
10,7,117,1,1,3,['k'],['k'],Y,Y,None,N,,,,,,,F,18,
10,8,118,7,7,3,['d'],['d'],Y,N,None,Y,,,,,,,F,18,
10,9,119,4,4,3,['k'],['k'],Y,N,None,Y,,,,,,,F,18,
10,10,120,10,10,3,['k'],['k'],Y,Y,['space'],Y,,,,,,,F,18,
11,0,121,1,1,3,['k'],['k'],Y,N,None,Y,,,,,,,F,18,
11,1,122,10,10,3,['k'],['k'],Y,Y,['space'],Y,,,,,,,F,18,
11,2,123,4,4,3,['k'],['k'],Y,N,None,Y,,,,,,,F,18,
11,3,124,2,2,3,['d'],['d'],Y,Y,['space'],Y,,,,,,,F,18,
11,4,125,5,5,3,['k'],['d'],N,N,None,Y,,,,,,,F,18,
11,5,126,0,0,3,['d'],['k'],N,N,None,Y,,,,,,,F,18,
11,6,127,4,4,3,['k'],['k'],Y,Y,None,N,,,,,,,F,18,
11,7,128,3,3,3,['k'],['k'],Y,N,None,Y,,,,,,,F,18,
11,8,129,8,8,3,['k'],['k'],Y,N,None,Y,,,,,,,F,18,
11,9,130,6,6,3,['d'],['d'],Y,Y,['space'],Y,,,,,,,F,18,
11,10,131,2,2,3,['d'],['d'],Y,Y,['space'],Y,,,,,,,F,18,
12,0,132,5,5,3,['k'],['d'],N,Y,['space'],Y,,,,,,,F,18,
12,1,133,10,10,3,['d'],['d'],Y,Y,['space'],Y,,,,,,,F,18,
12,2,134,1,1,3,['d'],['d'],Y,Y,['space'],Y,,,,,,,F,18,
12,3,135,3,3,3,['k'],['k'],Y,Y,['space'],Y,,,,,,,F,18,
12,4,136,10,10,3,['k'],['k'],Y,N,None,Y,,,,,,,F,18,
12,5,137,6,6,3,['d'],['d'],Y,Y,['space'],Y,,,,,,,F,18,
12,6,138,5,5,3,['k'],['k'],Y,N,None,Y,,,,,,,F,18,
12,7,139,7,7,3,['k'],['k'],Y,N,None,Y,,,,,,,F,18,
12,8,140,7,7,3,['k'],['k'],Y,N,['space'],N,,,,,,,F,18,
12,9,141,7,7,3,['d'],['d'],Y,N,None,Y,,,,,,,F,18,
12,10,142,7,7,3,['k'],['k'],Y,N,None,Y,,,,,,,F,18,
13,0,143,5,5,3,['k'],['k'],Y,N,None,Y,,,,,,,F,18,
13,1,144,6,6,3,['k'],['k'],Y,Y,['space'],Y,,,,,,,F,18,
13,2,145,5,5,3,['k'],['k'],Y,N,None,Y,,,,,,,F,18,
13,3,146,5,5,3,['d'],['d'],Y,Y,['space'],Y,,,,,,,F,18,
13,4,147,3,3,3,['d'],['d'],Y,N,None,Y,,,,,,,F,18,
13,5,148,6,6,3,['d'],['d'],Y,N,None,Y,,,,,,,F,18,
13,6,149,10,10,3,['d'],['d'],Y,Y,['space'],Y,46,45,23,,,,F,18,
13,7,150,5,5,4,['k'],['d'],N,,,,,,,,,,F,18,
13,8,151,4,4,4,['k'],['k'],Y,,,,,,,,,,F,18,
13,9,152,7,7,4,['d'],['k'],N,Y,['space'],Y,,,,,,,F,18,
13,10,153,0,0,4,['k'],['k'],Y,N,None,Y,,,,,,,F,18,
14,0,154,9,9,4,['d'],['k'],N,Y,['space'],Y,,,,,,,F,18,
14,1,155,7,7,4,['k'],['k'],Y,N,None,Y,,,,,,,F,18,
14,2,156,7,7,4,['d'],['d'],Y,Y,None,N,,,,,,,F,18,
14,3,157,10,10,4,['k'],['k'],Y,Y,['space'],Y,,,,,,,F,18,
14,4,158,0,0,4,['k'],['k'],Y,Y,['space'],Y,,,,,,,F,18,
14,5,159,8,8,4,['k'],['d'],N,Y,['space'],Y,,,,,,,F,18,
14,6,160,6,6,4,['k'],['k'],Y,Y,None,N,,,,,,,F,18,
14,7,161,8,8,4,['d'],['d'],Y,N,None,Y,,,,,,,F,18,
14,8,162,7,7,4,['d'],['d'],Y,N,None,Y,,,,,,,F,18,
14,9,163,0,0,4,['d'],['d'],Y,N,None,Y,,,,,,,F,18,
14,10,164,5,5,4,['k'],['k'],Y,Y,None,N,,,,,,,F,18,
15,0,165,6,6,4,['k'],['k'],Y,Y,['space'],Y,,,,,,,F,18,
15,1,166,9,9,4,['k'],['k'],Y,N,None,Y,,,,,,,F,18,
15,2,167,1,1,4,['d'],['d'],Y,N,None,Y,,,,,,,F,18,
15,3,168,3,3,4,['k'],['k'],Y,N,None,Y,,,,,,,F,18,
15,4,169,2,2,4,['d'],['d'],Y,Y,None,N,,,,,,,F,18,
15,5,170,4,4,4,['d'],['d'],Y,N,None,Y,,,,,,,F,18,
15,6,171,10,10,4,['k'],['k'],Y,N,None,Y,,,,,,,F,18,
15,7,172,0,0,4,['k'],['k'],Y,Y,['space'],Y,,,,,,,F,18,
15,8,173,2,2,4,['k'],['k'],Y,N,None,Y,,,,,,,F,18,
15,9,174,4,4,4,['k'],['k'],Y,Y,['space'],Y,,,,,,,F,18,
15,10,175,4,4,4,['k'],['d'],N,Y,['space'],Y,,,,,,,F,18,
16,0,176,10,10,4,['d'],['d'],Y,Y,['space'],Y,,,,,,,F,18,
16,1,177,8,8,4,['k'],['k'],Y,N,None,Y,,,,,,,F,18,
16,2,178,9,9,4,['k'],['k'],Y,N,None,Y,,,,,,,F,18,
16,3,179,8,8,4,['k'],['k'],Y,N,None,Y,,,,,,,F,18,
16,4,180,1,1,4,['k'],['k'],Y,Y,['space'],Y,,,,,,,F,18,
16,5,181,4,4,4,['k'],['k'],Y,Y,['space'],Y,,,,,,,F,18,
16,6,182,1,1,4,['k'],['k'],Y,N,None,Y,,,,,,,F,18,
16,7,183,10,10,4,['d'],['d'],Y,N,None,Y,,,,,,,F,18,
16,8,184,8,8,4,['d'],['d'],Y,N,None,Y,,,,,,,F,18,
16,9,185,3,3,4,['d'],['d'],Y,N,None,Y,,,,,,,F,18,
16,10,186,10,10,4,['d'],['d'],Y,Y,['space'],Y,,,,,,,F,18,
17,0,187,1,1,4,['d'],['d'],Y,Y,['space'],Y,,,,,,,F,18,
17,1,188,8,8,4,['k'],['k'],Y,Y,['space'],Y,,,,,,,F,18,
17,2,189,10,10,4,['d'],['d'],Y,Y,['space'],Y,,,,,,,F,18,
17,3,190,2,2,4,['k'],['d'],N,N,None,Y,,,,,,,F,18,
17,4,191,3,3,4,['k'],['k'],Y,N,None,Y,,,,,,,F,18,
17,5,192,5,5,4,['d'],['d'],Y,Y,None,N,,,,,,,F,18,
17,6,193,5,5,4,['k'],['k'],Y,Y,None,N,,,,,,,F,18,
17,7,194,3,3,4,['d'],['d'],Y,Y,['space'],Y,,,,,,,F,18,
17,8,195,1,1,4,['k'],['k'],Y,Y,['space'],Y,,,,,,,F,18,
17,9,196,9,9,4,['k'],['k'],Y,Y,['space'],Y,,,,,,,F,18,
17,10,197,5,5,4,['k'],['k'],Y,N,None,Y,,,,,,,F,18,
18,0,198,3,3,4,['k'],['k'],Y,N,None,Y,,,,,,,F,18,
18,1,199,10,10,4,['d'],['d'],Y,N,None,Y,44,42,25,,,,F,18,
18,2,200,2,2,5,['k'],['k'],Y,,,,,,,,,,F,18,
18,3,201,3,3,5,['d'],['d'],Y,,,,,,,,,,F,18,
18,4,202,6,6,5,['d'],['d'],Y,N,None,Y,,,,,,,F,18,
18,5,203,10,10,5,['k'],['d'],N,N,None,Y,,,,,,,F,18,
18,6,204,4,4,5,['k'],['k'],Y,Y,['space'],Y,,,,,,,F,18,
18,7,205,0,0,5,['k'],['k'],Y,Y,['space'],Y,,,,,,,F,18,
18,8,206,4,4,5,['k'],['k'],Y,N,None,Y,,,,,,,F,18,
18,9,207,3,3,5,['k'],['k'],Y,N,None,Y,,,,,,,F,18,
18,10,208,6,6,5,['d'],['d'],Y,N,None,Y,,,,,,,F,18,
19,0,209,8,8,5,['d'],['d'],Y,N,None,Y,,,,,,,F,18,
19,1,210,0,0,5,['k'],['k'],Y,Y,['space'],Y,,,,,,,F,18,
19,2,211,0,0,5,['d'],['d'],Y,Y,['space'],Y,,,,,,,F,18,
19,3,212,7,7,5,['d'],['k'],N,Y,['space'],Y,,,,,,,F,18,
19,4,213,10,10,5,['d'],['d'],Y,Y,['space'],Y,,,,,,,F,18,
19,5,214,3,3,5,['d'],['d'],Y,N,None,Y,,,,,,,F,18,
19,6,215,7,7,5,['k'],['d'],N,Y,['space'],Y,,,,,,,F,18,
19,7,216,0,0,5,['k'],['d'],N,N,None,Y,,,,,,,F,18,
19,8,217,8,8,5,['d'],['d'],Y,N,None,Y,,,,,,,F,18,
19,9,218,9,9,5,['k'],['k'],Y,Y,['space'],Y,,,,,,,F,18,
19,10,219,2,2,5,['k'],['k'],Y,Y,['space'],Y,,,,,,,F,18,
20,0,220,8,8,5,['d'],['d'],Y,N,None,Y,,,,,,,F,18,
20,1,221,9,9,5,['d'],['d'],Y,Y,['space'],Y,,,,,,,F,18,
20,2,222,7,7,5,['d'],['d'],Y,N,None,Y,,,,,,,F,18,
20,3,223,8,8,5,['k'],['k'],Y,N,['space'],N,,,,,,,F,18,
20,4,224,7,7,5,['d'],['d'],Y,Y,['space'],Y,,,,,,,F,18,
20,5,225,0,0,5,['k'],['k'],Y,N,None,Y,,,,,,,F,18,
20,6,226,2,2,5,['d'],['k'],N,N,None,Y,,,,,,,F,18,
20,7,227,1,1,5,['k'],['d'],N,Y,['space'],Y,,,,,,,F,18,
20,8,228,1,1,5,['d'],['d'],Y,Y,['space'],Y,,,,,,,F,18,
20,9,229,4,4,5,['k'],['k'],Y,N,None,Y,,,,,,,F,18,
20,10,230,10,10,5,['d'],['d'],Y,N,None,Y,,,,,,,F,18,
21,0,231,10,10,5,['d'],['d'],Y,Y,['space'],Y,,,,,,,F,18,
21,1,232,2,2,5,['d'],['d'],Y,Y,['space'],Y,,,,,,,F,18,
21,2,233,6,6,5,['d'],['d'],Y,Y,['space'],Y,,,,,,,F,18,
21,3,234,7,7,5,['k'],['k'],Y,Y,['space'],Y,,,,,,,F,18,
21,4,235,7,7,5,['k'],['k'],Y,N,None,Y,,,,,,,F,18,
21,5,236,9,9,5,['k'],['k'],Y,N,None,Y,,,,,,,F,18,
21,6,237,9,9,5,['d'],['d'],Y,Y,['space'],Y,,,,,,,F,18,
21,7,238,8,8,5,['d'],['k'],N,N,None,Y,,,,,,,F,18,
21,8,239,9,9,5,['d'],['k'],N,N,None,Y,,,,,,,F,18,
21,9,240,0,0,5,['k'],['k'],Y,Y,['space'],Y,,,,,,,F,18,
21,10,241,9,9,5,['k'],['k'],Y,Y,None,N,,,,,,,F,18,
22,0,242,4,4,5,['d'],['d'],Y,N,None,Y,,,,,,,F,18,
22,1,243,4,4,5,['k'],['d'],N,N,None,Y,,,,,,,F,18,
22,2,244,0,0,5,['k'],['k'],Y,Y,['space'],Y,,,,,,,F,18,
22,3,245,10,10,5,['d'],['d'],Y,N,None,Y,,,,,,,F,18,
22,4,246,2,2,5,['k'],['k'],Y,N,None,Y,,,,,,,F,18,
22,5,247,1,1,5,['d'],['d'],Y,N,None,Y,,,,,,,F,18,
22,6,248,4,4,5,['d'],['d'],Y,N,None,Y,,,,,,,F,18,
22,7,249,5,5,5,['d'],['d'],Y,N,None,Y,41,46,21,,,,F,18,
22,8,250,9,9,6,['k'],['k'],Y,,,,,,,,,,F,18,
22,9,251,4,4,6,['k'],['k'],Y,,,,,,,,,,F,18,
22,10,252,9,9,6,['k'],['d'],N,Y,None,N,,,,,,,F,18,
23,0,253,8,8,6,['k'],['k'],Y,Y,None,N,,,,,,,F,18,
23,1,254,10,10,6,['k'],['d'],N,Y,['space'],Y,,,,,,,F,18,
23,2,255,2,2,6,['d'],['d'],Y,N,None,Y,,,,,,,F,18,
23,3,256,3,3,6,['d'],['k'],N,N,None,Y,,,,,,,F,18,
23,4,257,6,6,6,['d'],['k'],N,Y,['space'],Y,,,,,,,F,18,
23,5,258,7,7,6,['k'],['d'],N,Y,None,N,,,,,,,F,18,
23,6,259,8,8,6,['k'],['k'],Y,N,None,Y,,,,,,,F,18,
23,7,260,8,8,6,['k'],['d'],N,N,None,Y,,,,,,,F,18,
23,8,261,7,7,6,['d'],['d'],Y,Y,None,N,,,,,,,F,18,
23,9,262,4,4,6,['d'],['d'],Y,Y,['space'],Y,,,,,,,F,18,
23,10,263,0,0,6,['d'],['d'],Y,Y,['space'],Y,,,,,,,F,18,
24,0,264,5,5,6,['k'],['d'],N,Y,['space'],Y,,,,,,,F,18,
24,1,265,0,0,6,['d'],['d'],Y,Y,['space'],Y,,,,,,,F,18,
24,2,266,8,8,6,['d'],['k'],N,Y,['space'],Y,,,,,,,F,18,
24,3,267,0,0,6,['k'],['k'],Y,Y,['space'],Y,,,,,,,F,18,
24,4,268,9,9,6,['d'],['d'],Y,Y,['space'],Y,,,,,,,F,18,
24,5,269,7,7,6,['k'],['k'],Y,N,None,Y,,,,,,,F,18,
24,6,270,3,3,6,['d'],['d'],Y,Y,['space'],Y,,,,,,,F,18,
24,7,271,9,9,6,['k'],['k'],Y,Y,['space'],Y,,,,,,,F,18,
24,8,272,8,8,6,['d'],['d'],Y,N,None,Y,,,,,,,F,18,
24,9,273,5,5,6,['d'],['d'],Y,N,None,Y,,,,,,,F,18,
24,10,274,1,1,6,['d'],['d'],Y,Y,['space'],Y,,,,,,,F,18,
25,0,275,9,9,6,['k'],['k'],Y,N,None,Y,,,,,,,F,18,
25,1,276,6,6,6,['k'],['d'],N,Y,['space'],Y,,,,,,,F,18,
25,2,277,1,1,6,['d'],['d'],Y,Y,['space'],Y,,,,,,,F,18,
25,3,278,3,3,6,['d'],['d'],Y,Y,['space'],Y,,,,,,,F,18,
25,4,279,0,0,6,['k'],['d'],N,N,None,Y,,,,,,,F,18,
25,5,280,4,4,6,['k'],['k'],Y,N,None,Y,,,,,,,F,18,
25,6,281,9,9,6,['d'],['d'],Y,Y,['space'],Y,,,,,,,F,18,
25,7,282,8,8,6,['k'],['k'],Y,N,None,Y,,,,,,,F,18,
25,8,283,3,3,6,['k'],['k'],Y,N,None,Y,,,,,,,F,18,
25,9,284,0,0,6,None,,Timed out,Y,['space'],Y,,,,,,,F,18,
25,10,285,8,8,6,['k'],['k'],Y,N,None,Y,,,,,,,F,18,
26,0,286,0,0,6,['d'],['d'],Y,N,None,Y,,,,,,,F,18,
26,1,287,7,7,6,['k'],['k'],Y,Y,['space'],Y,,,,,,,F,18,
26,2,288,5,5,6,['k'],['k'],Y,Y,None,N,,,,,,,F,18,
26,3,289,3,3,6,['k'],['k'],Y,Y,['space'],Y,,,,,,,F,18,
26,4,290,7,7,6,['k'],['k'],Y,Y,['space'],Y,,,,,,,F,18,
26,5,291,8,8,6,['d'],['d'],Y,N,None,Y,,,,,,,F,18,
26,6,292,1,1,6,['k'],['k'],Y,N,None,Y,,,,,,,F,18,
26,7,293,6,6,6,['d'],['d'],Y,N,None,Y,,,,,,,F,18,
26,8,294,2,2,6,['d'],['d'],Y,N,None,Y,,,,,,,F,18,
26,9,295,5,5,6,['k'],['k'],Y,N,None,Y,,,,,,,F,18,
26,10,296,3,3,6,['d'],['d'],Y,N,None,Y,,,,,,,F,18,
27,0,297,7,7,6,['k'],['d'],N,N,None,Y,,,,,,,F,18,
27,1,298,10,10,6,['d'],['d'],Y,N,None,Y,,,,,,,F,18,
27,2,299,2,2,6,['d'],['d'],Y,N,None,Y,38,43,25,,,,F,18,
27,3,300,3,3,7,['k'],['k'],Y,,,,,,,,,,F,18,
27,4,301,8,8,7,['k'],['k'],Y,,,,,,,,,,F,18,
27,5,302,5,5,7,['k'],['k'],Y,Y,['space'],Y,,,,,,,F,18,
27,6,303,3,3,7,['d'],['k'],N,N,None,Y,,,,,,,F,18,
27,7,304,0,0,7,['d'],['d'],Y,N,None,Y,,,,,,,F,18,
27,8,305,4,4,7,['d'],['k'],N,N,None,Y,,,,,,,F,18,
27,9,306,1,1,7,['k'],['k'],Y,Y,None,N,,,,,,,F,18,
27,10,307,6,6,7,['d'],['d'],Y,N,None,Y,,,,,,,F,18,
28,0,308,4,4,7,['k'],['k'],Y,N,None,Y,,,,,,,F,18,
28,1,309,1,1,7,['d'],['d'],Y,Y,['space'],Y,,,,,,,F,18,
28,2,310,6,6,7,['d'],['d'],Y,Y,['space'],Y,,,,,,,F,18,
28,3,311,6,6,7,['k'],['k'],Y,Y,None,N,,,,,,,F,18,
28,4,312,0,0,7,['d'],['d'],Y,N,None,Y,,,,,,,F,18,
28,5,313,4,4,7,['d'],['d'],Y,Y,['space'],Y,,,,,,,F,18,
28,6,314,9,9,7,['d'],['k'],N,Y,['space'],Y,,,,,,,F,18,
28,7,315,3,3,7,['d'],['d'],Y,N,None,Y,,,,,,,F,18,
28,8,316,6,6,7,['d'],['d'],Y,Y,None,N,,,,,,,F,18,
28,9,317,2,2,7,['d'],['d'],Y,Y,['space'],Y,,,,,,,F,18,
28,10,318,0,0,7,['d'],['d'],Y,N,None,Y,,,,,,,F,18,
29,0,319,9,9,7,['k'],['k'],Y,N,None,Y,,,,,,,F,18,
29,1,320,4,4,7,['d'],['d'],Y,Y,['space'],Y,,,,,,,F,18,
29,2,321,9,9,7,['d'],['d'],Y,Y,['space'],Y,,,,,,,F,18,
29,3,322,6,6,7,['k'],['k'],Y,Y,['space'],Y,,,,,,,F,18,
29,4,323,7,7,7,['k'],['k'],Y,N,None,Y,,,,,,,F,18,
29,5,324,8,8,7,['k'],['d'],N,Y,['space'],Y,,,,,,,F,18,
29,6,325,1,1,7,['k'],['k'],Y,N,None,Y,,,,,,,F,18,
29,7,326,4,4,7,['d'],['k'],N,N,None,Y,,,,,,,F,18,
29,8,327,4,4,7,['k'],['k'],Y,N,['space'],N,,,,,,,F,18,
29,9,328,2,2,7,['d'],['d'],Y,N,None,Y,,,,,,,F,18,
29,10,329,6,6,7,['k'],['k'],Y,Y,['space'],Y,,,,,,,F,18,
30,0,330,0,0,7,['d'],['d'],Y,N,None,Y,,,,,,,F,18,
30,1,331,5,5,7,['d'],['d'],Y,Y,['space'],Y,,,,,,,F,18,
30,2,332,9,9,7,['k'],['k'],Y,Y,['space'],Y,,,,,,,F,18,
30,3,333,0,0,7,['d'],['d'],Y,N,None,Y,,,,,,,F,18,
30,4,334,2,2,7,['d'],['d'],Y,N,None,Y,,,,,,,F,18,
30,5,335,9,9,7,['k'],['d'],N,N,None,Y,,,,,,,F,18,
30,6,336,1,1,7,['d'],['d'],Y,N,None,Y,,,,,,,F,18,
30,7,337,1,1,7,['d'],['k'],N,Y,['space'],Y,,,,,,,F,18,
30,8,338,2,2,7,['d'],['d'],Y,N,None,Y,,,,,,,F,18,
30,9,339,5,5,7,['k'],['k'],Y,N,None,Y,,,,,,,F,18,
30,10,340,8,8,7,['d'],['d'],Y,Y,['space'],Y,,,,,,,F,18,
31,0,341,2,2,7,['k'],['k'],Y,Y,['space'],Y,,,,,,,F,18,
31,1,342,7,7,7,['d'],['d'],Y,N,None,Y,,,,,,,F,18,
31,2,343,9,9,7,['k'],['d'],N,Y,['space'],Y,,,,,,,F,18,
31,3,344,3,3,7,['d'],['d'],Y,Y,['space'],Y,,,,,,,F,18,
31,4,345,9,9,7,['d'],['d'],Y,N,None,Y,,,,,,,F,18,
31,5,346,10,10,7,['d'],['d'],Y,N,None,Y,,,,,,,F,18,
31,6,347,6,6,7,['d'],['d'],Y,N,None,Y,,,,,,,F,18,
31,7,348,3,3,7,['k'],['k'],Y,N,None,Y,,,,,,,F,18,
31,8,349,10,10,7,['d'],['d'],Y,N,None,Y,42,44,21,,,,F,18,
31,9,350,3,3,8,['d'],['d'],Y,,,,,,,,,,F,18,
31,10,351,5,5,8,['k'],['k'],Y,,,,,,,,,,F,18,
32,0,352,1,1,8,['k'],['k'],Y,N,None,Y,,,,,,,F,18,
32,1,353,10,10,8,['k'],['k'],Y,Y,['space'],Y,,,,,,,F,18,
32,2,354,7,7,8,['d'],['d'],Y,Y,['space'],Y,,,,,,,F,18,
32,3,355,9,9,8,['k'],['k'],Y,Y,['space'],Y,,,,,,,F,18,
32,4,356,7,7,8,['k'],['d'],N,N,None,Y,,,,,,,F,18,
32,5,357,0,0,8,['k'],['k'],Y,N,None,Y,,,,,,,F,18,
32,6,358,5,5,8,['k'],['k'],Y,Y,['space'],Y,,,,,,,F,18,
32,7,359,1,1,8,['k'],['k'],Y,N,None,Y,,,,,,,F,18,
32,8,360,0,0,8,['d'],['d'],Y,N,None,Y,,,,,,,F,18,
32,9,361,10,10,8,['d'],['d'],Y,Y,['space'],Y,,,,,,,F,18,
32,10,362,5,5,8,['k'],['k'],Y,Y,['space'],Y,,,,,,,F,18,
33,0,363,4,4,8,['k'],['k'],Y,Y,['space'],Y,,,,,,,F,18,
33,1,364,5,5,8,['k'],['k'],Y,N,None,Y,,,,,,,F,18,
33,2,365,8,8,8,['k'],['k'],Y,Y,['space'],Y,,,,,,,F,18,
33,3,366,1,1,8,['k'],['k'],Y,N,['space'],N,,,,,,,F,18,
33,4,367,4,4,8,['k'],['k'],Y,Y,['space'],Y,,,,,,,F,18,
33,5,368,7,7,8,['k'],['k'],Y,N,None,Y,,,,,,,F,18,
33,6,369,4,4,8,['d'],['k'],N,Y,['space'],Y,,,,,,,F,18,
33,7,370,3,3,8,['k'],['k'],Y,Y,None,N,,,,,,,F,18,
33,8,371,6,6,8,['d'],['d'],Y,Y,None,N,,,,,,,F,18,
33,9,372,1,1,8,['k'],['k'],Y,N,None,Y,,,,,,,F,18,
33,10,373,7,7,8,['k'],['d'],N,N,None,Y,,,,,,,F,18,
34,0,374,1,1,8,['d'],['d'],Y,N,None,Y,,,,,,,F,18,
34,1,375,5,5,8,['d'],['d'],Y,Y,None,N,,,,,,,F,18,
34,2,376,6,6,8,['d'],['d'],Y,Y,['space'],Y,,,,,,,F,18,
34,3,377,4,4,8,['k'],['d'],N,Y,['space'],Y,,,,,,,F,18,
34,4,378,9,9,8,['k'],['k'],Y,Y,['space'],Y,,,,,,,F,18,
34,5,379,3,3,8,['d'],['d'],Y,N,None,Y,,,,,,,F,18,
34,6,380,3,3,8,['k'],['d'],N,Y,['space'],Y,,,,,,,F,18,
34,7,381,4,4,8,['k'],['k'],Y,N,None,Y,,,,,,,F,18,
34,8,382,6,6,8,['d'],['d'],Y,N,None,Y,,,,,,,F,18,
34,9,383,10,10,8,['k'],['k'],Y,Y,['space'],Y,,,,,,,F,18,
34,10,384,10,10,8,['k'],['k'],Y,N,None,Y,,,,,,,F,18,
35,0,385,10,10,8,['k'],['k'],Y,N,None,Y,,,,,,,F,18,
35,1,386,9,9,8,['k'],['k'],Y,Y,['space'],Y,,,,,,,F,18,
35,2,387,1,1,8,['k'],['k'],Y,Y,['space'],Y,,,,,,,F,18,
35,3,388,7,7,8,['d'],['d'],Y,Y,['space'],Y,,,,,,,F,18,
35,4,389,3,3,8,['k'],['d'],N,Y,['space'],Y,,,,,,,F,18,
35,5,390,9,9,8,['d'],['d'],Y,Y,['space'],Y,,,,,,,F,18,
35,6,391,10,10,8,['k'],['d'],N,N,None,Y,,,,,,,F,18,
35,7,392,1,1,8,['d'],['d'],Y,N,None,Y,,,,,,,F,18,
35,8,393,5,5,8,['k'],['k'],Y,N,None,Y,,,,,,,F,18,
35,9,394,5,5,8,['d'],['d'],Y,N,None,Y,,,,,,,F,18,
35,10,395,7,7,8,['k'],['k'],Y,Y,['space'],Y,,,,,,,F,18,
36,0,396,3,3,8,['k'],['k'],Y,Y,['space'],Y,,,,,,,F,18,
36,1,397,10,10,8,['k'],['k'],Y,N,None,Y,,,,,,,F,18,
36,2,398,5,5,8,['d'],['d'],Y,N,None,Y,,,,,,,F,18,
36,3,399,6,6,8,['d'],['d'],Y,N,None,Y,43,44,25,,,,F,18,
36,4,400,9,9,9,['k'],['d'],N,,,,,,,,,,F,18,
36,5,401,0,0,9,['k'],['k'],Y,,,,,,,,,,F,18,
36,6,402,0,0,9,['d'],['d'],Y,Y,['space'],Y,,,,,,,F,18,
36,7,403,2,2,9,['k'],['k'],Y,Y,['space'],Y,,,,,,,F,18,
36,8,404,0,0,9,['d'],['d'],Y,N,None,Y,,,,,,,F,18,
36,9,405,7,7,9,['k'],['d'],N,Y,['space'],Y,,,,,,,F,18,
36,10,406,0,0,9,['d'],['d'],Y,N,None,Y,,,,,,,F,18,
37,0,407,9,9,9,['d'],['d'],Y,Y,['space'],Y,,,,,,,F,18,
37,1,408,8,8,9,['k'],['k'],Y,N,None,Y,,,,,,,F,18,
37,2,409,5,5,9,['k'],['k'],Y,Y,['space'],Y,,,,,,,F,18,
37,3,410,1,1,9,['k'],['k'],Y,N,None,Y,,,,,,,F,18,
37,4,411,1,1,9,['k'],['k'],Y,Y,['space'],Y,,,,,,,F,18,
37,5,412,6,6,9,['k'],['k'],Y,N,None,Y,,,,,,,F,18,
37,6,413,10,10,9,['k'],['k'],Y,Y,None,N,,,,,,,F,18,
37,7,414,10,10,9,['k'],['k'],Y,Y,None,N,,,,,,,F,18,
37,8,415,0,0,9,['d'],['d'],Y,N,None,Y,,,,,,,F,18,
37,9,416,1,1,9,['k'],['k'],Y,Y,['space'],Y,,,,,,,F,18,
37,10,417,2,2,9,['d'],['d'],Y,Y,None,N,,,,,,,F,18,
38,0,418,9,9,9,['d'],['d'],Y,N,None,Y,,,,,,,F,18,
38,1,419,10,10,9,['d'],['d'],Y,Y,None,N,,,,,,,F,18,
38,2,420,4,4,9,['d'],['d'],Y,N,None,Y,,,,,,,F,18,
38,3,421,2,2,9,['k'],['d'],N,Y,['space'],Y,,,,,,,F,18,
38,4,422,0,0,9,['k'],['k'],Y,N,None,Y,,,,,,,F,18,
38,5,423,3,3,9,['k'],['k'],Y,Y,['space'],Y,,,,,,,F,18,
38,6,424,10,10,9,['d'],['d'],Y,Y,['space'],Y,,,,,,,F,18,
38,7,425,4,4,9,['d'],['d'],Y,Y,['space'],Y,,,,,,,F,18,
38,8,426,1,1,9,['d'],['d'],Y,Y,['space'],Y,,,,,,,F,18,
38,9,427,0,0,9,['d'],['d'],Y,N,['space'],N,,,,,,,F,18,
38,10,428,4,4,9,['d'],['d'],Y,Y,['space'],Y,,,,,,,F,18,
39,0,429,0,0,9,['k'],['k'],Y,Y,['space'],Y,,,,,,,F,18,
39,1,430,5,5,9,['d'],['d'],Y,Y,['space'],Y,,,,,,,F,18,
39,2,431,8,8,9,['k'],['d'],N,N,None,Y,,,,,,,F,18,
39,3,432,4,4,9,['d'],['d'],Y,Y,['space'],Y,,,,,,,F,18,
39,4,433,7,7,9,['d'],['d'],Y,Y,['space'],Y,,,,,,,F,18,
39,5,434,6,6,9,['d'],['d'],Y,N,None,Y,,,,,,,F,18,
39,6,435,4,4,9,['k'],['d'],N,Y,['space'],Y,,,,,,,F,18,
39,7,436,4,4,9,['k'],['k'],Y,N,None,Y,,,,,,,F,18,
39,8,437,6,6,9,['k'],['k'],Y,Y,['space'],Y,,,,,,,F,18,
39,9,438,5,5,9,['k'],['d'],N,Y,['space'],Y,,,,,,,F,18,
39,10,439,7,7,9,['d'],['d'],Y,Y,['space'],Y,,,,,,,F,18,
40,0,440,5,5,9,['d'],['d'],Y,N,None,Y,,,,,,,F,18,
40,1,441,9,9,9,['k'],['k'],Y,N,None,Y,,,,,,,F,18,
40,2,442,7,7,9,['k'],['k'],Y,N,None,Y,,,,,,,F,18,
40,3,443,3,3,9,['k'],['k'],Y,N,None,Y,,,,,,,F,18,
40,4,444,8,8,9,['d'],['d'],Y,N,None,Y,,,,,,,F,18,
40,5,445,6,6,9,['d'],['d'],Y,N,None,Y,,,,,,,F,18,
40,6,446,6,6,9,['k'],['k'],Y,N,['space'],N,,,,,,,F,18,
40,7,447,2,2,9,['d'],['k'],N,N,None,Y,,,,,,,F,18,
40,8,448,4,4,9,['d'],['d'],Y,N,None,Y,,,,,,,F,18,
40,9,449,7,7,9,['k'],['k'],Y,N,None,Y,43,42,25,,,,F,18,
40,10,450,10,10,10,['d'],['d'],Y,,,,,,,,,,F,18,
41,0,451,5,5,10,['k'],['k'],Y,,,,,,,,,,F,18,
41,1,452,7,7,10,['k'],['k'],Y,N,None,Y,,,,,,,F,18,
41,2,453,4,4,10,['d'],['d'],Y,N,None,Y,,,,,,,F,18,
41,3,454,7,7,10,['d'],['d'],Y,Y,None,N,,,,,,,F,18,
41,4,455,6,6,10,['k'],['k'],Y,Y,['space'],Y,,,,,,,F,18,
41,5,456,10,10,10,['d'],['d'],Y,N,None,Y,,,,,,,F,18,
41,6,457,2,2,10,['k'],['k'],Y,Y,['space'],Y,,,,,,,F,18,
41,7,458,7,7,10,['k'],['k'],Y,Y,['space'],Y,,,,,,,F,18,
41,8,459,6,6,10,['k'],['k'],Y,N,None,Y,,,,,,,F,18,
41,9,460,8,8,10,['d'],['d'],Y,N,None,Y,,,,,,,F,18,
41,10,461,2,2,10,['d'],['d'],Y,N,None,Y,,,,,,,F,18,
42,0,462,3,3,10,['k'],['k'],Y,Y,['space'],Y,,,,,,,F,18,
42,1,463,2,2,10,['k'],['k'],Y,Y,['space'],Y,,,,,,,F,18,
42,2,464,5,5,10,['d'],['d'],Y,Y,['space'],Y,,,,,,,F,18,
42,3,465,6,6,10,['d'],['d'],Y,Y,['space'],Y,,,,,,,F,18,
42,4,466,7,7,10,['d'],['d'],Y,Y,['space'],Y,,,,,,,F,18,
42,5,467,0,0,10,['k'],['k'],Y,Y,['space'],Y,,,,,,,F,18,
42,6,468,5,5,10,['k'],['k'],Y,N,None,Y,,,,,,,F,18,
42,7,469,8,8,10,['k'],['k'],Y,Y,['space'],Y,,,,,,,F,18,
42,8,470,9,9,10,['d'],['d'],Y,Y,['space'],Y,,,,,,,F,18,
42,9,471,2,2,10,['d'],['d'],Y,Y,['space'],Y,,,,,,,F,18,
42,10,472,8,8,10,['d'],['d'],Y,N,None,Y,,,,,,,F,18,
43,0,473,4,4,10,['k'],['d'],N,Y,None,N,,,,,,,F,18,
43,1,474,6,6,10,['k'],['k'],Y,N,None,Y,,,,,,,F,18,
43,2,475,9,9,10,['k'],['k'],Y,Y,['space'],Y,,,,,,,F,18,
43,3,476,9,9,10,['d'],['k'],N,Y,['space'],Y,,,,,,,F,18,
43,4,477,6,6,10,['d'],['d'],Y,Y,None,N,,,,,,,F,18,
43,5,478,6,6,10,['d'],['d'],Y,N,None,Y,,,,,,,F,18,
43,6,479,6,6,10,['k'],['k'],Y,Y,['space'],Y,,,,,,,F,18,
43,7,480,3,3,10,['k'],['k'],Y,Y,['space'],Y,,,,,,,F,18,
43,8,481,8,8,10,['k'],['k'],Y,Y,['space'],Y,,,,,,,F,18,
43,9,482,4,4,10,['k'],['k'],Y,Y,['space'],Y,,,,,,,F,18,
43,10,483,2,2,10,['d'],['d'],Y,N,None,Y,,,,,,,F,18,
44,0,484,7,7,10,['d'],['d'],Y,N,None,Y,,,,,,,F,18,
44,1,485,2,2,10,['k'],['k'],Y,Y,['space'],Y,,,,,,,F,18,
44,2,486,8,8,10,['k'],['k'],Y,N,None,Y,,,,,,,F,18,
44,3,487,9,9,10,['d'],['d'],Y,Y,None,N,,,,,,,F,18,
44,4,488,2,2,10,['d'],['d'],Y,N,None,Y,,,,,,,F,18,
44,5,489,1,1,10,['d'],['d'],Y,N,None,Y,,,,,,,F,18,
44,6,490,10,10,10,['d'],['d'],Y,Y,['space'],Y,,,,,,,F,18,
44,7,491,2,2,10,['d'],['d'],Y,N,None,Y,,,,,,,F,18,
44,8,492,6,6,10,['k'],['k'],Y,Y,['space'],Y,,,,,,,F,18,
44,9,493,7,7,10,['d'],['d'],Y,N,None,Y,,,,,,,F,18,
44,10,494,8,8,10,['k'],['k'],Y,N,None,Y,,,,,,,F,18,
45,0,495,4,4,10,['d'],['d'],Y,N,None,Y,,,,,,,F,18,
45,1,496,9,9,10,['k'],['k'],Y,N,None,Y,,,,,,,F,18,
45,2,497,0,0,10,['d'],['d'],Y,N,None,Y,,,,,,,F,18,
45,3,498,6,6,10,['d'],['d'],Y,N,None,Y,,,,,,,F,18,
45,4,499,10,10,10,['d'],['d'],Y,N,None,Y,48,44,25,,,,F,18,
45,5,500,10,10,11,['k'],['d'],Y,,,,,,,Y,Y,Y,F,18,
45,6,501,4,4,11,['d'],['d'],N,,,,,,,,Y,Y,F,18,
45,7,502,7,7,11,None,,Timed out,N,None,Y,,,,,Y,Y,F,18,
45,8,503,8,8,11,['d'],['k'],Y,N,None,Y,,,,,Y,Y,F,18,
45,9,504,8,8,11,['d'],['d'],N,Y,['space'],Y,,,,,Y,Y,F,18,
45,10,505,0,0,11,None,,Timed out,Y,None,N,,,,,Y,Y,F,18,
46,0,506,9,9,11,['k'],['k'],N,Y,['space'],Y,,,,,Y,Y,F,18,
46,1,507,7,7,11,['d'],['d'],N,N,['space'],N,,,,,Y,Y,F,18,
46,2,508,9,9,11,['d'],['d'],N,Y,['space'],Y,,,,,Y,Y,F,18,
46,3,509,9,9,11,None,,Timed out,Y,['space'],Y,,,,,Y,Y,F,18,
46,4,510,2,2,11,['d'],['k'],Y,Y,['space'],Y,,,,,Y,Y,F,18,
46,5,511,10,10,11,['d'],['k'],Y,N,None,Y,,,,,Y,Y,F,18,
46,6,512,0,0,11,['d'],['k'],Y,Y,['space'],Y,,,,,Y,Y,F,18,
46,7,513,2,2,11,['d'],['k'],Y,Y,['space'],Y,,,,,Y,Y,F,18,
46,8,514,1,1,11,['d'],['k'],Y,N,None,Y,,,,,Y,Y,F,18,
46,9,515,5,5,11,['d'],['k'],Y,N,None,Y,,,,,Y,Y,F,18,
46,10,516,8,8,11,None,,Timed out,Y,['space'],Y,,,,,Y,Y,F,18,
47,0,517,4,4,11,['d'],['k'],Y,N,None,Y,,,,,Y,Y,F,18,
47,1,518,1,1,11,['d'],['d'],N,N,['space'],N,,,,,Y,Y,F,18,
47,2,519,1,1,11,None,,Timed out,Y,['space'],Y,,,,,Y,Y,F,18,
47,3,520,9,9,11,['k'],['k'],N,N,None,Y,,,,,Y,Y,F,18,
47,4,521,4,4,11,['d'],['k'],Y,Y,None,N,,,,,Y,Y,F,18,
47,5,522,10,10,11,['d'],['k'],Y,Y,['space'],Y,,,,,Y,Y,F,18,
47,6,523,3,3,11,['d'],['k'],Y,N,None,Y,,,,,Y,Y,F,18,
47,7,524,5,5,11,['d'],['k'],Y,Y,['space'],Y,,,,,Y,Y,F,18,
47,8,525,5,5,11,['d'],['k'],Y,Y,['space'],Y,,,,,Y,Y,F,18,
47,9,526,6,6,11,['k'],['d'],Y,N,None,Y,,,,,Y,Y,F,18,
47,10,527,9,9,11,['d'],['k'],Y,Y,['space'],Y,,,,,Y,Y,F,18,
48,0,528,10,10,11,['d'],['k'],Y,Y,['space'],Y,,,,,Y,Y,F,18,
48,1,529,0,0,11,['k'],['d'],Y,Y,['space'],Y,,,,,Y,Y,F,18,
48,2,530,3,3,11,['d'],['d'],N,Y,['space'],Y,,,,,Y,Y,F,18,
48,3,531,8,8,11,['d'],['k'],Y,N,None,Y,,,,,Y,Y,F,18,
48,4,532,8,8,11,['d'],['k'],Y,Y,['space'],Y,,,,,Y,Y,F,18,
48,5,533,3,3,11,['k'],['k'],N,Y,['space'],Y,,,,,Y,Y,F,18,
48,6,534,6,6,11,['d'],['k'],Y,N,None,Y,,,,,Y,Y,F,18,
48,7,535,10,10,11,['d'],['d'],N,N,None,Y,,,,,Y,Y,F,18,
48,8,536,10,10,11,['k'],['d'],Y,Y,['space'],Y,,,,,Y,Y,F,18,
48,9,537,6,6,11,['d'],['k'],Y,N,None,Y,,,,,Y,Y,F,18,
48,10,538,7,7,11,['k'],['d'],Y,Y,['space'],Y,,,,,Y,Y,F,18,
49,0,539,8,8,11,['k'],['d'],Y,Y,['space'],Y,,,,,Y,Y,F,18,
49,1,540,3,3,11,['d'],['d'],N,N,None,Y,,,,,Y,Y,F,18,
49,2,541,10,10,11,None,,Timed out,N,None,Y,,,,,Y,Y,F,18,
49,3,542,1,1,11,None,,Timed out,Y,['space'],Y,,,,,Y,Y,F,18,
49,4,543,1,1,11,['k'],['d'],Y,N,None,Y,,,,,Y,Y,F,18,
49,5,544,2,2,11,['d'],['k'],Y,Y,None,N,,,,,Y,Y,F,18,
49,6,545,6,6,11,['d'],['k'],Y,N,None,Y,,,,,Y,Y,F,18,
49,7,546,1,1,11,['d'],['k'],Y,N,None,Y,,,,,Y,Y,F,18,
49,8,547,0,0,11,['k'],['d'],Y,N,None,Y,,,,,Y,Y,F,18,
49,9,548,6,6,11,['d'],['k'],Y,N,None,Y,,,,,Y,Y,F,18,
49,10,549,2,2,11,['d'],['k'],Y,N,None,Y,32,43,25,,Y,Y,F,18,
50,0,550,6,6,12,['d'],['k'],Y,,,,,,,,Y,Y,F,18,
50,1,551,3,3,12,['d'],['k'],Y,,,,,,,,Y,Y,F,18,
50,2,552,7,7,12,['d'],['k'],Y,N,None,Y,,,,,Y,Y,F,18,
50,3,553,2,2,12,['d'],['k'],Y,Y,['space'],Y,,,,,Y,Y,F,18,
50,4,554,8,8,12,['k'],['d'],Y,Y,['space'],Y,,,,,Y,Y,F,18,
50,5,555,0,0,12,None,,Timed out,N,None,Y,,,,,Y,Y,F,18,
50,6,556,5,5,12,['d'],['k'],Y,Y,['space'],Y,,,,,Y,Y,F,18,
50,7,557,2,2,12,['k'],['d'],Y,Y,['space'],Y,,,,,Y,Y,F,18,
50,8,558,10,10,12,['d'],['d'],N,Y,['space'],Y,,,,,Y,Y,F,18,
50,9,559,0,0,12,None,,Timed out,Y,['space'],Y,,,,,Y,Y,F,18,
50,10,560,5,5,12,['d'],['k'],Y,Y,['space'],Y,,,,,Y,Y,F,18,
51,0,561,4,4,12,['k'],['k'],N,N,None,Y,,,,,Y,Y,F,18,
51,1,562,5,5,12,None,,Timed out,Y,['space'],Y,,,,,Y,Y,F,18,
51,2,563,0,0,12,['d'],['k'],Y,Y,['space'],Y,,,,,Y,Y,F,18,
51,3,564,2,2,12,['k'],['d'],Y,Y,['space'],Y,,,,,Y,Y,F,18,
51,4,565,5,5,12,['k'],['d'],Y,N,None,Y,,,,,Y,Y,F,18,
51,5,566,8,8,12,['d'],['k'],Y,N,None,Y,,,,,Y,Y,F,18,
51,6,567,10,10,12,['d'],['k'],Y,N,None,Y,,,,,Y,Y,F,18,
51,7,568,4,4,12,['d'],['k'],Y,N,None,Y,,,,,Y,Y,F,18,
51,8,569,9,9,12,['d'],['k'],Y,Y,['space'],Y,,,,,Y,Y,F,18,
51,9,570,0,0,12,['d'],['d'],N,Y,['space'],Y,,,,,Y,Y,F,18,
51,10,571,8,8,12,['k'],['k'],N,Y,['space'],Y,,,,,Y,Y,F,18,
52,0,572,1,1,12,['d'],['k'],Y,N,None,Y,,,,,Y,Y,F,18,
52,1,573,4,4,12,['k'],['d'],Y,Y,['space'],Y,,,,,Y,Y,F,18,
52,2,574,0,0,12,['d'],['k'],Y,N,None,Y,,,,,Y,Y,F,18,
52,3,575,8,8,12,['d'],['k'],Y,Y,['space'],Y,,,,,Y,Y,F,18,
52,4,576,9,9,12,['d'],['k'],Y,N,None,Y,,,,,Y,Y,F,18,
52,5,577,2,2,12,['k'],['d'],Y,N,None,Y,,,,,Y,Y,F,18,
52,6,578,2,2,12,['d'],['d'],N,N,['space'],N,,,,,Y,Y,F,18,
52,7,579,8,8,12,['d'],['k'],Y,Y,['space'],Y,,,,,Y,Y,F,18,
52,8,580,10,10,12,['d'],['k'],Y,Y,['space'],Y,,,,,Y,Y,F,18,
52,9,581,7,7,12,None,,Timed out,N,None,Y,,,,,Y,Y,F,18,
52,10,582,4,4,12,['k'],['d'],Y,Y,['space'],Y,,,,,Y,Y,F,18,
53,0,583,3,3,12,['k'],['d'],Y,N,None,Y,,,,,Y,Y,F,18,
53,1,584,10,10,12,['d'],['k'],Y,N,None,Y,,,,,Y,Y,F,18,
53,2,585,9,9,12,['k'],['d'],Y,N,None,Y,,,,,Y,Y,F,18,
53,3,586,5,5,12,['d'],['k'],Y,Y,['space'],Y,,,,,Y,Y,F,18,
53,4,587,6,6,12,['d'],['k'],Y,N,None,Y,,,,,Y,Y,F,18,
53,5,588,1,1,12,['d'],['k'],Y,N,None,Y,,,,,Y,Y,F,18,
53,6,589,10,10,12,['d'],['k'],Y,Y,['space'],Y,,,,,Y,Y,F,18,
53,7,590,3,3,12,['d'],['k'],Y,Y,['space'],Y,,,,,Y,Y,F,18,
53,8,591,3,3,12,['d'],['k'],Y,Y,['space'],Y,,,,,Y,Y,F,18,
53,9,592,8,8,12,['k'],['d'],Y,Y,['space'],Y,,,,,Y,Y,F,18,
53,10,593,1,1,12,['d'],['k'],Y,Y,['space'],Y,,,,,Y,Y,F,18,
54,0,594,2,2,12,['k'],['d'],Y,N,None,Y,,,,,Y,Y,F,18,
54,1,595,1,1,12,['d'],['k'],Y,Y,['space'],Y,,,,,Y,Y,F,18,
54,2,596,7,7,12,['k'],['d'],Y,N,None,Y,,,,,Y,Y,F,18,
54,3,597,1,1,12,['k'],['d'],Y,N,None,Y,,,,,Y,Y,F,18,
54,4,598,5,5,12,['d'],['k'],Y,N,None,Y,,,,,Y,Y,F,18,
54,5,599,6,6,12,['d'],['k'],Y,N,None,Y,41,47,25,,Y,Y,F,18,
