.thisRepN,.thisTrialN,.thisN,.thisIndex,.thisTrial,Block Number,Key pressed,Category,Correct?,Int Match?,Int Response,Int Correct?,Line Accuracy,Interference Accuracy,Matching Interferences,New instruction shown?,Buttons switched?,Fast?,gender,age,
0,0,0,10,10,1,['k'],['k'],Y,,,,,,,,,,M,20,
0,1,1,4,4,1,['d'],['d'],Y,,,,,,,,,,M,20,
0,2,2,6,6,1,['d'],['d'],Y,N,None,Y,,,,,,,M,20,
0,3,3,10,10,1,['k'],['d'],N,Y,['space'],Y,,,,,,,M,20,
0,4,4,5,5,1,['d'],['k'],N,N,None,Y,,,,,,,M,20,
0,5,5,7,7,1,['k'],['d'],N,Y,['space'],Y,,,,,,,M,20,
0,6,6,5,5,1,['k'],['k'],Y,Y,['space'],Y,,,,,,,M,20,
0,7,7,6,6,1,['d'],['k'],N,N,['space'],N,,,,,,,M,20,
0,8,8,10,10,1,['k'],['k'],Y,N,['space'],N,,,,,,,M,20,
0,9,9,0,0,1,['d'],['k'],N,N,None,Y,,,,,,,M,20,
0,10,10,3,3,1,['k'],['d'],N,N,None,Y,,,,,,,M,20,
1,0,11,6,6,1,['d'],['d'],Y,N,None,Y,,,,,,,M,20,
1,1,12,5,5,1,['k'],['k'],Y,Y,['space'],Y,,,,,,,M,20,
1,2,13,2,2,1,['k'],['k'],Y,Y,['space'],Y,,,,,,,M,20,
1,3,14,8,8,1,['d'],['d'],Y,Y,['space'],Y,,,,,,,M,20,
1,4,15,9,9,1,['d'],['d'],Y,N,['space'],N,,,,,,,M,20,
1,5,16,5,5,1,['k'],['k'],Y,Y,['space'],Y,,,,,,,M,20,
1,6,17,4,4,1,['d'],['d'],Y,N,None,Y,,,,,,,M,20,
1,7,18,4,4,1,['k'],['k'],Y,Y,['space'],Y,,,,,,,M,20,
1,8,19,4,4,1,['d'],['d'],Y,N,None,Y,,,,,,,M,20,
1,9,20,2,2,1,['k'],['k'],Y,N,None,Y,,,,,,,M,20,
1,10,21,0,0,1,['k'],['d'],N,Y,None,N,,,,,,,M,20,
2,0,22,4,4,1,['d'],['d'],Y,N,None,Y,,,,,,,M,20,
2,1,23,2,2,1,['k'],['k'],Y,N,['space'],N,,,,,,,M,20,
2,2,24,3,3,1,['k'],['k'],Y,Y,['space'],Y,,,,,,,M,20,
2,3,25,10,10,1,['k'],['k'],Y,Y,['space'],Y,,,,,,,M,20,
2,4,26,5,5,1,['d'],['d'],Y,Y,['space'],Y,,,,,,,M,20,
2,5,27,4,4,1,['k'],['k'],Y,Y,['space'],Y,,,,,,,M,20,
2,6,28,7,7,1,['d'],['d'],Y,Y,['space'],Y,,,,,,,M,20,
2,7,29,5,5,1,['d'],['k'],N,Y,['space'],Y,,,,,,,M,20,
2,8,30,3,3,1,['k'],['d'],N,N,None,Y,,,,,,,M,20,
2,9,31,7,7,1,['k'],['k'],Y,N,None,Y,,,,,,,M,20,
2,10,32,7,7,1,['k'],['k'],Y,N,['space'],N,,,,,,,M,20,
3,0,33,1,1,1,['d'],['d'],Y,Y,['space'],Y,,,,,,,M,20,
3,1,34,7,7,1,['k'],['k'],Y,Y,None,N,,,,,,,M,20,
3,2,35,3,3,1,['k'],['k'],Y,Y,['space'],Y,,,,,,,M,20,
3,3,36,10,10,1,['k'],['k'],Y,Y,['space'],Y,,,,,,,M,20,
3,4,37,0,0,1,['k'],['k'],Y,Y,['space'],Y,,,,,,,M,20,
3,5,38,7,7,1,['k'],['k'],Y,Y,['space'],Y,,,,,,,M,20,
3,6,39,9,9,1,['k'],['k'],Y,Y,['space'],Y,,,,,,,M,20,
3,7,40,4,4,1,['k'],['d'],N,N,None,Y,,,,,,,M,20,
3,8,41,3,3,1,['d'],['d'],Y,N,None,Y,,,,,,,M,20,
3,9,42,7,7,1,['d'],['d'],Y,N,['space'],N,,,,,,,M,20,
3,10,43,9,9,1,['k'],['d'],N,Y,['space'],Y,,,,,,,M,20,
4,0,44,8,8,1,['k'],['k'],Y,Y,['space'],Y,,,,,,,M,20,
4,1,45,9,9,1,['k'],['k'],Y,Y,['space'],Y,,,,,,,M,20,
4,2,46,3,3,1,['k'],['k'],Y,N,None,Y,,,,,,,M,20,
4,3,47,9,9,1,['d'],['d'],Y,N,None,Y,,,,,,,M,20,
4,4,48,9,9,1,['d'],['d'],Y,N,['space'],N,,,,,,,M,20,
4,5,49,10,10,1,['d'],['d'],Y,N,None,Y,39,39,25,,,,M,20,
4,6,50,3,3,2,['k'],['k'],Y,,,,,,,,,,M,20,
4,7,51,6,6,2,['d'],['d'],Y,,,,,,,,,,M,20,
4,8,52,1,1,2,['k'],['k'],Y,N,None,Y,,,,,,,M,20,
4,9,53,2,2,2,['k'],['d'],N,Y,['space'],Y,,,,,,,M,20,
4,10,54,1,1,2,['k'],['k'],Y,N,None,Y,,,,,,,M,20,
5,0,55,8,8,2,['k'],['k'],Y,Y,['space'],Y,,,,,,,M,20,
5,1,56,10,10,2,['d'],['d'],Y,N,None,Y,,,,,,,M,20,
5,2,57,2,2,2,['k'],['d'],N,Y,['space'],Y,,,,,,,M,20,
5,3,58,10,10,2,['d'],['d'],Y,N,None,Y,,,,,,,M,20,
5,4,59,9,9,2,['d'],['d'],Y,N,None,Y,,,,,,,M,20,
5,5,60,7,7,2,['d'],['d'],Y,N,None,Y,,,,,,,M,20,
5,6,61,4,4,2,['d'],['d'],Y,Y,None,N,,,,,,,M,20,
5,7,62,10,10,2,['d'],['d'],Y,Y,['space'],Y,,,,,,,M,20,
5,8,63,9,9,2,['k'],['k'],Y,Y,None,N,,,,,,,M,20,
5,9,64,4,4,2,['k'],['d'],N,N,['space'],N,,,,,,,M,20,
5,10,65,5,5,2,['k'],['k'],Y,N,None,Y,,,,,,,M,20,
6,0,66,4,4,2,['k'],['k'],Y,Y,['space'],Y,,,,,,,M,20,
6,1,67,4,4,2,['k'],['k'],Y,Y,None,N,,,,,,,M,20,
6,2,68,0,0,2,['k'],['k'],Y,Y,['space'],Y,,,,,,,M,20,
6,3,69,6,6,2,['d'],['d'],Y,Y,['space'],Y,,,,,,,M,20,
6,4,70,5,5,2,['k'],['k'],Y,Y,['space'],Y,,,,,,,M,20,
6,5,71,4,4,2,['d'],['k'],N,N,['space'],N,,,,,,,M,20,
6,6,72,1,1,2,['d'],['d'],Y,Y,None,N,,,,,,,M,20,
6,7,73,3,3,2,['d'],['d'],Y,Y,None,N,,,,,,,M,20,
6,8,74,1,1,2,['k'],['d'],N,Y,['space'],Y,,,,,,,M,20,
6,9,75,7,7,2,['k'],['d'],N,Y,['space'],Y,,,,,,,M,20,
6,10,76,7,7,2,['d'],['d'],Y,N,None,Y,,,,,,,M,20,
7,0,77,0,0,2,['k'],['k'],Y,Y,['space'],Y,,,,,,,M,20,
7,1,78,0,0,2,['k'],['k'],Y,N,None,Y,,,,,,,M,20,
7,2,79,6,6,2,['d'],['d'],Y,N,None,Y,,,,,,,M,20,
7,3,80,1,1,2,['d'],['d'],Y,N,None,Y,,,,,,,M,20,
7,4,81,6,6,2,['d'],['d'],Y,Y,['space'],Y,,,,,,,M,20,
7,5,82,0,0,2,['d'],['k'],N,Y,['space'],Y,,,,,,,M,20,
7,6,83,10,10,2,['k'],['k'],Y,Y,['space'],Y,,,,,,,M,20,
7,7,84,10,10,2,['k'],['k'],Y,Y,['space'],Y,,,,,,,M,20,
7,8,85,5,5,2,['k'],['k'],Y,Y,['space'],Y,,,,,,,M,20,
7,9,86,8,8,2,['d'],['d'],Y,N,None,Y,,,,,,,M,20,
7,10,87,1,1,2,['k'],['k'],Y,N,['space'],N,,,,,,,M,20,
8,0,88,1,1,2,['k'],['k'],Y,N,['space'],N,,,,,,,M,20,
8,1,89,3,3,2,['d'],['d'],Y,N,None,Y,,,,,,,M,20,
8,2,90,0,0,2,['d'],['d'],Y,Y,['space'],Y,,,,,,,M,20,
8,3,91,3,3,2,['d'],['d'],Y,N,None,Y,,,,,,,M,20,
8,4,92,1,1,2,['k'],['k'],Y,Y,None,N,,,,,,,M,20,
8,5,93,2,2,2,['k'],['d'],N,Y,['space'],Y,,,,,,,M,20,
8,6,94,8,8,2,['k'],['k'],Y,N,None,Y,,,,,,,M,20,
8,7,95,3,3,2,['d'],['k'],N,N,['space'],N,,,,,,,M,20,
8,8,96,0,0,2,['k'],['k'],Y,N,None,Y,,,,,,,M,20,
8,9,97,5,5,2,['d'],['d'],Y,N,['space'],N,,,,,,,M,20,
8,10,98,1,1,2,['d'],['d'],Y,Y,['space'],Y,,,,,,,M,20,
9,0,99,4,4,2,['k'],['k'],Y,N,['space'],N,41,35,25,,,,M,20,
9,1,100,7,7,3,['k'],['k'],Y,,,,,,,,,,M,20,
9,2,101,5,5,3,['d'],['d'],Y,,,,,,,,,,M,20,
9,3,102,6,6,3,['k'],['k'],Y,Y,None,N,,,,,,,M,20,
9,4,103,9,9,3,['k'],['k'],Y,N,None,Y,,,,,,,M,20,
9,5,104,9,9,3,['d'],['d'],Y,N,['space'],N,,,,,,,M,20,
9,6,105,8,8,3,['k'],['k'],Y,Y,['space'],Y,,,,,,,M,20,
9,7,106,9,9,3,['d'],['k'],N,N,None,Y,,,,,,,M,20,
9,8,107,3,3,3,['d'],['d'],Y,N,None,Y,,,,,,,M,20,
9,9,108,6,6,3,['k'],['k'],Y,N,None,Y,,,,,,,M,20,
9,10,109,1,1,3,['k'],['k'],Y,Y,['space'],Y,,,,,,,M,20,
10,0,110,10,10,3,['k'],['k'],Y,Y,None,N,,,,,,,M,20,
10,1,111,8,8,3,['k'],['d'],N,Y,['space'],Y,,,,,,,M,20,
10,2,112,3,3,3,['k'],['k'],Y,N,None,Y,,,,,,,M,20,
10,3,113,7,7,3,['d'],['d'],Y,N,None,Y,,,,,,,M,20,
10,4,114,10,10,3,['d'],['d'],Y,Y,['space'],Y,,,,,,,M,20,
10,5,115,10,10,3,['k'],['k'],Y,N,None,Y,,,,,,,M,20,
10,6,116,6,6,3,['d'],['d'],Y,N,None,Y,,,,,,,M,20,
10,7,117,8,8,3,['k'],['k'],Y,N,None,Y,,,,,,,M,20,
10,8,118,4,4,3,['d'],['d'],Y,Y,None,N,,,,,,,M,20,
10,9,119,8,8,3,['k'],['k'],Y,Y,['space'],Y,,,,,,,M,20,
10,10,120,10,10,3,['d'],['d'],Y,N,None,Y,,,,,,,M,20,
11,0,121,7,7,3,['d'],['d'],Y,N,None,Y,,,,,,,M,20,
11,1,122,7,7,3,['k'],['k'],Y,N,None,Y,,,,,,,M,20,
11,2,123,6,6,3,['k'],['k'],Y,Y,['space'],Y,,,,,,,M,20,
11,3,124,8,8,3,['k'],['k'],Y,Y,['space'],Y,,,,,,,M,20,
11,4,125,2,2,3,['d'],['k'],N,Y,['space'],Y,,,,,,,M,20,
11,5,126,10,10,3,['d'],['d'],Y,Y,['space'],Y,,,,,,,M,20,
11,6,127,1,1,3,['d'],['d'],Y,N,None,Y,,,,,,,M,20,
11,7,128,0,0,3,['d'],['d'],Y,Y,['space'],Y,,,,,,,M,20,
11,8,129,4,4,3,['d'],['d'],Y,N,None,Y,,,,,,,M,20,
11,9,130,0,0,3,['k'],['k'],Y,Y,['space'],Y,,,,,,,M,20,
11,10,131,1,1,3,['d'],['d'],Y,N,['space'],N,,,,,,,M,20,
12,0,132,8,8,3,['k'],['d'],N,Y,['space'],Y,,,,,,,M,20,
12,1,133,7,7,3,['k'],['d'],N,N,None,Y,,,,,,,M,20,
12,2,134,2,2,3,['d'],['k'],N,Y,None,N,,,,,,,M,20,
12,3,135,1,1,3,['d'],['k'],N,N,None,Y,,,,,,,M,20,
12,4,136,3,3,3,['k'],['d'],N,N,None,Y,,,,,,,M,20,
12,5,137,3,3,3,['k'],['k'],Y,Y,['space'],Y,,,,,,,M,20,
12,6,138,8,8,3,['d'],['d'],Y,Y,['space'],Y,,,,,,,M,20,
12,7,139,5,5,3,['k'],['k'],Y,N,None,Y,,,,,,,M,20,
12,8,140,1,1,3,['k'],['k'],Y,Y,['space'],Y,,,,,,,M,20,
12,9,141,3,3,3,['k'],['k'],Y,N,None,Y,,,,,,,M,20,
12,10,142,3,3,3,['k'],['k'],Y,N,None,Y,,,,,,,M,20,
13,0,143,6,6,3,['d'],['k'],N,N,None,Y,,,,,,,M,20,
13,1,144,8,8,3,['d'],['d'],Y,Y,None,N,,,,,,,M,20,
13,2,145,10,10,3,['k'],['k'],Y,N,None,Y,,,,,,,M,20,
13,3,146,3,3,3,['d'],['k'],N,Y,None,N,,,,,,,M,20,
13,4,147,0,0,3,['d'],['d'],Y,Y,['space'],Y,,,,,,,M,20,
13,5,148,8,8,3,['d'],['d'],Y,Y,None,N,,,,,,,M,20,
13,6,149,9,9,3,['k'],['k'],Y,N,None,Y,40,39,23,,,,M,20,
13,7,150,6,6,4,['k'],['d'],N,,,,,,,,,,M,20,
13,8,151,1,1,4,['d'],['d'],Y,,,,,,,,,,M,20,
13,9,152,2,2,4,['d'],['d'],Y,N,None,Y,,,,,,,M,20,
13,10,153,3,3,4,['d'],['d'],Y,Y,None,N,,,,,,,M,20,
14,0,154,4,4,4,['d'],['d'],Y,N,None,Y,,,,,,,M,20,
14,1,155,3,3,4,['d'],['k'],N,Y,None,N,,,,,,,M,20,
14,2,156,6,6,4,['d'],['d'],Y,Y,['space'],Y,,,,,,,M,20,
14,3,157,0,0,4,['d'],['d'],Y,N,None,Y,,,,,,,M,20,
14,4,158,9,9,4,['k'],['d'],N,N,None,Y,,,,,,,M,20,
14,5,159,10,10,4,['d'],['d'],Y,Y,['space'],Y,,,,,,,M,20,
14,6,160,9,9,4,['d'],['k'],N,Y,['space'],Y,,,,,,,M,20,
14,7,161,4,4,4,['k'],['k'],Y,Y,None,N,,,,,,,M,20,
14,8,162,1,1,4,['k'],['k'],Y,Y,['space'],Y,,,,,,,M,20,
14,9,163,0,0,4,['d'],['d'],Y,N,None,Y,,,,,,,M,20,
14,10,164,9,9,4,['k'],['k'],Y,N,None,Y,,,,,,,M,20,
15,0,165,10,10,4,['k'],['k'],Y,N,None,Y,,,,,,,M,20,
15,1,166,0,0,4,['d'],['d'],Y,Y,['space'],Y,,,,,,,M,20,
15,2,167,5,5,4,['k'],['k'],Y,N,None,Y,,,,,,,M,20,
15,3,168,8,8,4,['k'],['k'],Y,Y,None,N,,,,,,,M,20,
15,4,169,4,4,4,['k'],['k'],Y,N,None,Y,,,,,,,M,20,
15,5,170,4,4,4,['k'],['k'],Y,N,['space'],N,,,,,,,M,20,
15,6,171,1,1,4,['d'],['d'],Y,N,None,Y,,,,,,,M,20,
15,7,172,4,4,4,['k'],['d'],N,Y,['space'],Y,,,,,,,M,20,
15,8,173,10,10,4,['k'],['k'],Y,N,None,Y,,,,,,,M,20,
15,9,174,4,4,4,['k'],['d'],N,N,None,Y,,,,,,,M,20,
15,10,175,0,0,4,['d'],['d'],Y,N,None,Y,,,,,,,M,20,
16,0,176,4,4,4,['k'],['k'],Y,N,None,Y,,,,,,,M,20,
16,1,177,7,7,4,['d'],['k'],N,Y,['space'],Y,,,,,,,M,20,
16,2,178,2,2,4,['d'],['d'],Y,Y,None,N,,,,,,,M,20,
16,3,179,0,0,4,['d'],['d'],Y,Y,None,N,,,,,,,M,20,
16,4,180,1,1,4,['d'],['k'],N,N,None,Y,,,,,,,M,20,
16,5,181,9,9,4,['d'],['k'],N,Y,None,N,,,,,,,M,20,
16,6,182,2,2,4,['k'],['d'],N,N,None,Y,,,,,,,M,20,
16,7,183,9,9,4,['k'],['k'],Y,N,['space'],N,,,,,,,M,20,
16,8,184,7,7,4,['k'],['d'],N,Y,None,N,,,,,,,M,20,
16,9,185,7,7,4,['d'],['d'],Y,N,None,Y,,,,,,,M,20,
16,10,186,2,2,4,['k'],['d'],N,N,['space'],N,,,,,,,M,20,
17,0,187,6,6,4,['k'],['k'],Y,N,None,Y,,,,,,,M,20,
17,1,188,7,7,4,['d'],['k'],N,Y,None,N,,,,,,,M,20,
17,2,189,0,0,4,['d'],['d'],Y,N,None,Y,,,,,,,M,20,
17,3,190,8,8,4,['k'],['d'],N,N,None,Y,,,,,,,M,20,
17,4,191,0,0,4,['k'],['k'],Y,Y,None,N,,,,,,,M,20,
17,5,192,6,6,4,['d'],['d'],Y,Y,['space'],Y,,,,,,,M,20,
17,6,193,9,9,4,['k'],['k'],Y,Y,None,N,,,,,,,M,20,
17,7,194,6,6,4,['k'],['k'],Y,N,None,Y,,,,,,,M,20,
17,8,195,6,6,4,['k'],['d'],N,Y,['space'],Y,,,,,,,M,20,
17,9,196,3,3,4,['d'],['k'],N,N,None,Y,,,,,,,M,20,
17,10,197,9,9,4,['k'],['k'],Y,N,None,Y,,,,,,,M,20,
18,0,198,3,3,4,['d'],['k'],N,Y,None,N,,,,,,,M,20,
18,1,199,2,2,4,['k'],['k'],Y,N,None,Y,33,33,21,,,,M,20,
18,2,200,7,7,5,['d'],['d'],Y,,,,,,,,,,M,20,
18,3,201,9,9,5,['d'],['d'],Y,,,,,,,,,,M,20,
18,4,202,4,4,5,['k'],['k'],Y,N,None,Y,,,,,,,M,20,
18,5,203,3,3,5,['k'],['d'],N,N,None,Y,,,,,,,M,20,
18,6,204,4,4,5,['k'],['k'],Y,Y,['space'],Y,,,,,,,M,20,
18,7,205,8,8,5,['d'],['k'],N,N,None,Y,,,,,,,M,20,
18,8,206,1,1,5,['d'],['d'],Y,N,None,Y,,,,,,,M,20,
18,9,207,7,7,5,['k'],['k'],Y,Y,None,N,,,,,,,M,20,
18,10,208,4,4,5,['d'],['d'],Y,Y,None,N,,,,,,,M,20,
19,0,209,10,10,5,['k'],['d'],N,N,None,Y,,,,,,,M,20,
19,1,210,6,6,5,['d'],['k'],N,Y,None,N,,,,,,,M,20,
19,2,211,10,10,5,['d'],['d'],Y,N,None,Y,,,,,,,M,20,
19,3,212,8,8,5,['d'],['d'],Y,Y,['space'],Y,,,,,,,M,20,
19,4,213,4,4,5,['k'],['k'],Y,N,None,Y,,,,,,,M,20,
19,5,214,5,5,5,['d'],['k'],N,N,None,Y,,,,,,,M,20,
19,6,215,2,2,5,['d'],['d'],Y,Y,['space'],Y,,,,,,,M,20,
19,7,216,4,4,5,['d'],['d'],Y,N,['space'],N,,,,,,,M,20,
19,8,217,5,5,5,['d'],['d'],Y,N,None,Y,,,,,,,M,20,
19,9,218,2,2,5,['d'],['k'],N,N,None,Y,,,,,,,M,20,
19,10,219,10,10,5,['k'],['k'],Y,N,None,Y,,,,,,,M,20,
20,0,220,2,2,5,['k'],['k'],Y,N,None,Y,,,,,,,M,20,
20,1,221,8,8,5,['k'],['k'],Y,N,None,Y,,,,,,,M,20,
20,2,222,4,4,5,['k'],['k'],Y,N,None,Y,,,,,,,M,20,
20,3,223,0,0,5,['d'],['d'],Y,N,None,Y,,,,,,,M,20,
20,4,224,8,8,5,['k'],['k'],Y,Y,['space'],Y,,,,,,,M,20,
20,5,225,5,5,5,['d'],['d'],Y,Y,['space'],Y,,,,,,,M,20,
20,6,226,6,6,5,['d'],['d'],Y,Y,['space'],Y,,,,,,,M,20,
20,7,227,7,7,5,['k'],['k'],Y,Y,['space'],Y,,,,,,,M,20,
20,8,228,6,6,5,['d'],['d'],Y,N,None,Y,,,,,,,M,20,
20,9,229,3,3,5,['d'],['d'],Y,N,None,Y,,,,,,,M,20,
20,10,230,0,0,5,['d'],['k'],N,N,None,Y,,,,,,,M,20,
21,0,231,0,0,5,['k'],['k'],Y,N,['space'],N,,,,,,,M,20,
21,1,232,10,10,5,['k'],['k'],Y,N,None,Y,,,,,,,M,20,
21,2,233,7,7,5,['d'],['d'],Y,N,None,Y,,,,,,,M,20,
21,3,234,6,6,5,['d'],['d'],Y,N,None,Y,,,,,,,M,20,
21,4,235,0,0,5,['d'],['d'],Y,Y,None,N,,,,,,,M,20,
21,5,236,2,2,5,['k'],['k'],Y,N,None,Y,,,,,,,M,20,
21,6,237,0,0,5,['d'],['k'],N,Y,None,N,,,,,,,M,20,
21,7,238,1,1,5,['k'],['k'],Y,Y,None,N,,,,,,,M,20,
21,8,239,8,8,5,['k'],['k'],Y,Y,None,N,,,,,,,M,20,
21,9,240,3,3,5,['d'],['d'],Y,N,None,Y,,,,,,,M,20,
21,10,241,0,0,5,['k'],['d'],N,N,None,Y,,,,,,,M,20,
22,0,242,1,1,5,['d'],['d'],Y,Y,['space'],Y,,,,,,,M,20,
22,1,243,6,6,5,['d'],['d'],Y,Y,['space'],Y,,,,,,,M,20,
22,2,244,9,9,5,['d'],['d'],Y,N,None,Y,,,,,,,M,20,
22,3,245,7,7,5,['d'],['d'],Y,Y,['space'],Y,,,,,,,M,20,
22,4,246,2,2,5,['d'],['d'],Y,Y,['space'],Y,,,,,,,M,20,
22,5,247,0,0,5,['k'],['k'],Y,N,None,Y,,,,,,,M,20,
22,6,248,1,1,5,['k'],['k'],Y,N,None,Y,,,,,,,M,20,
22,7,249,5,5,5,['d'],['k'],N,Y,['space'],Y,40,39,19,,,,M,20,
22,8,250,1,1,6,['k'],['k'],Y,,,,,,,,,,M,20,
22,9,251,7,7,6,['k'],['k'],Y,,,,,,,,,,M,20,
22,10,252,7,7,6,['k'],['k'],Y,N,None,Y,,,,,,,M,20,
23,0,253,4,4,6,['k'],['k'],Y,N,None,Y,,,,,,,M,20,
23,1,254,8,8,6,['k'],['k'],Y,Y,['space'],Y,,,,,,,M,20,
23,2,255,8,8,6,['k'],['k'],Y,N,None,Y,,,,,,,M,20,
23,3,256,6,6,6,['d'],['k'],N,Y,None,N,,,,,,,M,20,
23,4,257,9,9,6,['d'],['k'],N,N,None,Y,,,,,,,M,20,
23,5,258,6,6,6,['k'],['k'],Y,N,None,Y,,,,,,,M,20,
23,6,259,10,10,6,['d'],['d'],Y,Y,None,N,,,,,,,M,20,
23,7,260,8,8,6,['k'],['k'],Y,N,None,Y,,,,,,,M,20,
23,8,261,3,3,6,['k'],['d'],N,Y,['space'],Y,,,,,,,M,20,
23,9,262,7,7,6,['k'],['k'],Y,N,None,Y,,,,,,,M,20,
23,10,263,3,3,6,['d'],['d'],Y,Y,['space'],Y,,,,,,,M,20,
24,0,264,5,5,6,['d'],['d'],Y,Y,None,N,,,,,,,M,20,
24,1,265,0,0,6,['d'],['d'],Y,Y,None,N,,,,,,,M,20,
24,2,266,3,3,6,['k'],['k'],Y,N,None,Y,,,,,,,M,20,
24,3,267,3,3,6,['k'],['k'],Y,N,['space'],N,,,,,,,M,20,
24,4,268,2,2,6,['k'],['k'],Y,Y,['space'],Y,,,,,,,M,20,
24,5,269,4,4,6,['k'],['k'],Y,N,None,Y,,,,,,,M,20,
24,6,270,9,9,6,['k'],['k'],Y,Y,['space'],Y,,,,,,,M,20,
24,7,271,2,2,6,['d'],['d'],Y,Y,None,N,,,,,,,M,20,
24,8,272,0,0,6,['k'],['d'],N,Y,['space'],Y,,,,,,,M,20,
24,9,273,1,1,6,['k'],['k'],Y,Y,None,N,,,,,,,M,20,
24,10,274,8,8,6,['d'],['d'],Y,Y,['space'],Y,,,,,,,M,20,
25,0,275,9,9,6,['d'],['d'],Y,N,None,Y,,,,,,,M,20,
25,1,276,1,1,6,['d'],['k'],N,N,None,Y,,,,,,,M,20,
25,2,277,10,10,6,['d'],['k'],N,Y,['space'],Y,,,,,,,M,20,
25,3,278,10,10,6,['d'],['d'],Y,N,None,Y,,,,,,,M,20,
25,4,279,0,0,6,['d'],['d'],Y,N,None,Y,,,,,,,M,20,
25,5,280,3,3,6,['d'],['d'],Y,N,None,Y,,,,,,,M,20,
25,6,281,4,4,6,['d'],['k'],N,N,None,Y,,,,,,,M,20,
25,7,282,4,4,6,['d'],['d'],Y,N,['space'],N,,,,,,,M,20,
25,8,283,1,1,6,['k'],['k'],Y,Y,['space'],Y,,,,,,,M,20,
25,9,284,5,5,6,['d'],['d'],Y,Y,['space'],Y,,,,,,,M,20,
25,10,285,1,1,6,['d'],['d'],Y,N,None,Y,,,,,,,M,20,
26,0,286,8,8,6,['d'],['d'],Y,Y,['space'],Y,,,,,,,M,20,
26,1,287,7,7,6,['k'],['d'],N,Y,['space'],Y,,,,,,,M,20,
26,2,288,2,2,6,['k'],['k'],Y,Y,['space'],Y,,,,,,,M,20,
26,3,289,10,10,6,['k'],['k'],Y,N,None,Y,,,,,,,M,20,
26,4,290,7,7,6,['d'],['d'],Y,N,None,Y,,,,,,,M,20,
26,5,291,9,9,6,['k'],['k'],Y,N,None,Y,,,,,,,M,20,
26,6,292,2,2,6,['k'],['k'],Y,N,None,Y,,,,,,,M,20,
26,7,293,10,10,6,['d'],['d'],Y,Y,['space'],Y,,,,,,,M,20,
26,8,294,3,3,6,['k'],['k'],Y,Y,None,N,,,,,,,M,20,
26,9,295,10,10,6,['d'],['d'],Y,N,None,Y,,,,,,,M,20,
26,10,296,6,6,6,['k'],['k'],Y,Y,['space'],Y,,,,,,,M,20,
27,0,297,0,0,6,['k'],['k'],Y,N,None,Y,,,,,,,M,20,
27,1,298,5,5,6,['d'],['d'],Y,Y,None,N,,,,,,,M,20,
27,2,299,0,0,6,['k'],['k'],Y,Y,['space'],Y,42,38,24,,,,M,20,
27,3,300,5,5,7,['k'],['k'],Y,,,,,,,,,,M,20,
27,4,301,5,5,7,['d'],['d'],Y,,,,,,,,,,M,20,
27,5,302,0,0,7,['k'],['k'],Y,N,None,Y,,,,,,,M,20,
27,6,303,0,0,7,['k'],['k'],Y,Y,['space'],Y,,,,,,,M,20,
27,7,304,0,0,7,['k'],['k'],Y,Y,['space'],Y,,,,,,,M,20,
27,8,305,1,1,7,['k'],['d'],N,N,None,Y,,,,,,,M,20,
27,9,306,1,1,7,['d'],['d'],Y,Y,['space'],Y,,,,,,,M,20,
27,10,307,3,3,7,['k'],['k'],Y,N,None,Y,,,,,,,M,20,
28,0,308,6,6,7,['d'],['d'],Y,Y,['space'],Y,,,,,,,M,20,
28,1,309,7,7,7,['d'],['d'],Y,Y,None,N,,,,,,,M,20,
28,2,310,4,4,7,['d'],['d'],Y,Y,['space'],Y,,,,,,,M,20,
28,3,311,0,0,7,['k'],['d'],N,Y,['space'],Y,,,,,,,M,20,
28,4,312,0,0,7,['d'],['d'],Y,N,None,Y,,,,,,,M,20,
28,5,313,7,7,7,['d'],['d'],Y,Y,None,N,,,,,,,M,20,
28,6,314,9,9,7,['d'],['d'],Y,N,['space'],N,,,,,,,M,20,
28,7,315,8,8,7,['d'],['d'],Y,N,None,Y,,,,,,,M,20,
28,8,316,3,3,7,['d'],['d'],Y,Y,['space'],Y,,,,,,,M,20,
28,9,317,4,4,7,['d'],['d'],Y,Y,['space'],Y,,,,,,,M,20,
28,10,318,9,9,7,['k'],['k'],Y,Y,['space'],Y,,,,,,,M,20,
29,0,319,5,5,7,['k'],['k'],Y,Y,None,N,,,,,,,M,20,
29,1,320,10,10,7,['d'],['d'],Y,N,None,Y,,,,,,,M,20,
29,2,321,8,8,7,['d'],['d'],Y,N,None,Y,,,,,,,M,20,
29,3,322,10,10,7,['k'],['k'],Y,N,None,Y,,,,,,,M,20,
29,4,323,3,3,7,['d'],['k'],N,N,None,Y,,,,,,,M,20,
29,5,324,0,0,7,['k'],['k'],Y,N,None,Y,,,,,,,M,20,
29,6,325,6,6,7,['d'],['d'],Y,Y,['space'],Y,,,,,,,M,20,
29,7,326,8,8,7,['k'],['k'],Y,N,None,Y,,,,,,,M,20,
29,8,327,9,9,7,['d'],['d'],Y,N,None,Y,,,,,,,M,20,
29,9,328,1,1,7,['k'],['d'],N,N,None,Y,,,,,,,M,20,
29,10,329,7,7,7,['d'],['d'],Y,Y,['space'],Y,,,,,,,M,20,
30,0,330,0,0,7,['d'],['d'],Y,N,['space'],N,,,,,,,M,20,
30,1,331,4,4,7,['d'],['d'],Y,Y,['space'],Y,,,,,,,M,20,
30,2,332,10,10,7,['d'],['d'],Y,Y,['space'],Y,,,,,,,M,20,
30,3,333,3,3,7,['k'],['k'],Y,Y,['space'],Y,,,,,,,M,20,
30,4,334,3,3,7,['k'],['d'],N,Y,['space'],Y,,,,,,,M,20,
30,5,335,3,3,7,['k'],['k'],Y,Y,['d'],N,,,,,,,M,20,
30,6,336,2,2,7,['k'],['k'],Y,N,None,Y,,,,,,,M,20,
30,7,337,8,8,7,['d'],['d'],Y,Y,None,N,,,,,,,M,20,
30,8,338,8,8,7,['d'],['d'],Y,Y,['space'],Y,,,,,,,M,20,
30,9,339,6,6,7,['k'],['d'],N,Y,None,N,,,,,,,M,20,
30,10,340,8,8,7,['d'],['d'],Y,Y,None,N,,,,,,,M,20,
31,0,341,7,7,7,['d'],['d'],Y,N,None,Y,,,,,,,M,20,
31,1,342,9,9,7,['d'],['k'],N,Y,None,N,,,,,,,M,20,
31,2,343,7,7,7,['k'],['k'],Y,N,None,Y,,,,,,,M,20,
31,3,344,8,8,7,['d'],['d'],Y,Y,['space'],Y,,,,,,,M,20,
31,4,345,8,8,7,['k'],['k'],Y,N,None,Y,,,,,,,M,20,
31,5,346,1,1,7,['d'],['k'],N,N,None,Y,,,,,,,M,20,
31,6,347,6,6,7,['k'],['k'],Y,N,None,Y,,,,,,,M,20,
31,7,348,8,8,7,['k'],['k'],Y,N,None,Y,,,,,,,M,20,
31,8,349,4,4,7,['k'],['k'],Y,N,None,Y,42,38,25,,,,M,20,
31,9,350,8,8,8,['d'],['d'],Y,,,,,,,,,,M,20,
31,10,351,1,1,8,['d'],['d'],Y,,,,,,,,,,M,20,
32,0,352,0,0,8,['k'],['k'],Y,Y,['space'],Y,,,,,,,M,20,
32,1,353,8,8,8,['k'],['k'],Y,Y,['space'],Y,,,,,,,M,20,
32,2,354,9,9,8,['k'],['k'],Y,N,None,Y,,,,,,,M,20,
32,3,355,5,5,8,['k'],['k'],Y,Y,['space'],Y,,,,,,,M,20,
32,4,356,5,5,8,['k'],['k'],Y,Y,['space'],Y,,,,,,,M,20,
32,5,357,10,10,8,['d'],['d'],Y,Y,['space'],Y,,,,,,,M,20,
32,6,358,2,2,8,['d'],['d'],Y,Y,['space'],Y,,,,,,,M,20,
32,7,359,9,9,8,['d'],['d'],Y,N,['space'],N,,,,,,,M,20,
32,8,360,8,8,8,['k'],['k'],Y,Y,['space'],Y,,,,,,,M,20,
32,9,361,1,1,8,['k'],['k'],Y,N,None,Y,,,,,,,M,20,
32,10,362,1,1,8,['k'],['d'],N,N,None,Y,,,,,,,M,20,
33,0,363,4,4,8,['d'],['d'],Y,Y,['space'],Y,,,,,,,M,20,
33,1,364,7,7,8,['d'],['d'],Y,N,None,Y,,,,,,,M,20,
33,2,365,0,0,8,['d'],['d'],Y,Y,None,N,,,,,,,M,20,
33,3,366,5,5,8,['d'],['k'],N,N,None,Y,,,,,,,M,20,
33,4,367,1,1,8,['d'],['d'],Y,N,None,Y,,,,,,,M,20,
33,5,368,2,2,8,['d'],['d'],Y,N,None,Y,,,,,,,M,20,
33,6,369,10,10,8,['d'],['d'],Y,Y,None,N,,,,,,,M,20,
33,7,370,4,4,8,['k'],['k'],Y,N,None,Y,,,,,,,M,20,
33,8,371,5,5,8,['d'],['d'],Y,N,['space'],N,,,,,,,M,20,
33,9,372,8,8,8,['d'],['k'],N,N,None,Y,,,,,,,M,20,
33,10,373,2,2,8,['d'],['d'],Y,N,None,Y,,,,,,,M,20,
34,0,374,4,4,8,['k'],['k'],Y,Y,['space'],Y,,,,,,,M,20,
34,1,375,6,6,8,['k'],['k'],Y,Y,None,N,,,,,,,M,20,
34,2,376,2,2,8,['k'],['k'],Y,N,['space'],N,,,,,,,M,20,
34,3,377,7,7,8,['d'],['d'],Y,Y,['space'],Y,,,,,,,M,20,
34,4,378,6,6,8,['d'],['d'],Y,Y,['space'],Y,,,,,,,M,20,
34,5,379,6,6,8,['d'],['d'],Y,Y,['space'],Y,,,,,,,M,20,
34,6,380,6,6,8,['k'],['k'],Y,Y,['space'],Y,,,,,,,M,20,
34,7,381,3,3,8,['k'],['k'],Y,N,None,Y,,,,,,,M,20,
34,8,382,2,2,8,['d'],['d'],Y,N,['space'],N,,,,,,,M,20,
34,9,383,0,0,8,['k'],['d'],N,Y,['space'],Y,,,,,,,M,20,
34,10,384,8,8,8,['k'],['k'],Y,Y,['space'],Y,,,,,,,M,20,
35,0,385,1,1,8,['d'],['d'],Y,Y,['space'],Y,,,,,,,M,20,
35,1,386,4,4,8,['d'],['d'],Y,Y,['space'],Y,,,,,,,M,20,
35,2,387,7,7,8,['d'],['d'],Y,Y,['space'],Y,,,,,,,M,20,
35,3,388,3,3,8,['d'],['d'],Y,N,None,Y,,,,,,,M,20,
35,4,389,2,2,8,['k'],['d'],N,Y,['space'],Y,,,,,,,M,20,
35,5,390,3,3,8,['d'],['k'],N,Y,['space'],Y,,,,,,,M,20,
35,6,391,0,0,8,['k'],['k'],Y,N,None,Y,,,,,,,M,20,
35,7,392,1,1,8,['d'],['d'],Y,N,None,Y,,,,,,,M,20,
35,8,393,5,5,8,['d'],['d'],Y,N,None,Y,,,,,,,M,20,
35,9,394,9,9,8,['d'],['d'],Y,N,None,Y,,,,,,,M,20,
35,10,395,5,5,8,['d'],['d'],Y,N,None,Y,,,,,,,M,20,
36,0,396,2,2,8,['d'],['d'],Y,N,None,Y,,,,,,,M,20,
36,1,397,5,5,8,['k'],['k'],Y,N,None,Y,,,,,,,M,20,
36,2,398,10,10,8,['k'],['k'],Y,N,None,Y,,,,,,,M,20,
36,3,399,1,1,8,['d'],['d'],Y,N,None,Y,44,41,23,,,,M,20,
36,4,400,10,10,9,['k'],['k'],Y,,,,,,,,,,M,20,
36,5,401,4,4,9,['d'],['d'],Y,,,,,,,,,,M,20,
36,6,402,7,7,9,['d'],['d'],Y,N,None,Y,,,,,,,M,20,
36,7,403,9,9,9,['k'],['d'],N,N,None,Y,,,,,,,M,20,
36,8,404,5,5,9,['k'],['k'],Y,Y,['space'],Y,,,,,,,M,20,
36,9,405,2,2,9,['d'],['d'],Y,N,None,Y,,,,,,,M,20,
36,10,406,2,2,9,['d'],['d'],Y,N,None,Y,,,,,,,M,20,
37,0,407,2,2,9,['k'],['k'],Y,Y,['space'],Y,,,,,,,M,20,
37,1,408,5,5,9,['d'],['d'],Y,N,['space'],N,,,,,,,M,20,
37,2,409,6,6,9,['d'],['d'],Y,N,None,Y,,,,,,,M,20,
37,3,410,3,3,9,['d'],['d'],Y,N,None,Y,,,,,,,M,20,
37,4,411,2,2,9,['d'],['d'],Y,N,None,Y,,,,,,,M,20,
37,5,412,5,5,9,['d'],['d'],Y,Y,['space'],Y,,,,,,,M,20,
37,6,413,10,10,9,['k'],['k'],Y,Y,['space'],Y,,,,,,,M,20,
37,7,414,8,8,9,['k'],['k'],Y,N,None,Y,,,,,,,M,20,
37,8,415,10,10,9,['k'],['k'],Y,Y,['space'],Y,,,,,,,M,20,
37,9,416,2,2,9,['k'],['k'],Y,Y,['space'],Y,,,,,,,M,20,
37,10,417,0,0,9,['d'],['k'],N,N,None,Y,,,,,,,M,20,
38,0,418,0,0,9,['d'],['d'],Y,N,['space'],N,,,,,,,M,20,
38,1,419,0,0,9,['d'],['d'],Y,Y,['space'],Y,,,,,,,M,20,
38,2,420,9,9,9,['d'],['d'],Y,N,None,Y,,,,,,,M,20,
38,3,421,10,10,9,['k'],['k'],Y,Y,['space'],Y,,,,,,,M,20,
38,4,422,9,9,9,['d'],['d'],Y,N,None,Y,,,,,,,M,20,
38,5,423,9,9,9,['k'],['k'],Y,N,['space'],N,,,,,,,M,20,
38,6,424,9,9,9,['d'],['d'],Y,Y,['space'],Y,,,,,,,M,20,
38,7,425,0,0,9,['d'],['d'],Y,Y,['space'],Y,,,,,,,M,20,
38,8,426,3,3,9,['d'],['d'],Y,Y,['space'],Y,,,,,,,M,20,
38,9,427,1,1,9,['k'],['k'],Y,N,None,Y,,,,,,,M,20,
38,10,428,1,1,9,['d'],['d'],Y,N,None,Y,,,,,,,M,20,
39,0,429,4,4,9,['k'],['d'],N,Y,['space'],Y,,,,,,,M,20,
39,1,430,7,7,9,['k'],['k'],Y,Y,['space'],Y,,,,,,,M,20,
39,2,431,9,9,9,['k'],['k'],Y,N,['d'],N,,,,,,,M,20,
39,3,432,10,10,9,['k'],['k'],Y,Y,['space'],Y,,,,,,,M,20,
39,4,433,3,3,9,['k'],['d'],N,N,None,Y,,,,,,,M,20,
39,5,434,5,5,9,['k'],['k'],Y,N,None,Y,,,,,,,M,20,
39,6,435,0,0,9,['d'],['k'],N,Y,['space'],Y,,,,,,,M,20,
39,7,436,8,8,9,['d'],['d'],Y,N,None,Y,,,,,,,M,20,
39,8,437,6,6,9,['k'],['k'],Y,N,None,Y,,,,,,,M,20,
39,9,438,1,1,9,['d'],['d'],Y,N,['space'],N,,,,,,,M,20,
39,10,439,9,9,9,['d'],['d'],Y,N,None,Y,,,,,,,M,20,
40,0,440,9,9,9,['k'],['k'],Y,N,['space'],N,,,,,,,M,20,
40,1,441,4,4,9,['k'],['k'],Y,Y,['space'],Y,,,,,,,M,20,
40,2,442,9,9,9,['d'],['d'],Y,N,None,Y,,,,,,,M,20,
40,3,443,2,2,9,['k'],['k'],Y,N,None,Y,,,,,,,M,20,
40,4,444,4,4,9,['k'],['k'],Y,Y,['space'],Y,,,,,,,M,20,
40,5,445,1,1,9,['k'],['k'],Y,Y,['space'],Y,,,,,,,M,20,
40,6,446,2,2,9,['k'],['k'],Y,N,['space'],N,,,,,,,M,20,
40,7,447,5,5,9,['k'],['k'],Y,N,None,Y,,,,,,,M,20,
40,8,448,9,9,9,['k'],['k'],Y,Y,None,N,,,,,,,M,20,
40,9,449,4,4,9,['d'],['d'],Y,N,None,Y,45,40,19,,,,M,20,
40,10,450,3,3,10,['k'],['d'],N,,,,,,,,,,M,20,
41,0,451,1,1,10,['k'],['k'],Y,,,,,,,,,,M,20,
41,1,452,10,10,10,['k'],['k'],Y,N,None,Y,,,,,,,M,20,
41,2,453,8,8,10,['k'],['k'],Y,N,None,Y,,,,,,,M,20,
41,3,454,7,7,10,['k'],['k'],Y,Y,['space'],Y,,,,,,,M,20,
41,4,455,1,1,10,['k'],['k'],Y,N,None,Y,,,,,,,M,20,
41,5,456,3,3,10,['k'],['k'],Y,Y,['space'],Y,,,,,,,M,20,
41,6,457,2,2,10,['k'],['d'],N,N,['space'],N,,,,,,,M,20,
41,7,458,7,7,10,['d'],['d'],Y,N,None,Y,,,,,,,M,20,
41,8,459,7,7,10,['d'],['d'],Y,N,None,Y,,,,,,,M,20,
41,9,460,8,8,10,['k'],['k'],Y,Y,['space'],Y,,,,,,,M,20,
41,10,461,5,5,10,['d'],['d'],Y,N,None,Y,,,,,,,M,20,
42,0,462,2,2,10,['k'],['d'],N,N,None,Y,,,,,,,M,20,
42,1,463,8,8,10,['k'],['k'],Y,N,None,Y,,,,,,,M,20,
42,2,464,7,7,10,['k'],['k'],Y,N,['space'],N,,,,,,,M,20,
42,3,465,10,10,10,['k'],['k'],Y,Y,['space'],Y,,,,,,,M,20,
42,4,466,3,3,10,['d'],['d'],Y,N,None,Y,,,,,,,M,20,
42,5,467,8,8,10,['d'],['d'],Y,Y,['space'],Y,,,,,,,M,20,
42,6,468,1,1,10,['d'],['d'],Y,Y,['space'],Y,,,,,,,M,20,
42,7,469,2,2,10,['k'],['k'],Y,Y,['space'],Y,,,,,,,M,20,
42,8,470,2,2,10,['k'],['k'],Y,Y,['space'],Y,,,,,,,M,20,
42,9,471,5,5,10,['k'],['k'],Y,N,None,Y,,,,,,,M,20,
42,10,472,9,9,10,['d'],['d'],Y,N,None,Y,,,,,,,M,20,
43,0,473,9,9,10,['d'],['d'],Y,N,None,Y,,,,,,,M,20,
43,1,474,2,2,10,['k'],['k'],Y,Y,['space'],Y,,,,,,,M,20,
43,2,475,9,9,10,['k'],['k'],Y,Y,['space'],Y,,,,,,,M,20,
43,3,476,7,7,10,['d'],['d'],Y,Y,['space'],Y,,,,,,,M,20,
43,4,477,1,1,10,['k'],['k'],Y,N,None,Y,,,,,,,M,20,
43,5,478,1,1,10,['d'],['d'],Y,Y,['space'],Y,,,,,,,M,20,
43,6,479,1,1,10,['d'],['d'],Y,Y,['space'],Y,,,,,,,M,20,
43,7,480,10,10,10,['k'],['d'],N,N,None,Y,,,,,,,M,20,
43,8,481,10,10,10,['k'],['k'],Y,Y,['space'],Y,,,,,,,M,20,
43,9,482,5,5,10,['d'],['d'],Y,Y,['space'],Y,,,,,,,M,20,
43,10,483,4,4,10,['k'],['k'],Y,N,None,Y,,,,,,,M,20,
44,0,484,4,4,10,['d'],['d'],Y,N,None,Y,,,,,,,M,20,
44,1,485,6,6,10,['k'],['k'],Y,Y,['space'],Y,,,,,,,M,20,
44,2,486,10,10,10,['k'],['k'],Y,N,None,Y,,,,,,,M,20,
44,3,487,6,6,10,['d'],['d'],Y,N,None,Y,,,,,,,M,20,
44,4,488,3,3,10,['d'],['k'],N,Y,['space'],Y,,,,,,,M,20,
44,5,489,3,3,10,['d'],['d'],Y,N,None,Y,,,,,,,M,20,
44,6,490,10,10,10,['d'],['d'],Y,Y,None,N,,,,,,,M,20,
44,7,491,0,0,10,['k'],['k'],Y,N,None,Y,,,,,,,M,20,
44,8,492,10,10,10,['d'],['d'],Y,Y,['space'],Y,,,,,,,M,20,
44,9,493,0,0,10,['d'],['d'],Y,Y,['space'],Y,,,,,,,M,20,
44,10,494,9,9,10,['d'],['d'],Y,N,None,Y,,,,,,,M,20,
45,0,495,0,0,10,['d'],['d'],Y,Y,['space'],Y,,,,,,,M,20,
45,1,496,5,5,10,['k'],['k'],Y,N,None,Y,,,,,,,M,20,
45,2,497,3,3,10,['k'],['k'],Y,N,None,Y,,,,,,,M,20,
45,3,498,7,7,10,['k'],['k'],Y,Y,['space'],Y,,,,,,,M,20,
45,4,499,8,8,10,['d'],['d'],Y,N,None,Y,45,45,22,,,,M,20,
45,5,500,9,9,11,['k'],['k'],N,,,,,,,Y,Y,Y,M,20,
45,6,501,4,4,11,['k'],['d'],Y,,,,,,,,Y,Y,M,20,
45,7,502,0,0,11,['d'],['d'],N,Y,['space'],Y,,,,,Y,Y,M,20,
45,8,503,5,5,11,['k'],['d'],Y,Y,None,N,,,,,Y,Y,M,20,
45,9,504,3,3,11,['d'],['k'],Y,Y,['space'],Y,,,,,Y,Y,M,20,
45,10,505,3,3,11,['k'],['d'],Y,N,None,Y,,,,,Y,Y,M,20,
46,0,506,10,10,11,['d'],['k'],Y,Y,['space'],Y,,,,,Y,Y,M,20,
46,1,507,2,2,11,['d'],['k'],Y,N,None,Y,,,,,Y,Y,M,20,
46,2,508,1,1,11,['k'],['d'],Y,Y,None,N,,,,,Y,Y,M,20,
46,3,509,4,4,11,['d'],['k'],Y,Y,['space'],Y,,,,,Y,Y,M,20,
46,4,510,6,6,11,['k'],['d'],Y,Y,['space'],Y,,,,,Y,Y,M,20,
46,5,511,8,8,11,['d'],['k'],Y,N,None,Y,,,,,Y,Y,M,20,
46,6,512,2,2,11,['k'],['d'],Y,N,['space'],N,,,,,Y,Y,M,20,
46,7,513,8,8,11,['k'],['k'],N,Y,['space'],Y,,,,,Y,Y,M,20,
46,8,514,2,2,11,['k'],['d'],Y,N,['space'],N,,,,,Y,Y,M,20,
46,9,515,8,8,11,['k'],['d'],Y,N,None,Y,,,,,Y,Y,M,20,
46,10,516,9,9,11,['d'],['k'],Y,N,None,Y,,,,,Y,Y,M,20,
47,0,517,7,7,11,['k'],['d'],Y,N,None,Y,,,,,Y,Y,M,20,
47,1,518,5,5,11,['d'],['k'],Y,N,None,Y,,,,,Y,Y,M,20,
47,2,519,6,6,11,['d'],['k'],Y,Y,None,N,,,,,Y,Y,M,20,
47,3,520,10,10,11,['k'],['d'],Y,N,['space'],N,,,,,Y,Y,M,20,
47,4,521,4,4,11,['k'],['d'],Y,Y,['space'],Y,,,,,Y,Y,M,20,
47,5,522,2,2,11,['k'],['d'],Y,Y,['k'],N,,,,,Y,Y,M,20,
47,6,523,3,3,11,['k'],['k'],N,N,None,Y,,,,,Y,Y,M,20,
47,7,524,2,2,11,['d'],['d'],N,N,None,Y,,,,,Y,Y,M,20,
47,8,525,9,9,11,['k'],['d'],Y,Y,None,N,,,,,Y,Y,M,20,
47,9,526,1,1,11,['d'],['k'],Y,Y,None,N,,,,,Y,Y,M,20,
47,10,527,0,0,11,['d'],['k'],Y,N,None,Y,,,,,Y,Y,M,20,
48,0,528,3,3,11,['d'],['k'],Y,Y,['space'],Y,,,,,Y,Y,M,20,
48,1,529,9,9,11,['d'],['k'],Y,Y,['space'],Y,,,,,Y,Y,M,20,
48,2,530,7,7,11,['d'],['k'],Y,N,None,Y,,,,,Y,Y,M,20,
48,3,531,9,9,11,['k'],['d'],Y,Y,['space'],Y,,,,,Y,Y,M,20,
48,4,532,5,5,11,['k'],['d'],Y,Y,['space'],Y,,,,,Y,Y,M,20,
48,5,533,7,7,11,['d'],['k'],Y,Y,['space'],Y,,,,,Y,Y,M,20,
48,6,534,6,6,11,['d'],['k'],Y,N,None,Y,,,,,Y,Y,M,20,
48,7,535,6,6,11,['d'],['k'],Y,N,None,Y,,,,,Y,Y,M,20,
48,8,536,5,5,11,['d'],['d'],N,Y,['space'],Y,,,,,Y,Y,M,20,
48,9,537,1,1,11,['d'],['k'],Y,Y,['space'],Y,,,,,Y,Y,M,20,
48,10,538,4,4,11,['k'],['d'],Y,N,None,Y,,,,,Y,Y,M,20,
49,0,539,6,6,11,['k'],['k'],N,N,None,Y,,,,,Y,Y,M,20,
49,1,540,6,6,11,['d'],['d'],N,Y,None,N,,,,,Y,Y,M,20,
49,2,541,6,6,11,['k'],['d'],Y,Y,None,N,,,,,Y,Y,M,20,
49,3,542,6,6,11,['d'],['d'],N,N,None,Y,,,,,Y,Y,M,20,
49,4,543,2,2,11,['k'],['d'],Y,Y,['space'],Y,,,,,Y,Y,M,20,
49,5,544,5,5,11,['k'],['d'],Y,N,None,Y,,,,,Y,Y,M,20,
49,6,545,7,7,11,['d'],['d'],N,N,None,Y,,,,,Y,Y,M,20,
49,7,546,2,2,11,['k'],['d'],Y,N,None,Y,,,,,Y,Y,M,20,
49,8,547,8,8,11,['d'],['k'],Y,N,None,Y,,,,,Y,Y,M,20,
49,9,548,8,8,11,['d'],['k'],Y,Y,['space'],Y,,,,,Y,Y,M,20,
49,10,549,7,7,11,['k'],['d'],Y,Y,['space'],Y,40,37,25,,Y,Y,M,20,
50,0,550,9,9,12,['d'],['k'],Y,,,,,,,,Y,Y,M,20,
50,1,551,3,3,12,['d'],['k'],Y,,,,,,,,Y,Y,M,20,
50,2,552,6,6,12,['d'],['k'],Y,Y,['space'],Y,,,,,Y,Y,M,20,
50,3,553,7,7,12,['d'],['k'],Y,Y,None,N,,,,,Y,Y,M,20,
50,4,554,7,7,12,['d'],['k'],Y,Y,None,N,,,,,Y,Y,M,20,
50,5,555,8,8,12,['d'],['k'],Y,Y,['space'],Y,,,,,Y,Y,M,20,
50,6,556,4,4,12,['d'],['k'],Y,N,None,Y,,,,,Y,Y,M,20,
50,7,557,5,5,12,['d'],['k'],Y,Y,['space'],Y,,,,,Y,Y,M,20,
50,8,558,7,7,12,['k'],['d'],Y,N,None,Y,,,,,Y,Y,M,20,
50,9,559,0,0,12,['d'],['k'],Y,N,None,Y,,,,,Y,Y,M,20,
50,10,560,2,2,12,['k'],['d'],Y,Y,['space'],Y,,,,,Y,Y,M,20,
51,0,561,10,10,12,['k'],['d'],Y,N,None,Y,,,,,Y,Y,M,20,
51,1,562,4,4,12,['k'],['d'],Y,N,None,Y,,,,,Y,Y,M,20,
51,2,563,4,4,12,['d'],['k'],Y,Y,['space'],Y,,,,,Y,Y,M,20,
51,3,564,10,10,12,None,,Timed out,N,['space'],N,,,,,Y,Y,M,20,
51,4,565,2,2,12,['d'],['k'],Y,Y,['space'],Y,,,,,Y,Y,M,20,
51,5,566,9,9,12,['k'],['d'],Y,Y,['space'],Y,,,,,Y,Y,M,20,
51,6,567,2,2,12,['k'],['k'],N,N,None,Y,,,,,Y,Y,M,20,
51,7,568,0,0,12,['k'],['d'],Y,N,None,Y,,,,,Y,Y,M,20,
51,8,569,3,3,12,['d'],['k'],Y,Y,None,N,,,,,Y,Y,M,20,
51,9,570,2,2,12,['d'],['k'],Y,N,['k'],N,,,,,Y,Y,M,20,
51,10,571,5,5,12,['k'],['d'],Y,N,None,Y,,,,,Y,Y,M,20,
52,0,572,6,6,12,['d'],['k'],Y,Y,None,N,,,,,Y,Y,M,20,
52,1,573,8,8,12,['k'],['d'],Y,N,None,Y,,,,,Y,Y,M,20,
52,2,574,2,2,12,['k'],['d'],Y,Y,['space'],Y,,,,,Y,Y,M,20,
52,3,575,10,10,12,['k'],['d'],Y,Y,['space'],Y,,,,,Y,Y,M,20,
52,4,576,6,6,12,['d'],['k'],Y,N,None,Y,,,,,Y,Y,M,20,
52,5,577,2,2,12,['d'],['k'],Y,Y,['space'],Y,,,,,Y,Y,M,20,
52,6,578,5,5,12,['k'],['d'],Y,Y,['space'],Y,,,,,Y,Y,M,20,
52,7,579,0,0,12,['d'],['d'],N,Y,['space'],Y,,,,,Y,Y,M,20,
52,8,580,5,5,12,['d'],['k'],Y,Y,['space'],Y,,,,,Y,Y,M,20,
52,9,581,5,5,12,['k'],['d'],Y,Y,['space'],Y,,,,,Y,Y,M,20,
52,10,582,7,7,12,['k'],['d'],Y,Y,['space'],Y,,,,,Y,Y,M,20,
53,0,583,1,1,12,['d'],['k'],Y,Y,['space'],Y,,,,,Y,Y,M,20,
53,1,584,6,6,12,['k'],['k'],N,Y,['space'],Y,,,,,Y,Y,M,20,
53,2,585,8,8,12,['d'],['d'],N,N,None,Y,,,,,Y,Y,M,20,
53,3,586,9,9,12,['k'],['k'],N,N,None,Y,,,,,Y,Y,M,20,
53,4,587,9,9,12,['d'],['k'],Y,N,['space'],N,,,,,Y,Y,M,20,
53,5,588,6,6,12,['k'],['k'],N,Y,['space'],Y,,,,,Y,Y,M,20,
53,6,589,5,5,12,['k'],['k'],N,N,['space'],N,,,,,Y,Y,M,20,
53,7,590,5,5,12,['k'],['d'],Y,Y,['space'],Y,,,,,Y,Y,M,20,
53,8,591,6,6,12,['k'],['d'],Y,N,None,Y,,,,,Y,Y,M,20,
53,9,592,10,10,12,['d'],['k'],Y,N,None,Y,,,,,Y,Y,M,20,
53,10,593,6,6,12,['k'],['d'],Y,Y,None,N,,,,,Y,Y,M,20,
54,0,594,6,6,12,['d'],['k'],Y,Y,None,N,,,,,Y,Y,M,20,
54,1,595,5,5,12,['k'],['d'],Y,N,None,Y,,,,,Y,Y,M,20,
54,2,596,4,4,12,['d'],['k'],Y,N,None,Y,,,,,Y,Y,M,20,
54,3,597,5,5,12,['d'],['k'],Y,N,None,Y,,,,,Y,Y,M,20,
54,4,598,5,5,12,['k'],['d'],Y,N,None,Y,,,,,Y,Y,M,20,
54,5,599,5,5,12,['d'],['k'],Y,N,None,Y,42,38,25,,Y,Y,M,20,
