.thisRepN,.thisTrialN,.thisN,.thisIndex,.thisTrial,Block Number,Key pressed,Category,Correct?,Int Match?,Int Response,Int Correct?,Line Accuracy,Interference Accuracy,Matching Interferences,New instruction shown?,Buttons switched?,Fast?,gender,age,
0,0,0,11,11,1,['k'],['k'],Y,,,,,,,,,,Female,22,
0,1,1,12,12,1,['k'],['k'],Y,,,,,,,,,,Female,22,
0,2,2,11,11,1,['k'],['d'],N,N,['d'],N,,,,,,,Female,22,
0,3,3,14,14,1,['d'],['d'],Y,Y,None,N,,,,,,,Female,22,
0,4,4,8,8,1,['k'],['k'],Y,N,['space'],N,,,,,,,Female,22,
0,5,5,2,2,1,['k'],['d'],N,Y,None,N,,,,,,,Female,22,
0,6,6,4,4,1,['d'],['d'],Y,Y,None,N,,,,,,,Female,22,
0,7,7,9,9,1,['k'],['k'],Y,N,['space'],N,,,,,,,Female,22,
0,8,8,8,8,1,['k'],['k'],Y,Y,['space'],Y,,,,,,,Female,22,
0,9,9,0,0,1,['k'],['k'],Y,N,['d'],N,,,,,,,Female,22,
0,10,10,12,12,1,['k'],['d'],N,N,None,Y,,,,,,,Female,22,
0,11,11,0,0,1,['k'],['k'],Y,N,None,Y,,,,,,,Female,22,
0,12,12,13,13,1,['d'],['d'],Y,N,None,Y,,,,,,,Female,22,
0,13,13,14,14,1,['d'],['d'],Y,Y,['space'],Y,,,,,,,Female,22,
0,14,14,1,1,1,['d'],['d'],Y,Y,None,N,,,,,,,Female,22,
1,0,15,14,14,1,['d'],['k'],N,Y,['space'],Y,,,,,,,Female,22,
1,1,16,9,9,1,['k'],['d'],N,Y,None,N,,,,,,,Female,22,
1,2,17,7,7,1,['d'],['d'],Y,Y,['space'],Y,,,,,,,Female,22,
1,3,18,6,6,1,['d'],['d'],Y,N,None,Y,,,,,,,Female,22,
1,4,19,4,4,1,['k'],['d'],N,Y,['space'],Y,,,,,,,Female,22,
1,5,20,6,6,1,['d'],['d'],Y,Y,None,N,,,,,,,Female,22,
1,6,21,4,4,1,['k'],['k'],Y,N,None,Y,,,,,,,Female,22,
1,7,22,0,0,1,['d'],['d'],Y,Y,None,N,,,,,,,Female,22,
1,8,23,12,12,1,['d'],['k'],N,Y,None,N,,,,,,,Female,22,
1,9,24,9,9,1,['k'],['k'],Y,Y,['space'],Y,,,,,,,Female,22,
1,10,25,10,10,1,['k'],['k'],Y,Y,['space'],Y,,,,,,,Female,22,
1,11,26,0,0,1,['k'],['k'],Y,N,None,Y,,,,,,,Female,22,
1,12,27,6,6,1,['k'],['k'],Y,N,['space'],N,,,,,,,Female,22,
1,13,28,7,7,1,['k'],['k'],Y,Y,['space'],Y,,,,,,,Female,22,
1,14,29,7,7,1,['d'],['d'],Y,N,None,Y,,,,,,,Female,22,
2,0,30,8,8,1,['k'],['k'],Y,Y,None,N,,,,,,,Female,22,
2,1,31,14,14,1,['k'],['k'],Y,Y,None,N,,,,,,,Female,22,
2,2,32,3,3,1,['d'],['k'],N,N,None,Y,,,,,,,Female,22,
2,3,33,9,9,1,['d'],['d'],Y,N,['space'],N,,,,,,,Female,22,
2,4,34,3,3,1,['d'],['d'],Y,N,None,Y,,,,,,,Female,22,
2,5,35,14,14,1,['d'],['d'],Y,N,None,Y,,,,,,,Female,22,
2,6,36,8,8,1,['k'],['k'],Y,N,None,Y,,,,,,,Female,22,
2,7,37,12,12,1,['k'],['d'],N,N,None,Y,,,,,,,Female,22,
2,8,38,12,12,1,['d'],['d'],Y,N,None,Y,,,,,,,Female,22,
2,9,39,9,9,1,['k'],['k'],Y,Y,['space'],Y,,,,,,,Female,22,
2,10,40,11,11,1,['d'],['d'],Y,N,None,Y,,,,,,,Female,22,
2,11,41,14,14,1,['k'],['k'],Y,Y,['space'],Y,,,,,,,Female,22,
2,12,42,10,10,1,['d'],['d'],Y,Y,None,N,,,,,,,Female,22,
2,13,43,4,4,1,['k'],['k'],Y,Y,['k'],N,,,,,,,Female,22,
2,14,44,14,14,1,['k'],['k'],Y,N,None,Y,,,,,,,Female,22,
3,0,45,5,5,1,['k'],['k'],Y,N,None,Y,,,,,,,Female,22,
3,1,46,3,3,1,['k'],['k'],Y,N,['space'],N,,,,,,,Female,22,
3,2,47,10,10,1,['k'],['k'],Y,Y,None,N,,,,,,,Female,22,
3,3,48,1,1,1,['d'],['k'],N,N,None,Y,,,,,,,Female,22,
3,4,49,7,7,1,['k'],['k'],Y,N,None,Y,40,28,23,,,,Female,22,
3,5,50,13,13,2,['k'],['k'],Y,,,,,,,,,,Female,22,
3,6,51,2,2,2,['k'],['d'],N,,,,,,,,,,Female,22,
3,7,52,12,12,2,['k'],['k'],Y,N,None,Y,,,,,,,Female,22,
3,8,53,10,10,2,['d'],['d'],Y,Y,None,N,,,,,,,Female,22,
3,9,54,8,8,2,['d'],['d'],Y,Y,None,N,,,,,,,Female,22,
3,10,55,3,3,2,['d'],['k'],N,N,None,Y,,,,,,,Female,22,
3,11,56,10,10,2,['k'],['k'],Y,Y,['space'],Y,,,,,,,Female,22,
3,12,57,1,1,2,['d'],['d'],Y,Y,None,N,,,,,,,Female,22,
3,13,58,10,10,2,['k'],['d'],N,Y,['space'],Y,,,,,,,Female,22,
3,14,59,9,9,2,['k'],['k'],Y,Y,None,N,,,,,,,Female,22,
4,0,60,4,4,2,['d'],['d'],Y,N,None,Y,,,,,,,Female,22,
4,1,61,7,7,2,['k'],['k'],Y,N,None,Y,,,,,,,Female,22,
4,2,62,5,5,2,['k'],['d'],N,N,None,Y,,,,,,,Female,22,
4,3,63,9,9,2,['k'],['k'],Y,N,None,Y,,,,,,,Female,22,
4,4,64,2,2,2,['d'],['d'],Y,N,None,Y,,,,,,,Female,22,
4,5,65,3,3,2,['d'],['d'],Y,Y,['space'],Y,,,,,,,Female,22,
4,6,66,3,3,2,['d'],['d'],Y,Y,None,N,,,,,,,Female,22,
4,7,67,6,6,2,['k'],['k'],Y,Y,None,N,,,,,,,Female,22,
4,8,68,2,2,2,['k'],['d'],N,Y,None,N,,,,,,,Female,22,
4,9,69,9,9,2,['d'],['d'],Y,N,None,Y,,,,,,,Female,22,
4,10,70,10,10,2,['d'],['d'],Y,N,['space'],N,,,,,,,Female,22,
4,11,71,9,9,2,['d'],['k'],N,Y,None,N,,,,,,,Female,22,
4,12,72,6,6,2,['k'],['d'],N,Y,['space'],Y,,,,,,,Female,22,
4,13,73,7,7,2,['d'],['d'],Y,Y,None,N,,,,,,,Female,22,
4,14,74,6,6,2,['k'],['k'],Y,Y,None,N,,,,,,,Female,22,
5,0,75,0,0,2,['k'],['k'],Y,Y,None,N,,,,,,,Female,22,
5,1,76,10,10,2,['k'],['k'],Y,N,None,Y,,,,,,,Female,22,
5,2,77,10,10,2,['d'],['d'],Y,Y,['space'],Y,,,,,,,Female,22,
5,3,78,10,10,2,['k'],['k'],Y,Y,None,N,,,,,,,Female,22,
5,4,79,0,0,2,['k'],['k'],Y,Y,['space'],Y,,,,,,,Female,22,
5,5,80,11,11,2,['k'],['k'],Y,Y,None,N,,,,,,,Female,22,
5,6,81,10,10,2,['d'],['d'],Y,N,None,Y,,,,,,,Female,22,
5,7,82,0,0,2,['k'],['k'],Y,N,['space'],N,,,,,,,Female,22,
5,8,83,3,3,2,['d'],['k'],N,Y,['d'],N,,,,,,,Female,22,
5,9,84,7,7,2,['d'],['d'],Y,N,['space'],N,,,,,,,Female,22,
5,10,85,2,2,2,['d'],['d'],Y,Y,None,N,,,,,,,Female,22,
5,11,86,10,10,2,['d'],['d'],Y,Y,None,N,,,,,,,Female,22,
5,12,87,7,7,2,['d'],['d'],Y,Y,['space'],Y,,,,,,,Female,22,
5,13,88,13,13,2,['d'],['d'],Y,N,None,Y,,,,,,,Female,22,
5,14,89,13,13,2,['k'],['k'],Y,N,None,Y,,,,,,,Female,22,
6,0,90,10,10,2,['d'],['d'],Y,Y,None,N,,,,,,,Female,22,
6,1,91,12,12,2,['d'],['d'],Y,Y,['space'],Y,,,,,,,Female,22,
6,2,92,11,11,2,['d'],['d'],Y,N,None,Y,,,,,,,Female,22,
6,3,93,14,14,2,['d'],['d'],Y,N,None,Y,,,,,,,Female,22,
6,4,94,3,3,2,['d'],['d'],Y,N,None,Y,,,,,,,Female,22,
6,5,95,13,13,2,['d'],['d'],Y,N,None,Y,,,,,,,Female,22,
6,6,96,0,0,2,['k'],['k'],Y,N,None,Y,,,,,,,Female,22,
6,7,97,6,6,2,['k'],['k'],Y,N,None,Y,,,,,,,Female,22,
6,8,98,3,3,2,['k'],['k'],Y,N,None,Y,,,,,,,Female,22,
6,9,99,13,13,2,['k'],['k'],Y,N,None,Y,42,28,25,,,,Female,22,
6,10,100,14,14,3,['k'],['k'],Y,,,,,,,,,,Female,22,
6,11,101,14,14,3,['d'],['d'],Y,,,,,,,,,,Female,22,
6,12,102,1,1,3,['d'],['k'],N,N,None,Y,,,,,,,Female,22,
6,13,103,3,3,3,['k'],['d'],N,Y,None,N,,,,,,,Female,22,
6,14,104,10,10,3,['k'],['k'],Y,Y,['space'],Y,,,,,,,Female,22,
7,0,105,14,14,3,['d'],['d'],Y,Y,None,N,,,,,,,Female,22,
7,1,106,7,7,3,['d'],['d'],Y,N,None,Y,,,,,,,Female,22,
7,2,107,0,0,3,['k'],['k'],Y,Y,None,N,,,,,,,Female,22,
7,3,108,3,3,3,['k'],['k'],Y,N,None,Y,,,,,,,Female,22,
7,4,109,9,9,3,['k'],['k'],Y,Y,['space'],Y,,,,,,,Female,22,
7,5,110,13,13,3,['k'],['k'],Y,Y,None,N,,,,,,,Female,22,
7,6,111,7,7,3,['k'],['d'],N,N,None,Y,,,,,,,Female,22,
7,7,112,2,2,3,['k'],['d'],N,Y,None,N,,,,,,,Female,22,
7,8,113,6,6,3,['d'],['d'],Y,N,None,Y,,,,,,,Female,22,
7,9,114,10,10,3,['k'],['k'],Y,N,None,Y,,,,,,,Female,22,
7,10,115,1,1,3,['k'],['k'],Y,Y,None,N,,,,,,,Female,22,
7,11,116,0,0,3,['d'],['d'],Y,N,None,Y,,,,,,,Female,22,
7,12,117,2,2,3,['d'],['d'],Y,N,None,Y,,,,,,,Female,22,
7,13,118,9,9,3,['k'],['k'],Y,Y,None,N,,,,,,,Female,22,
7,14,119,13,13,3,['d'],['k'],N,N,None,Y,,,,,,,Female,22,
8,0,120,3,3,3,['k'],['k'],Y,Y,None,N,,,,,,,Female,22,
8,1,121,3,3,3,['k'],['d'],N,N,None,Y,,,,,,,Female,22,
8,2,122,9,9,3,['k'],['k'],Y,Y,None,N,,,,,,,Female,22,
8,3,123,1,1,3,['d'],['d'],Y,N,None,Y,,,,,,,Female,22,
8,4,124,6,6,3,['d'],['d'],Y,Y,None,N,,,,,,,Female,22,
8,5,125,10,10,3,['d'],['d'],Y,N,None,Y,,,,,,,Female,22,
8,6,126,7,7,3,['k'],['d'],N,Y,None,N,,,,,,,Female,22,
8,7,127,2,2,3,['k'],['d'],N,Y,None,N,,,,,,,Female,22,
8,8,128,1,1,3,['k'],['k'],Y,N,None,Y,,,,,,,Female,22,
8,9,129,8,8,3,['k'],['k'],Y,N,None,Y,,,,,,,Female,22,
8,10,130,7,7,3,['k'],['k'],Y,N,None,Y,,,,,,,Female,22,
8,11,131,3,3,3,['d'],['k'],N,Y,None,N,,,,,,,Female,22,
8,12,132,2,2,3,['k'],['d'],N,Y,None,N,,,,,,,Female,22,
8,13,133,10,10,3,['k'],['k'],Y,N,None,Y,,,,,,,Female,22,
8,14,134,10,10,3,['d'],['d'],Y,N,None,Y,,,,,,,Female,22,
9,0,135,3,3,3,['k'],['k'],Y,Y,None,N,,,,,,,Female,22,
9,1,136,12,12,3,['k'],['d'],N,Y,['space'],Y,,,,,,,Female,22,
9,2,137,9,9,3,['k'],['k'],Y,N,['space'],N,,,,,,,Female,22,
9,3,138,4,4,3,['k'],['k'],Y,N,None,Y,,,,,,,Female,22,
9,4,139,4,4,3,['k'],['k'],Y,Y,['space'],Y,,,,,,,Female,22,
9,5,140,6,6,3,['d'],['d'],Y,N,None,Y,,,,,,,Female,22,
9,6,141,10,10,3,['d'],['d'],Y,N,['space'],N,,,,,,,Female,22,
9,7,142,13,13,3,['k'],['d'],N,N,None,Y,,,,,,,Female,22,
9,8,143,0,0,3,['k'],['k'],Y,Y,['space'],Y,,,,,,,Female,22,
9,9,144,6,6,3,['d'],['d'],Y,Y,['space'],Y,,,,,,,Female,22,
9,10,145,2,2,3,['k'],['k'],Y,Y,['space'],Y,,,,,,,Female,22,
9,11,146,1,1,3,['d'],['k'],N,N,None,Y,,,,,,,Female,22,
9,12,147,7,7,3,['d'],['d'],Y,N,None,Y,,,,,,,Female,22,
9,13,148,8,8,3,['k'],['k'],Y,N,None,Y,,,,,,,Female,22,
9,14,149,12,12,3,['k'],['k'],Y,N,None,Y,37,31,22,,,,Female,22,
10,0,150,0,0,4,['k'],['k'],Y,,,,,,,,,,Female,22,
10,1,151,4,4,4,['k'],['k'],Y,,,,,,,,,,Female,22,
10,2,152,2,2,4,['d'],['d'],Y,Y,['space'],Y,,,,,,,Female,22,
10,3,153,12,12,4,['k'],['k'],Y,Y,None,N,,,,,,,Female,22,
10,4,154,10,10,4,['k'],['k'],Y,N,None,Y,,,,,,,Female,22,
10,5,155,13,13,4,['k'],['k'],Y,Y,None,N,,,,,,,Female,22,
10,6,156,9,9,4,['d'],['d'],Y,Y,['space'],Y,,,,,,,Female,22,
10,7,157,7,7,4,['d'],['d'],Y,Y,None,N,,,,,,,Female,22,
10,8,158,11,11,4,['k'],['k'],Y,Y,['space'],Y,,,,,,,Female,22,
10,9,159,3,3,4,['k'],['k'],Y,Y,['space'],Y,,,,,,,Female,22,
10,10,160,6,6,4,['k'],['k'],Y,N,None,Y,,,,,,,Female,22,
10,11,161,11,11,4,['d'],['d'],Y,Y,['space'],Y,,,,,,,Female,22,
10,12,162,12,12,4,['k'],['k'],Y,N,None,Y,,,,,,,Female,22,
10,13,163,6,6,4,['k'],['k'],Y,N,None,Y,,,,,,,Female,22,
10,14,164,9,9,4,['d'],['d'],Y,N,['space'],N,,,,,,,Female,22,
11,0,165,13,13,4,['k'],['k'],Y,N,None,Y,,,,,,,Female,22,
11,1,166,2,2,4,['d'],['d'],Y,Y,['space'],Y,,,,,,,Female,22,
11,2,167,7,7,4,['k'],['d'],N,N,None,Y,,,,,,,Female,22,
11,3,168,0,0,4,['d'],['d'],Y,Y,['space'],Y,,,,,,,Female,22,
11,4,169,8,8,4,['k'],['k'],Y,Y,None,N,,,,,,,Female,22,
11,5,170,6,6,4,['d'],['d'],Y,N,None,Y,,,,,,,Female,22,
11,6,171,2,2,4,['k'],['k'],Y,N,None,Y,,,,,,,Female,22,
11,7,172,9,9,4,['k'],['k'],Y,Y,None,N,,,,,,,Female,22,
11,8,173,4,4,4,['d'],['d'],Y,Y,['space'],Y,,,,,,,Female,22,
11,9,174,8,8,4,['d'],['d'],Y,N,None,Y,,,,,,,Female,22,
11,10,175,1,1,4,['k'],['k'],Y,Y,['space'],Y,,,,,,,Female,22,
11,11,176,13,13,4,['k'],['k'],Y,Y,None,N,,,,,,,Female,22,
11,12,177,8,8,4,['k'],['k'],Y,Y,['space'],Y,,,,,,,Female,22,
11,13,178,3,3,4,['d'],['d'],Y,N,None,Y,,,,,,,Female,22,
11,14,179,12,12,4,['d'],['d'],Y,Y,['space'],Y,,,,,,,Female,22,
12,0,180,7,7,4,['d'],['d'],Y,Y,None,N,,,,,,,Female,22,
12,1,181,3,3,4,['d'],['d'],Y,Y,['space'],Y,,,,,,,Female,22,
12,2,182,5,5,4,['k'],['k'],Y,Y,None,N,,,,,,,Female,22,
12,3,183,5,5,4,['k'],['k'],Y,Y,None,N,,,,,,,Female,22,
12,4,184,8,8,4,['d'],['d'],Y,N,None,Y,,,,,,,Female,22,
12,5,185,3,3,4,['k'],['d'],N,N,None,Y,,,,,,,Female,22,
12,6,186,1,1,4,['k'],['k'],Y,Y,None,N,,,,,,,Female,22,
12,7,187,2,2,4,['k'],['k'],Y,N,['space'],N,,,,,,,Female,22,
12,8,188,7,7,4,['d'],['d'],Y,Y,None,N,,,,,,,Female,22,
12,9,189,5,5,4,['k'],['d'],N,N,None,Y,,,,,,,Female,22,
12,10,190,2,2,4,['k'],['k'],Y,N,['space'],N,,,,,,,Female,22,
12,11,191,11,11,4,['k'],['d'],N,N,None,Y,,,,,,,Female,22,
12,12,192,4,4,4,['k'],['k'],Y,Y,['space'],Y,,,,,,,Female,22,
12,13,193,8,8,4,['k'],['k'],Y,N,None,Y,,,,,,,Female,22,
12,14,194,5,5,4,['k'],['d'],N,Y,['space'],Y,,,,,,,Female,22,
13,0,195,4,4,4,['d'],['d'],Y,N,None,Y,,,,,,,Female,22,
13,1,196,3,3,4,['k'],['k'],Y,N,['space'],N,,,,,,,Female,22,
13,2,197,2,2,4,['d'],['d'],Y,N,['space'],N,,,,,,,Female,22,
13,3,198,13,13,4,['k'],['k'],Y,N,None,Y,,,,,,,Female,22,
13,4,199,14,14,4,['k'],['k'],Y,N,None,Y,45,32,25,,,,Female,22,
13,5,200,5,5,5,['d'],['d'],Y,,,,,,,,,,Female,22,
13,6,201,0,0,5,['d'],['d'],Y,,,,,,,,,,Female,22,
13,7,202,7,7,5,['d'],['d'],Y,Y,None,N,,,,,,,Female,22,
13,8,203,9,9,5,['k'],['k'],Y,N,None,Y,,,,,,,Female,22,
13,9,204,9,9,5,['k'],['k'],Y,N,None,Y,,,,,,,Female,22,
13,10,205,2,2,5,['k'],['k'],Y,Y,['space'],Y,,,,,,,Female,22,
13,11,206,13,13,5,['d'],['d'],Y,Y,['space'],Y,,,,,,,Female,22,
13,12,207,11,11,5,['k'],['d'],N,Y,['space'],Y,,,,,,,Female,22,
13,13,208,12,12,5,['k'],['k'],Y,N,None,Y,,,,,,,Female,22,
13,14,209,5,5,5,['d'],['d'],Y,Y,None,N,,,,,,,Female,22,
14,0,210,10,10,5,['k'],['k'],Y,Y,None,N,,,,,,,Female,22,
14,1,211,4,4,5,['d'],['d'],Y,Y,['space'],Y,,,,,,,Female,22,
14,2,212,5,5,5,['k'],['k'],Y,Y,['space'],Y,,,,,,,Female,22,
14,3,213,6,6,5,['d'],['d'],Y,Y,['space'],Y,,,,,,,Female,22,
14,4,214,1,1,5,['k'],['k'],Y,N,None,Y,,,,,,,Female,22,
14,5,215,5,5,5,['k'],['k'],Y,N,None,Y,,,,,,,Female,22,
14,6,216,12,12,5,['k'],['d'],N,N,['space'],N,,,,,,,Female,22,
14,7,217,9,9,5,['d'],['d'],Y,Y,None,N,,,,,,,Female,22,
14,8,218,4,4,5,['d'],['d'],Y,Y,None,N,,,,,,,Female,22,
14,9,219,12,12,5,['k'],['k'],Y,Y,['space'],Y,,,,,,,Female,22,
14,10,220,11,11,5,['k'],['k'],Y,Y,['space'],Y,,,,,,,Female,22,
14,11,221,14,14,5,['k'],['k'],Y,Y,['space'],Y,,,,,,,Female,22,
14,12,222,10,10,5,['k'],['k'],Y,N,None,Y,,,,,,,Female,22,
14,13,223,11,11,5,['d'],['d'],Y,Y,['space'],Y,,,,,,,Female,22,
14,14,224,11,11,5,['k'],['k'],Y,N,None,Y,,,,,,,Female,22,
15,0,225,11,11,5,['d'],['d'],Y,Y,['space'],Y,,,,,,,Female,22,
15,1,226,1,1,5,['d'],['d'],Y,N,None,Y,,,,,,,Female,22,
15,2,227,6,6,5,['k'],['k'],Y,N,None,Y,,,,,,,Female,22,
15,3,228,4,4,5,['d'],['d'],Y,Y,None,N,,,,,,,Female,22,
15,4,229,12,12,5,['d'],['d'],Y,N,None,Y,,,,,,,Female,22,
15,5,230,1,1,5,['k'],['k'],Y,Y,None,N,,,,,,,Female,22,
15,6,231,4,4,5,['d'],['d'],Y,Y,['space'],Y,,,,,,,Female,22,
15,7,232,1,1,5,['d'],['d'],Y,Y,['space'],Y,,,,,,,Female,22,
15,8,233,13,13,5,['d'],['d'],Y,N,None,Y,,,,,,,Female,22,
15,9,234,7,7,5,['k'],['k'],Y,N,None,Y,,,,,,,Female,22,
15,10,235,10,10,5,['d'],['d'],Y,N,None,Y,,,,,,,Female,22,
15,11,236,11,11,5,['k'],['k'],Y,N,None,Y,,,,,,,Female,22,
15,12,237,0,0,5,['d'],['d'],Y,Y,None,N,,,,,,,Female,22,
15,13,238,0,0,5,['k'],['k'],Y,N,None,Y,,,,,,,Female,22,
15,14,239,7,7,5,['d'],['d'],Y,Y,['space'],Y,,,,,,,Female,22,
16,0,240,11,11,5,['k'],['k'],Y,Y,['space'],Y,,,,,,,Female,22,
16,1,241,6,6,5,['k'],['k'],Y,Y,['space'],Y,,,,,,,Female,22,
16,2,242,0,0,5,['d'],['d'],Y,N,None,Y,,,,,,,Female,22,
16,3,243,8,8,5,['k'],['k'],Y,Y,['space'],Y,,,,,,,Female,22,
16,4,244,0,0,5,['d'],['d'],Y,N,['space'],N,,,,,,,Female,22,
16,5,245,9,9,5,['k'],['k'],Y,N,None,Y,,,,,,,Female,22,
16,6,246,8,8,5,['k'],['k'],Y,N,None,Y,,,,,,,Female,22,
16,7,247,5,5,5,['k'],['k'],Y,N,None,Y,,,,,,,Female,22,
16,8,248,5,5,5,['d'],['d'],Y,N,None,Y,,,,,,,Female,22,
16,9,249,11,11,5,['d'],['d'],Y,N,None,Y,48,38,25,,,,Female,22,
16,10,250,5,5,6,['d'],['d'],Y,,,,,,,,,,Female,22,
16,11,251,12,12,6,['d'],['d'],Y,,,,,,,,,,Female,22,
16,12,252,5,5,6,['k'],['k'],Y,N,None,Y,,,,,,,Female,22,
16,13,253,8,8,6,['k'],['k'],Y,N,None,Y,,,,,,,Female,22,
16,14,254,6,6,6,['d'],['d'],Y,Y,['space'],Y,,,,,,,Female,22,
17,0,255,2,2,6,['k'],['k'],Y,Y,['space'],Y,,,,,,,Female,22,
17,1,256,14,14,6,['k'],['d'],N,Y,['space'],Y,,,,,,,Female,22,
17,2,257,11,11,6,['d'],['d'],Y,Y,['space'],Y,,,,,,,Female,22,
17,3,258,5,5,6,['d'],['d'],Y,N,None,Y,,,,,,,Female,22,
17,4,259,8,8,6,['k'],['k'],Y,Y,None,N,,,,,,,Female,22,
17,5,260,9,9,6,['d'],['d'],Y,N,None,Y,,,,,,,Female,22,
17,6,261,9,9,6,['k'],['k'],Y,N,None,Y,,,,,,,Female,22,
17,7,262,0,0,6,['d'],['d'],Y,Y,['space'],Y,,,,,,,Female,22,
17,8,263,8,8,6,['k'],['k'],Y,Y,None,N,,,,,,,Female,22,
17,9,264,2,2,6,['d'],['d'],Y,N,None,Y,,,,,,,Female,22,
17,10,265,7,7,6,['d'],['k'],N,N,None,Y,,,,,,,Female,22,
17,11,266,4,4,6,['k'],['k'],Y,Y,['space'],Y,,,,,,,Female,22,
17,12,267,3,3,6,['k'],['k'],Y,N,None,Y,,,,,,,Female,22,
17,13,268,13,13,6,['k'],['k'],Y,Y,['space'],Y,,,,,,,Female,22,
17,14,269,13,13,6,['k'],['k'],Y,Y,None,N,,,,,,,Female,22,
18,0,270,12,12,6,['d'],['d'],Y,Y,['space'],Y,,,,,,,Female,22,
18,1,271,6,6,6,['d'],['k'],N,Y,None,N,,,,,,,Female,22,
18,2,272,7,7,6,['d'],['d'],Y,Y,['space'],Y,,,,,,,Female,22,
18,3,273,3,3,6,['d'],['d'],Y,N,None,Y,,,,,,,Female,22,
18,4,274,2,2,6,['k'],['k'],Y,N,None,Y,,,,,,,Female,22,
18,5,275,11,11,6,['d'],['d'],Y,N,None,Y,,,,,,,Female,22,
18,6,276,8,8,6,['k'],['k'],Y,Y,None,N,,,,,,,Female,22,
18,7,277,7,7,6,['k'],['k'],Y,Y,['space'],Y,,,,,,,Female,22,
18,8,278,2,2,6,['k'],['k'],Y,N,['space'],N,,,,,,,Female,22,
18,9,279,3,3,6,['d'],['d'],Y,Y,['space'],Y,,,,,,,Female,22,
18,10,280,9,9,6,['d'],['d'],Y,Y,None,N,,,,,,,Female,22,
18,11,281,14,14,6,['d'],['d'],Y,N,None,Y,,,,,,,Female,22,
18,12,282,12,12,6,['d'],['d'],Y,N,None,Y,,,,,,,Female,22,
18,13,283,11,11,6,['k'],['d'],N,N,['space'],N,,,,,,,Female,22,
18,14,284,6,6,6,['k'],['d'],N,N,None,Y,,,,,,,Female,22,
19,0,285,13,13,6,['k'],['k'],Y,Y,['space'],Y,,,,,,,Female,22,
19,1,286,14,14,6,['k'],['k'],Y,N,None,Y,,,,,,,Female,22,
19,2,287,10,10,6,['d'],['d'],Y,Y,['space'],Y,,,,,,,Female,22,
19,3,288,11,11,6,['k'],['d'],N,Y,['space'],Y,,,,,,,Female,22,
19,4,289,14,14,6,['d'],['d'],Y,Y,['space'],Y,,,,,,,Female,22,
19,5,290,14,14,6,['k'],['d'],N,Y,['space'],Y,,,,,,,Female,22,
19,6,291,3,3,6,['k'],['k'],Y,Y,['space'],Y,,,,,,,Female,22,
19,7,292,3,3,6,['d'],['k'],N,Y,['space'],Y,,,,,,,Female,22,
19,8,293,4,4,6,['d'],['d'],Y,Y,['space'],Y,,,,,,,Female,22,
19,9,294,2,2,6,['k'],['k'],Y,N,None,Y,,,,,,,Female,22,
19,10,295,9,9,6,['k'],['k'],Y,N,None,Y,,,,,,,Female,22,
19,11,296,2,2,6,['d'],['d'],Y,N,['space'],N,,,,,,,Female,22,
19,12,297,6,6,6,['d'],['d'],Y,N,None,Y,,,,,,,Female,22,
19,13,298,3,3,6,['k'],['d'],N,N,None,Y,,,,,,,Female,22,
19,14,299,2,2,6,['d'],['d'],Y,N,['space'],N,41,38,25,,,,Female,22,
20,0,300,6,6,7,['k'],['k'],Y,,,,,,,,,,Female,22,
20,1,301,1,1,7,['k'],['k'],Y,,,,,,,,,,Female,22,
20,2,302,8,8,7,['k'],['k'],Y,Y,['space'],Y,,,,,,,Female,22,
20,3,303,1,1,7,['d'],['d'],Y,Y,None,N,,,,,,,Female,22,
20,4,304,4,4,7,['k'],['k'],Y,N,None,Y,,,,,,,Female,22,
20,5,305,10,10,7,['d'],['d'],Y,N,None,Y,,,,,,,Female,22,
20,6,306,11,11,7,['d'],['d'],Y,N,['space'],N,,,,,,,Female,22,
20,7,307,12,12,7,['d'],['d'],Y,N,None,Y,,,,,,,Female,22,
20,8,308,4,4,7,['k'],['k'],Y,N,['space'],N,,,,,,,Female,22,
20,9,309,5,5,7,['k'],['k'],Y,N,None,Y,,,,,,,Female,22,
20,10,310,1,1,7,['k'],['k'],Y,N,None,Y,,,,,,,Female,22,
20,11,311,5,5,7,['k'],['k'],Y,Y,['space'],Y,,,,,,,Female,22,
20,12,312,14,14,7,['k'],['k'],Y,N,None,Y,,,,,,,Female,22,
20,13,313,2,2,7,['k'],['k'],Y,N,None,Y,,,,,,,Female,22,
20,14,314,10,10,7,['d'],['d'],Y,Y,['space'],Y,,,,,,,Female,22,
21,0,315,13,13,7,['k'],['k'],Y,Y,['space'],Y,,,,,,,Female,22,
21,1,316,12,12,7,['k'],['k'],Y,N,None,Y,,,,,,,Female,22,
21,2,317,0,0,7,['k'],['k'],Y,N,None,Y,,,,,,,Female,22,
21,3,318,9,9,7,['k'],['d'],N,N,None,Y,,,,,,,Female,22,
21,4,319,12,12,7,['d'],['d'],Y,N,None,Y,,,,,,,Female,22,
21,5,320,11,11,7,['k'],['k'],Y,N,['space'],N,,,,,,,Female,22,
21,6,321,6,6,7,['k'],['k'],Y,N,None,Y,,,,,,,Female,22,
21,7,322,11,11,7,['d'],['d'],Y,Y,['space'],Y,,,,,,,Female,22,
21,8,323,9,9,7,['d'],['d'],Y,N,None,Y,,,,,,,Female,22,
21,9,324,4,4,7,['d'],['d'],Y,N,['space'],N,,,,,,,Female,22,
21,10,325,1,1,7,['k'],['k'],Y,Y,None,N,,,,,,,Female,22,
21,11,326,11,11,7,['d'],['d'],Y,N,['space'],N,,,,,,,Female,22,
21,12,327,7,7,7,['k'],['k'],Y,N,None,Y,,,,,,,Female,22,
21,13,328,1,1,7,['k'],['k'],Y,N,None,Y,,,,,,,Female,22,
21,14,329,0,0,7,['k'],['k'],Y,Y,None,N,,,,,,,Female,22,
22,0,330,9,9,7,['k'],['d'],N,Y,['space'],Y,,,,,,,Female,22,
22,1,331,8,8,7,['d'],['d'],Y,Y,None,N,,,,,,,Female,22,
22,2,332,6,6,7,['d'],['d'],Y,Y,None,N,,,,,,,Female,22,
22,3,333,14,14,7,['k'],['k'],Y,N,['space'],N,,,,,,,Female,22,
22,4,334,9,9,7,['k'],['k'],Y,Y,None,N,,,,,,,Female,22,
22,5,335,0,0,7,['d'],['d'],Y,N,None,Y,,,,,,,Female,22,
22,6,336,6,6,7,['k'],['k'],Y,N,None,Y,,,,,,,Female,22,
22,7,337,3,3,7,['k'],['k'],Y,N,None,Y,,,,,,,Female,22,
22,8,338,1,1,7,['k'],['k'],Y,Y,None,N,,,,,,,Female,22,
22,9,339,8,8,7,['k'],['k'],Y,N,None,Y,,,,,,,Female,22,
22,10,340,1,1,7,['k'],['k'],Y,Y,['space'],Y,,,,,,,Female,22,
22,11,341,10,10,7,['d'],['d'],Y,N,None,Y,,,,,,,Female,22,
22,12,342,10,10,7,['k'],['k'],Y,N,None,Y,,,,,,,Female,22,
22,13,343,7,7,7,['d'],['d'],Y,Y,None,N,,,,,,,Female,22,
22,14,344,12,12,7,['d'],['d'],Y,Y,['space'],Y,,,,,,,Female,22,
23,0,345,7,7,7,['k'],['k'],Y,Y,['space'],Y,,,,,,,Female,22,
23,1,346,5,5,7,['d'],['d'],Y,Y,['space'],Y,,,,,,,Female,22,
23,2,347,8,8,7,['d'],['d'],Y,N,None,Y,,,,,,,Female,22,
23,3,348,12,12,7,['d'],['d'],Y,N,None,Y,,,,,,,Female,22,
23,4,349,2,2,7,['d'],['d'],Y,Y,['space'],Y,48,34,19,,,,Female,22,
23,5,350,0,0,8,['k'],['k'],Y,,,,,,,,,,Female,22,
23,6,351,6,6,8,['d'],['d'],Y,,,,,,,,,,Female,22,
23,7,352,3,3,8,['d'],['d'],Y,Y,['k'],N,,,,,,,Female,22,
23,8,353,2,2,8,['k'],['k'],Y,Y,None,N,,,,,,,Female,22,
23,9,354,5,5,8,['k'],['k'],Y,Y,None,N,,,,,,,Female,22,
23,10,355,11,11,8,['d'],['d'],Y,Y,['space'],Y,,,,,,,Female,22,
23,11,356,12,12,8,['d'],['k'],N,N,None,Y,,,,,,,Female,22,
23,12,357,12,12,8,['k'],['k'],Y,N,['space'],N,,,,,,,Female,22,
23,13,358,1,1,8,['k'],['k'],Y,Y,['space'],Y,,,,,,,Female,22,
23,14,359,6,6,8,['d'],['d'],Y,Y,['space'],Y,,,,,,,Female,22,
24,0,360,2,2,8,['k'],['k'],Y,N,None,Y,,,,,,,Female,22,
24,1,361,14,14,8,['d'],['d'],Y,N,None,Y,,,,,,,Female,22,
24,2,362,14,14,8,['d'],['d'],Y,N,None,Y,,,,,,,Female,22,
24,3,363,2,2,8,['k'],['k'],Y,N,None,Y,,,,,,,Female,22,
24,4,364,1,1,8,['d'],['d'],Y,N,None,Y,,,,,,,Female,22,
24,5,365,11,11,8,['d'],['d'],Y,Y,['space'],Y,,,,,,,Female,22,
24,6,366,0,0,8,['d'],['d'],Y,N,['space'],N,,,,,,,Female,22,
24,7,367,0,0,8,['d'],['d'],Y,Y,None,N,,,,,,,Female,22,
24,8,368,2,2,8,['d'],['d'],Y,Y,['space'],Y,,,,,,,Female,22,
24,9,369,11,11,8,['d'],['d'],Y,Y,['space'],Y,,,,,,,Female,22,
24,10,370,5,5,8,['k'],['k'],Y,N,None,Y,,,,,,,Female,22,
24,11,371,5,5,8,['k'],['k'],Y,Y,['space'],Y,,,,,,,Female,22,
24,12,372,13,13,8,['k'],['k'],Y,N,None,Y,,,,,,,Female,22,
24,13,373,1,1,8,['k'],['k'],Y,Y,['space'],Y,,,,,,,Female,22,
24,14,374,14,14,8,['d'],['d'],Y,Y,None,N,,,,,,,Female,22,
25,0,375,0,0,8,['d'],['d'],Y,N,None,Y,,,,,,,Female,22,
25,1,376,6,6,8,['d'],['d'],Y,N,None,Y,,,,,,,Female,22,
25,2,377,1,1,8,['k'],['k'],Y,N,None,Y,,,,,,,Female,22,
25,3,378,7,7,8,['d'],['d'],Y,N,None,Y,,,,,,,Female,22,
25,4,379,6,6,8,['d'],['d'],Y,Y,['space'],Y,,,,,,,Female,22,
25,5,380,10,10,8,['d'],['d'],Y,Y,None,N,,,,,,,Female,22,
25,6,381,8,8,8,['d'],['d'],Y,Y,['space'],Y,,,,,,,Female,22,
25,7,382,5,5,8,['d'],['d'],Y,N,None,Y,,,,,,,Female,22,
25,8,383,13,13,8,['d'],['d'],Y,N,['space'],N,,,,,,,Female,22,
25,9,384,6,6,8,['k'],['k'],Y,N,None,Y,,,,,,,Female,22,
25,10,385,14,14,8,['k'],['k'],Y,Y,['space'],Y,,,,,,,Female,22,
25,11,386,1,1,8,['d'],['d'],Y,N,None,Y,,,,,,,Female,22,
25,12,387,5,5,8,['k'],['k'],Y,N,None,Y,,,,,,,Female,22,
25,13,388,14,14,8,['d'],['d'],Y,N,None,Y,,,,,,,Female,22,
25,14,389,3,3,8,['d'],['d'],Y,Y,['space'],Y,,,,,,,Female,22,
26,0,390,1,1,8,['d'],['d'],Y,Y,['space'],Y,,,,,,,Female,22,
26,1,391,4,4,8,['k'],['d'],N,N,None,Y,,,,,,,Female,22,
26,2,392,9,9,8,['k'],['k'],Y,Y,None,N,,,,,,,Female,22,
26,3,393,4,4,8,['k'],['k'],Y,Y,['space'],Y,,,,,,,Female,22,
26,4,394,4,4,8,['k'],['k'],Y,Y,['space'],Y,,,,,,,Female,22,
26,5,395,11,11,8,['d'],['d'],Y,Y,None,N,,,,,,,Female,22,
26,6,396,13,13,8,['k'],['k'],Y,Y,['space'],Y,,,,,,,Female,22,
26,7,397,4,4,8,['k'],['k'],Y,Y,['space'],Y,,,,,,,Female,22,
26,8,398,14,14,8,['k'],['k'],Y,N,None,Y,,,,,,,Female,22,
26,9,399,4,4,8,['k'],['k'],Y,N,None,Y,48,37,25,,,,Female,22,
26,10,400,7,7,9,['d'],['d'],Y,,,,,,,,,,Female,22,
26,11,401,11,11,9,['d'],['d'],Y,,,,,,,,,,Female,22,
26,12,402,0,0,9,['k'],['k'],Y,Y,['space'],Y,,,,,,,Female,22,
26,13,403,2,2,9,['d'],['d'],Y,N,None,Y,,,,,,,Female,22,
26,14,404,7,7,9,['k'],['k'],Y,Y,['space'],Y,,,,,,,Female,22,
27,0,405,0,0,9,['d'],['d'],Y,Y,['space'],Y,,,,,,,Female,22,
27,1,406,13,13,9,['k'],['d'],N,N,None,Y,,,,,,,Female,22,
27,2,407,11,11,9,['d'],['d'],Y,Y,['space'],Y,,,,,,,Female,22,
27,3,408,6,6,9,['d'],['d'],Y,N,None,Y,,,,,,,Female,22,
27,4,409,8,8,9,['k'],['k'],Y,N,None,Y,,,,,,,Female,22,
27,5,410,5,5,9,['k'],['k'],Y,N,None,Y,,,,,,,Female,22,
27,6,411,8,8,9,['k'],['k'],Y,Y,['space'],Y,,,,,,,Female,22,
27,7,412,10,10,9,['k'],['k'],Y,N,None,Y,,,,,,,Female,22,
27,8,413,3,3,9,['d'],['d'],Y,N,None,Y,,,,,,,Female,22,
27,9,414,2,2,9,['k'],['d'],N,N,None,Y,,,,,,,Female,22,
27,10,415,3,3,9,['d'],['d'],Y,Y,None,N,,,,,,,Female,22,
27,11,416,9,9,9,['k'],['k'],Y,Y,['space'],Y,,,,,,,Female,22,
27,12,417,13,13,9,['k'],['k'],Y,Y,None,N,,,,,,,Female,22,
27,13,418,1,1,9,['d'],['d'],Y,N,None,Y,,,,,,,Female,22,
27,14,419,9,9,9,['k'],['k'],Y,N,None,Y,,,,,,,Female,22,
28,0,420,14,14,9,['d'],['d'],Y,Y,['space'],Y,,,,,,,Female,22,
28,1,421,5,5,9,['k'],['k'],Y,N,None,Y,,,,,,,Female,22,
28,2,422,8,8,9,['k'],['k'],Y,Y,['space'],Y,,,,,,,Female,22,
28,3,423,5,5,9,['d'],['d'],Y,Y,None,N,,,,,,,Female,22,
28,4,424,7,7,9,['k'],['k'],Y,Y,['space'],Y,,,,,,,Female,22,
28,5,425,4,4,9,['d'],['d'],Y,N,None,Y,,,,,,,Female,22,
28,6,426,5,5,9,['d'],['d'],Y,Y,['k'],N,,,,,,,Female,22,
28,7,427,4,4,9,['k'],['k'],Y,N,None,Y,,,,,,,Female,22,
28,8,428,7,7,9,['d'],['d'],Y,N,None,Y,,,,,,,Female,22,
28,9,429,12,12,9,['d'],['d'],Y,N,['space'],N,,,,,,,Female,22,
28,10,430,11,11,9,['d'],['d'],Y,Y,None,N,,,,,,,Female,22,
28,11,431,5,5,9,['d'],['d'],Y,Y,None,N,,,,,,,Female,22,
28,12,432,6,6,9,['d'],['d'],Y,Y,['space'],Y,,,,,,,Female,22,
28,13,433,14,14,9,['d'],['d'],Y,Y,None,N,,,,,,,Female,22,
28,14,434,8,8,9,['d'],['k'],N,N,None,Y,,,,,,,Female,22,
29,0,435,2,2,9,['k'],['k'],Y,Y,None,N,,,,,,,Female,22,
29,1,436,4,4,9,['d'],['k'],N,Y,None,N,,,,,,,Female,22,
29,2,437,5,5,9,['k'],['k'],Y,Y,None,N,,,,,,,Female,22,
29,3,438,9,9,9,['d'],['d'],Y,N,None,Y,,,,,,,Female,22,
29,4,439,6,6,9,['k'],['k'],Y,Y,None,N,,,,,,,Female,22,
29,5,440,8,8,9,['k'],['k'],Y,N,['space'],N,,,,,,,Female,22,
29,6,441,2,2,9,['d'],['d'],Y,Y,['space'],Y,,,,,,,Female,22,
29,7,442,8,8,9,['k'],['k'],Y,Y,None,N,,,,,,,Female,22,
29,8,443,9,9,9,['k'],['k'],Y,N,None,Y,,,,,,,Female,22,
29,9,444,13,13,9,['d'],['d'],Y,Y,['space'],Y,,,,,,,Female,22,
29,10,445,3,3,9,['d'],['k'],N,Y,None,N,,,,,,,Female,22,
29,11,446,1,1,9,['d'],['d'],Y,N,None,Y,,,,,,,Female,22,
29,12,447,7,7,9,['k'],['k'],Y,N,None,Y,,,,,,,Female,22,
29,13,448,8,8,9,['d'],['d'],Y,N,None,Y,,,,,,,Female,22,
29,14,449,13,13,9,['k'],['k'],Y,N,None,Y,45,33,25,,,,Female,22,
30,0,450,1,1,10,['d'],['d'],Y,,,,,,,,,,Female,22,
30,1,451,6,6,10,['k'],['d'],N,,,,,,,,,,Female,22,
30,2,452,4,4,10,['d'],['k'],N,N,None,Y,,,,,,,Female,22,
30,3,453,2,2,10,['d'],['d'],Y,N,None,Y,,,,,,,Female,22,
30,4,454,12,12,10,['d'],['d'],Y,N,None,Y,,,,,,,Female,22,
30,5,455,6,6,10,['d'],['k'],N,Y,['space'],Y,,,,,,,Female,22,
30,6,456,5,5,10,['k'],['k'],Y,Y,['space'],Y,,,,,,,Female,22,
30,7,457,12,12,10,['k'],['k'],Y,Y,['space'],Y,,,,,,,Female,22,
30,8,458,2,2,10,['k'],['d'],N,N,['space'],N,,,,,,,Female,22,
30,9,459,12,12,10,['d'],['d'],Y,Y,None,N,,,,,,,Female,22,
30,10,460,10,10,10,['d'],['d'],Y,N,None,Y,,,,,,,Female,22,
30,11,461,10,10,10,['k'],['k'],Y,Y,['space'],Y,,,,,,,Female,22,
30,12,462,14,14,10,['k'],['k'],Y,Y,['space'],Y,,,,,,,Female,22,
30,13,463,11,11,10,['d'],['d'],Y,Y,['space'],Y,,,,,,,Female,22,
30,14,464,4,4,10,['k'],['k'],Y,N,None,Y,,,,,,,Female,22,
31,0,465,13,13,10,['k'],['k'],Y,Y,['space'],Y,,,,,,,Female,22,
31,1,466,14,14,10,['k'],['k'],Y,N,None,Y,,,,,,,Female,22,
31,2,467,11,11,10,['k'],['k'],Y,Y,['space'],Y,,,,,,,Female,22,
31,3,468,10,10,10,['d'],['d'],Y,N,['space'],N,,,,,,,Female,22,
31,4,469,9,9,10,['k'],['d'],N,N,None,Y,,,,,,,Female,22,
31,5,470,13,13,10,['d'],['d'],Y,N,None,Y,,,,,,,Female,22,
31,6,471,14,14,10,['d'],['d'],Y,Y,None,N,,,,,,,Female,22,
31,7,472,3,3,10,['k'],['d'],N,N,None,Y,,,,,,,Female,22,
31,8,473,6,6,10,['d'],['d'],Y,Y,['space'],Y,,,,,,,Female,22,
31,9,474,8,8,10,['k'],['k'],Y,Y,None,N,,,,,,,Female,22,
31,10,475,1,1,10,['d'],['d'],Y,Y,None,N,,,,,,,Female,22,
31,11,476,13,13,10,['k'],['d'],N,Y,None,N,,,,,,,Female,22,
31,12,477,9,9,10,['k'],['k'],Y,N,None,Y,,,,,,,Female,22,
31,13,478,12,12,10,['d'],['k'],N,Y,None,N,,,,,,,Female,22,
31,14,479,14,14,10,['k'],['d'],N,N,None,Y,,,,,,,Female,22,
32,0,480,6,6,10,['d'],['d'],Y,N,None,Y,,,,,,,Female,22,
32,1,481,0,0,10,['k'],['k'],Y,N,None,Y,,,,,,,Female,22,
32,2,482,5,5,10,['d'],['d'],Y,Y,None,N,,,,,,,Female,22,
32,3,483,1,1,10,['k'],['k'],Y,Y,['space'],Y,,,,,,,Female,22,
32,4,484,8,8,10,['d'],['k'],N,N,None,Y,,,,,,,Female,22,
32,5,485,9,9,10,['k'],['k'],Y,N,None,Y,,,,,,,Female,22,
32,6,486,13,13,10,['k'],['k'],Y,N,None,Y,,,,,,,Female,22,
32,7,487,1,1,10,['k'],['k'],Y,Y,None,N,,,,,,,Female,22,
32,8,488,3,3,10,['k'],['k'],Y,N,None,Y,,,,,,,Female,22,
32,9,489,6,6,10,['k'],['k'],Y,N,None,Y,,,,,,,Female,22,
32,10,490,2,2,10,['k'],['k'],Y,N,None,Y,,,,,,,Female,22,
32,11,491,11,11,10,['k'],['k'],Y,Y,None,N,,,,,,,Female,22,
32,12,492,12,12,10,['k'],['k'],Y,N,None,Y,,,,,,,Female,22,
32,13,493,0,0,10,['d'],['d'],Y,N,['space'],N,,,,,,,Female,22,
32,14,494,11,11,10,['d'],['d'],Y,Y,['space'],Y,,,,,,,Female,22,
33,0,495,9,9,10,['d'],['d'],Y,N,None,Y,,,,,,,Female,22,
33,1,496,3,3,10,['k'],['k'],Y,N,None,Y,,,,,,,Female,22,
33,2,497,14,14,10,['d'],['d'],Y,N,['space'],N,,,,,,,Female,22,
33,3,498,5,5,10,['d'],['d'],Y,Y,None,N,,,,,,,Female,22,
33,4,499,13,13,10,['d'],['d'],Y,N,None,Y,40,34,21,,,,Female,22,
33,5,500,8,8,11,['d'],['d'],N,,,,,,,Y,Y,Y,Female,22,
33,6,501,13,13,11,['d'],['k'],Y,,,,,,,,Y,Y,Female,22,
33,7,502,12,12,11,['d'],['k'],Y,Y,['space'],Y,,,,,Y,Y,Female,22,
33,8,503,14,14,11,['k'],['d'],Y,Y,['space'],Y,,,,,Y,Y,Female,22,
33,9,504,5,5,11,['d'],['k'],Y,Y,None,N,,,,,Y,Y,Female,22,
33,10,505,12,12,11,['d'],['k'],Y,N,None,Y,,,,,Y,Y,Female,22,
33,11,506,4,4,11,['d'],['k'],Y,N,None,Y,,,,,Y,Y,Female,22,
33,12,507,3,3,11,['d'],['d'],N,Y,None,N,,,,,Y,Y,Female,22,
33,13,508,0,0,11,['k'],['k'],N,N,None,Y,,,,,Y,Y,Female,22,
33,14,509,13,13,11,['d'],['k'],Y,N,None,Y,,,,,Y,Y,Female,22,
34,0,510,14,14,11,['d'],['k'],Y,Y,None,N,,,,,Y,Y,Female,22,
34,1,511,5,5,11,['k'],['d'],Y,N,None,Y,,,,,Y,Y,Female,22,
34,2,512,7,7,11,['d'],['d'],N,Y,['space'],Y,,,,,Y,Y,Female,22,
34,3,513,8,8,11,['d'],['k'],Y,Y,None,N,,,,,Y,Y,Female,22,
34,4,514,13,13,11,['k'],['d'],Y,Y,['space'],Y,,,,,Y,Y,Female,22,
34,5,515,10,10,11,['d'],['k'],Y,Y,None,N,,,,,Y,Y,Female,22,
34,6,516,7,7,11,['d'],['k'],Y,Y,['space'],Y,,,,,Y,Y,Female,22,
34,7,517,0,0,11,['d'],['k'],Y,N,None,Y,,,,,Y,Y,Female,22,
34,8,518,1,1,11,['k'],['d'],Y,Y,['space'],Y,,,,,Y,Y,Female,22,
34,9,519,7,7,11,['k'],['d'],Y,Y,['space'],Y,,,,,Y,Y,Female,22,
34,10,520,11,11,11,['k'],['d'],Y,Y,['space'],Y,,,,,Y,Y,Female,22,
34,11,521,3,3,11,['d'],['k'],Y,Y,['space'],Y,,,,,Y,Y,Female,22,
34,12,522,10,10,11,['d'],['k'],Y,N,None,Y,,,,,Y,Y,Female,22,
34,13,523,4,4,11,['k'],['d'],Y,Y,['space'],Y,,,,,Y,Y,Female,22,
34,14,524,11,11,11,['d'],['k'],Y,N,None,Y,,,,,Y,Y,Female,22,
35,0,525,9,9,11,['d'],['k'],Y,N,None,Y,,,,,Y,Y,Female,22,
35,1,526,5,5,11,['k'],['d'],Y,N,None,Y,,,,,Y,Y,Female,22,
35,2,527,11,11,11,['k'],['d'],Y,Y,['space'],Y,,,,,Y,Y,Female,22,
35,3,528,12,12,11,['k'],['k'],N,Y,None,N,,,,,Y,Y,Female,22,
35,4,529,8,8,11,['d'],['d'],N,Y,None,N,,,,,Y,Y,Female,22,
35,5,530,2,2,11,['d'],['k'],Y,Y,None,N,,,,,Y,Y,Female,22,
35,6,531,10,10,11,['d'],['k'],Y,Y,None,N,,,,,Y,Y,Female,22,
35,7,532,10,10,11,['d'],['k'],Y,Y,None,N,,,,,Y,Y,Female,22,
35,8,533,12,12,11,['d'],['k'],Y,Y,['space'],Y,,,,,Y,Y,Female,22,
35,9,534,14,14,11,['k'],['k'],N,Y,None,N,,,,,Y,Y,Female,22,
35,10,535,11,11,11,['d'],['k'],Y,N,None,Y,,,,,Y,Y,Female,22,
35,11,536,5,5,11,['k'],['d'],Y,Y,None,N,,,,,Y,Y,Female,22,
35,12,537,1,1,11,['d'],['d'],N,N,None,Y,,,,,Y,Y,Female,22,
35,13,538,4,4,11,['k'],['d'],Y,Y,None,N,,,,,Y,Y,Female,22,
35,14,539,0,0,11,['k'],['d'],Y,N,None,Y,,,,,Y,Y,Female,22,
36,0,540,4,4,11,['k'],['d'],Y,N,None,Y,,,,,Y,Y,Female,22,
36,1,541,7,7,11,['d'],['k'],Y,N,None,Y,,,,,Y,Y,Female,22,
36,2,542,10,10,11,['k'],['d'],Y,N,['space'],N,,,,,Y,Y,Female,22,
36,3,543,1,1,11,['k'],['d'],Y,N,None,Y,,,,,Y,Y,Female,22,
36,4,544,4,4,11,['d'],['k'],Y,N,None,Y,,,,,Y,Y,Female,22,
36,5,545,6,6,11,['k'],['d'],Y,N,None,Y,,,,,Y,Y,Female,22,
36,6,546,9,9,11,['d'],['d'],N,N,['space'],N,,,,,Y,Y,Female,22,
36,7,547,1,1,11,['d'],['k'],Y,N,None,Y,,,,,Y,Y,Female,22,
36,8,548,7,7,11,['d'],['k'],Y,N,None,Y,,,,,Y,Y,Female,22,
36,9,549,0,0,11,['d'],['d'],N,N,None,Y,40,33,25,,Y,Y,Female,22,
36,10,550,12,12,12,['k'],['d'],Y,,,,,,,,Y,Y,Female,22,
36,11,551,8,8,12,['k'],['d'],Y,,,,,,,,Y,Y,Female,22,
36,12,552,3,3,12,['d'],['k'],Y,N,None,Y,,,,,Y,Y,Female,22,
36,13,553,14,14,12,['d'],['k'],Y,N,None,Y,,,,,Y,Y,Female,22,
36,14,554,14,14,12,['k'],['d'],Y,N,None,Y,,,,,Y,Y,Female,22,
37,0,555,13,13,12,['k'],['d'],Y,N,None,Y,,,,,Y,Y,Female,22,
37,1,556,0,0,12,['d'],['d'],N,N,['space'],N,,,,,Y,Y,Female,22,
37,2,557,0,0,12,['k'],['d'],Y,N,['space'],N,,,,,Y,Y,Female,22,
37,3,558,0,0,12,['d'],['k'],Y,N,None,Y,,,,,Y,Y,Female,22,
37,4,559,7,7,12,['k'],['k'],N,N,None,Y,,,,,Y,Y,Female,22,
37,5,560,4,4,12,['d'],['d'],N,N,None,Y,,,,,Y,Y,Female,22,
37,6,561,5,5,12,['k'],['d'],Y,N,None,Y,,,,,Y,Y,Female,22,
37,7,562,12,12,12,['d'],['d'],N,Y,['k'],N,,,,,Y,Y,Female,22,
37,8,563,2,2,12,['k'],['d'],Y,Y,None,N,,,,,Y,Y,Female,22,
37,9,564,8,8,12,['d'],['k'],Y,N,None,Y,,,,,Y,Y,Female,22,
37,10,565,4,4,12,['k'],['d'],Y,Y,None,N,,,,,Y,Y,Female,22,
37,11,566,3,3,12,['d'],['k'],Y,N,None,Y,,,,,Y,Y,Female,22,
37,12,567,0,0,12,['k'],['d'],Y,Y,None,N,,,,,Y,Y,Female,22,
37,13,568,4,4,12,['k'],['d'],Y,N,['space'],N,,,,,Y,Y,Female,22,
37,14,569,7,7,12,['d'],['k'],Y,N,['space'],N,,,,,Y,Y,Female,22,
38,0,570,5,5,12,['k'],['d'],Y,N,None,Y,,,,,Y,Y,Female,22,
38,1,571,3,3,12,['k'],['d'],Y,N,None,Y,,,,,Y,Y,Female,22,
38,2,572,8,8,12,['d'],['d'],N,N,['space'],N,,,,,Y,Y,Female,22,
38,3,573,10,10,12,['d'],['k'],Y,Y,None,N,,,,,Y,Y,Female,22,
38,4,574,0,0,12,['d'],['k'],Y,N,None,Y,,,,,Y,Y,Female,22,
38,5,575,13,13,12,['k'],['d'],Y,Y,None,N,,,,,Y,Y,Female,22,
38,6,576,1,1,12,['d'],['k'],Y,Y,['space'],Y,,,,,Y,Y,Female,22,
38,7,577,12,12,12,['d'],['k'],Y,N,None,Y,,,,,Y,Y,Female,22,
38,8,578,9,9,12,['k'],['d'],Y,Y,['space'],Y,,,,,Y,Y,Female,22,
38,9,579,1,1,12,['d'],['d'],N,Y,['space'],Y,,,,,Y,Y,Female,22,
38,10,580,0,0,12,['k'],['d'],Y,Y,None,N,,,,,Y,Y,Female,22,
38,11,581,8,8,12,['k'],['k'],N,N,None,Y,,,,,Y,Y,Female,22,
38,12,582,12,12,12,['d'],['d'],N,Y,['space'],Y,,,,,Y,Y,Female,22,
38,13,583,7,7,12,['k'],['d'],Y,N,None,Y,,,,,Y,Y,Female,22,
38,14,584,14,14,12,['d'],['k'],Y,N,None,Y,,,,,Y,Y,Female,22,
39,0,585,13,13,12,['k'],['d'],Y,N,None,Y,,,,,Y,Y,Female,22,
39,1,586,1,1,12,['d'],['k'],Y,Y,None,N,,,,,Y,Y,Female,22,
39,2,587,4,4,12,['d'],['k'],Y,N,None,Y,,,,,Y,Y,Female,22,
39,3,588,2,2,12,['d'],['k'],Y,N,None,Y,,,,,Y,Y,Female,22,
39,4,589,5,5,12,['d'],['k'],Y,Y,['space'],Y,,,,,Y,Y,Female,22,
39,5,590,13,13,12,['d'],['k'],Y,N,['space'],N,,,,,Y,Y,Female,22,
39,6,591,8,8,12,['k'],['d'],Y,Y,['space'],Y,,,,,Y,Y,Female,22,
39,7,592,4,4,12,['k'],['d'],Y,Y,None,N,,,,,Y,Y,Female,22,
39,8,593,6,6,12,['k'],['k'],N,N,None,Y,,,,,Y,Y,Female,22,
39,9,594,14,14,12,['d'],['k'],Y,N,None,Y,,,,,Y,Y,Female,22,
39,10,595,5,5,12,['k'],['d'],Y,Y,None,N,,,,,Y,Y,Female,22,
39,11,596,13,13,12,['d'],['k'],Y,Y,None,N,,,,,Y,Y,Female,22,
39,12,597,10,10,12,['k'],['d'],Y,Y,['space'],Y,,,,,Y,Y,Female,22,
39,13,598,13,13,12,['d'],['k'],Y,Y,['space'],Y,,,,,Y,Y,Female,22,
39,14,599,11,11,12,['d'],['k'],Y,N,None,Y,41,31,19,,Y,Y,Female,22,
