.thisRepN,.thisTrialN,.thisN,.thisIndex,.thisTrial,Block Number,Key pressed,Category,Correct?,Int Match?,Int Response,Int Correct?,Line Accuracy,Interference Accuracy,Matching Interferences,New instruction shown?,Buttons switched?,Fast?,gender,age,
0,0,0,11,11,1,['k'],['d'],N,,,,,,,,,,Female,18,
0,1,1,14,14,1,['d'],['d'],Y,,,,,,,,,,Female,18,
0,2,2,12,12,1,['k'],['k'],Y,N,None,Y,,,,,,,Female,18,
0,3,3,13,13,1,['k'],['k'],Y,Y,['d'],N,,,,,,,Female,18,
0,4,4,7,7,1,['d'],['k'],N,Y,None,N,,,,,,,Female,18,
0,5,5,10,10,1,['k'],['k'],Y,N,['space'],N,,,,,,,Female,18,
0,6,6,8,8,1,['d'],['k'],N,N,None,Y,,,,,,,Female,18,
0,7,7,11,11,1,['k'],['d'],N,Y,None,N,,,,,,,Female,18,
0,8,8,2,2,1,['d'],['d'],Y,N,None,Y,,,,,,,Female,18,
0,9,9,10,10,1,['k'],['d'],N,Y,['space'],Y,,,,,,,Female,18,
0,10,10,5,5,1,['d'],['d'],Y,Y,['space'],Y,,,,,,,Female,18,
0,11,11,9,9,1,['k'],['k'],Y,N,None,Y,,,,,,,Female,18,
0,12,12,13,13,1,['d'],['k'],N,N,['space'],N,,,,,,,Female,18,
0,13,13,4,4,1,['k'],['k'],Y,Y,None,N,,,,,,,Female,18,
0,14,14,9,9,1,['k'],['k'],Y,Y,None,N,,,,,,,Female,18,
1,0,15,13,13,1,['d'],['d'],Y,Y,['space'],Y,,,,,,,Female,18,
1,1,16,12,12,1,['d'],['d'],Y,N,['space'],N,,,,,,,Female,18,
1,2,17,14,14,1,['d'],['d'],Y,N,None,Y,,,,,,,Female,18,
1,3,18,7,7,1,['k'],['k'],Y,Y,['space'],Y,,,,,,,Female,18,
1,4,19,7,7,1,['d'],['d'],Y,N,None,Y,,,,,,,Female,18,
1,5,20,2,2,1,['k'],['k'],Y,N,None,Y,,,,,,,Female,18,
1,6,21,7,7,1,['k'],['k'],Y,N,None,Y,,,,,,,Female,18,
1,7,22,9,9,1,['d'],['d'],Y,Y,['space'],Y,,,,,,,Female,18,
1,8,23,3,3,1,['k'],['k'],Y,N,None,Y,,,,,,,Female,18,
1,9,24,2,2,1,['d'],['k'],N,N,None,Y,,,,,,,Female,18,
1,10,25,3,3,1,['k'],['k'],Y,Y,None,N,,,,,,,Female,18,
1,11,26,10,10,1,['k'],['d'],N,Y,None,N,,,,,,,Female,18,
1,12,27,3,3,1,['k'],['k'],Y,Y,['space'],Y,,,,,,,Female,18,
1,13,28,0,0,1,['k'],['k'],Y,N,None,Y,,,,,,,Female,18,
1,14,29,3,3,1,['k'],['k'],Y,Y,['space'],Y,,,,,,,Female,18,
2,0,30,5,5,1,['d'],['d'],Y,N,None,Y,,,,,,,Female,18,
2,1,31,14,14,1,['d'],['k'],N,Y,['space'],Y,,,,,,,Female,18,
2,2,32,13,13,1,['k'],['k'],Y,N,['space'],N,,,,,,,Female,18,
2,3,33,14,14,1,['k'],['k'],Y,N,None,Y,,,,,,,Female,18,
2,4,34,0,0,1,['d'],['d'],Y,N,None,Y,,,,,,,Female,18,
2,5,35,6,6,1,['k'],['d'],N,Y,['space'],Y,,,,,,,Female,18,
2,6,36,6,6,1,['k'],['k'],Y,N,None,Y,,,,,,,Female,18,
2,7,37,1,1,1,['d'],['d'],Y,N,None,Y,,,,,,,Female,18,
2,8,38,2,2,1,['k'],['k'],Y,N,None,Y,,,,,,,Female,18,
2,9,39,10,10,1,['d'],['d'],Y,Y,['space'],Y,,,,,,,Female,18,
2,10,40,1,1,1,['d'],['k'],N,Y,['space'],Y,,,,,,,Female,18,
2,11,41,3,3,1,['k'],['d'],N,N,['space'],N,,,,,,,Female,18,
2,12,42,10,10,1,['k'],['k'],Y,Y,None,N,,,,,,,Female,18,
2,13,43,12,12,1,['d'],['d'],Y,N,None,Y,,,,,,,Female,18,
2,14,44,4,4,1,['k'],['k'],Y,N,['space'],N,,,,,,,Female,18,
3,0,45,10,10,1,['k'],['k'],Y,Y,['space'],Y,,,,,,,Female,18,
3,1,46,4,4,1,['k'],['d'],N,Y,['space'],Y,,,,,,,Female,18,
3,2,47,11,11,1,['k'],['k'],Y,N,None,Y,,,,,,,Female,18,
3,3,48,6,6,1,['k'],['k'],Y,Y,None,N,,,,,,,Female,18,
3,4,49,5,5,1,['d'],['d'],Y,N,None,Y,37,33,22,,,,Female,18,
3,5,50,1,1,2,['d'],['d'],Y,,,,,,,,,,Female,18,
3,6,51,2,2,2,['d'],['d'],Y,,,,,,,,,,Female,18,
3,7,52,12,12,2,['d'],['d'],Y,Y,['space'],Y,,,,,,,Female,18,
3,8,53,13,13,2,['k'],['d'],N,Y,['space'],Y,,,,,,,Female,18,
3,9,54,8,8,2,['k'],['k'],Y,N,None,Y,,,,,,,Female,18,
3,10,55,5,5,2,['d'],['d'],Y,N,['space'],N,,,,,,,Female,18,
3,11,56,6,6,2,['d'],['d'],Y,Y,['space'],Y,,,,,,,Female,18,
3,12,57,7,7,2,['k'],['d'],N,N,None,Y,,,,,,,Female,18,
3,13,58,6,6,2,['k'],['k'],Y,Y,['space'],Y,,,,,,,Female,18,
3,14,59,1,1,2,['d'],['d'],Y,Y,['space'],Y,,,,,,,Female,18,
4,0,60,11,11,2,['k'],['d'],N,Y,None,N,,,,,,,Female,18,
4,1,61,10,10,2,['k'],['d'],N,N,None,Y,,,,,,,Female,18,
4,2,62,9,9,2,['d'],['d'],Y,Y,['space'],Y,,,,,,,Female,18,
4,3,63,2,2,2,['d'],['d'],Y,N,None,Y,,,,,,,Female,18,
4,4,64,14,14,2,['d'],['d'],Y,N,None,Y,,,,,,,Female,18,
4,5,65,1,1,2,['k'],['k'],Y,N,['space'],N,,,,,,,Female,18,
4,6,66,8,8,2,['k'],['k'],Y,Y,['space'],Y,,,,,,,Female,18,
4,7,67,5,5,2,['d'],['d'],Y,Y,['space'],Y,,,,,,,Female,18,
4,8,68,5,5,2,['k'],['k'],Y,N,None,Y,,,,,,,Female,18,
4,9,69,4,4,2,['k'],['k'],Y,N,None,Y,,,,,,,Female,18,
4,10,70,10,10,2,['k'],['d'],N,Y,['space'],Y,,,,,,,Female,18,
4,11,71,6,6,2,['k'],['k'],Y,Y,None,N,,,,,,,Female,18,
4,12,72,9,9,2,['k'],['k'],Y,Y,['space'],Y,,,,,,,Female,18,
4,13,73,12,12,2,['k'],['k'],Y,Y,['space'],Y,,,,,,,Female,18,
4,14,74,9,9,2,['d'],['d'],Y,Y,['space'],Y,,,,,,,Female,18,
5,0,75,10,10,2,['k'],['k'],Y,Y,['space'],Y,,,,,,,Female,18,
5,1,76,4,4,2,['k'],['k'],Y,Y,None,N,,,,,,,Female,18,
5,2,77,12,12,2,['k'],['d'],N,N,None,Y,,,,,,,Female,18,
5,3,78,13,13,2,['d'],['d'],Y,Y,['space'],Y,,,,,,,Female,18,
5,4,79,11,11,2,['d'],['d'],Y,Y,['space'],Y,,,,,,,Female,18,
5,5,80,4,4,2,['d'],['d'],Y,Y,['space'],Y,,,,,,,Female,18,
5,6,81,3,3,2,['k'],['k'],Y,N,None,Y,,,,,,,Female,18,
5,7,82,7,7,2,['d'],['d'],Y,N,None,Y,,,,,,,Female,18,
5,8,83,9,9,2,['k'],['d'],N,Y,['space'],Y,,,,,,,Female,18,
5,9,84,8,8,2,['d'],['k'],N,N,None,Y,,,,,,,Female,18,
5,10,85,13,13,2,['k'],['d'],N,N,['space'],N,,,,,,,Female,18,
5,11,86,3,3,2,['d'],['d'],Y,Y,None,N,,,,,,,Female,18,
5,12,87,6,6,2,['d'],['d'],Y,Y,['space'],Y,,,,,,,Female,18,
5,13,88,3,3,2,['d'],['d'],Y,N,['space'],N,,,,,,,Female,18,
5,14,89,2,2,2,['k'],['d'],N,N,None,Y,,,,,,,Female,18,
6,0,90,4,4,2,['k'],['k'],Y,Y,['space'],Y,,,,,,,Female,18,
6,1,91,0,0,2,['d'],['k'],N,N,None,Y,,,,,,,Female,18,
6,2,92,9,9,2,['k'],['k'],Y,N,None,Y,,,,,,,Female,18,
6,3,93,6,6,2,['d'],['d'],Y,Y,['space'],Y,,,,,,,Female,18,
6,4,94,8,8,2,['k'],['k'],Y,N,['space'],N,,,,,,,Female,18,
6,5,95,8,8,2,['d'],['d'],Y,N,['space'],N,,,,,,,Female,18,
6,6,96,10,10,2,['d'],['d'],Y,N,None,Y,,,,,,,Female,18,
6,7,97,14,14,2,['k'],['k'],Y,Y,['space'],Y,,,,,,,Female,18,
6,8,98,11,11,2,['d'],['d'],Y,N,None,Y,,,,,,,Female,18,
6,9,99,9,9,2,['k'],['k'],Y,N,None,Y,39,38,25,,,,Female,18,
6,10,100,2,2,3,['k'],['k'],Y,,,,,,,,,,Female,18,
6,11,101,12,12,3,['d'],['d'],Y,,,,,,,,,,Female,18,
6,12,102,6,6,3,['d'],['d'],Y,Y,['space'],Y,,,,,,,Female,18,
6,13,103,9,9,3,['d'],['d'],Y,Y,['space'],Y,,,,,,,Female,18,
6,14,104,8,8,3,['d'],['d'],Y,N,None,Y,,,,,,,Female,18,
7,0,105,13,13,3,['d'],['d'],Y,Y,['space'],Y,,,,,,,Female,18,
7,1,106,7,7,3,['k'],['d'],N,Y,['space'],Y,,,,,,,Female,18,
7,2,107,10,10,3,['k'],['k'],Y,N,None,Y,,,,,,,Female,18,
7,3,108,3,3,3,['k'],['k'],Y,N,None,Y,,,,,,,Female,18,
7,4,109,8,8,3,['k'],['k'],Y,N,None,Y,,,,,,,Female,18,
7,5,110,2,2,3,['k'],['k'],Y,N,None,Y,,,,,,,Female,18,
7,6,111,14,14,3,['k'],['k'],Y,N,['space'],N,,,,,,,Female,18,
7,7,112,0,0,3,['k'],['k'],Y,N,None,Y,,,,,,,Female,18,
7,8,113,12,12,3,['k'],['k'],Y,N,None,Y,,,,,,,Female,18,
7,9,114,3,3,3,['d'],['d'],Y,Y,['space'],Y,,,,,,,Female,18,
7,10,115,7,7,3,['d'],['d'],Y,N,None,Y,,,,,,,Female,18,
7,11,116,7,7,3,['k'],['k'],Y,Y,['space'],Y,,,,,,,Female,18,
7,12,117,4,4,3,['d'],['d'],Y,N,None,Y,,,,,,,Female,18,
7,13,118,13,13,3,['k'],['k'],Y,N,None,Y,,,,,,,Female,18,
7,14,119,5,5,3,['d'],['d'],Y,N,None,Y,,,,,,,Female,18,
8,0,120,11,11,3,['d'],['d'],Y,Y,['space'],Y,,,,,,,Female,18,
8,1,121,12,12,3,['k'],['k'],Y,N,None,Y,,,,,,,Female,18,
8,2,122,1,1,3,['k'],['k'],Y,Y,None,N,,,,,,,Female,18,
8,3,123,11,11,3,['d'],['d'],Y,N,None,Y,,,,,,,Female,18,
8,4,124,11,11,3,['d'],['d'],Y,N,None,Y,,,,,,,Female,18,
8,5,125,1,1,3,['k'],['k'],Y,N,None,Y,,,,,,,Female,18,
8,6,126,4,4,3,['d'],['k'],N,Y,['space'],Y,,,,,,,Female,18,
8,7,127,2,2,3,['d'],['d'],Y,Y,['space'],Y,,,,,,,Female,18,
8,8,128,12,12,3,['k'],['k'],Y,N,None,Y,,,,,,,Female,18,
8,9,129,2,2,3,['d'],['d'],Y,N,None,Y,,,,,,,Female,18,
8,10,130,8,8,3,['k'],['k'],Y,Y,['space'],Y,,,,,,,Female,18,
8,11,131,2,2,3,['k'],['d'],N,N,None,Y,,,,,,,Female,18,
8,12,132,11,11,3,['d'],['d'],Y,N,None,Y,,,,,,,Female,18,
8,13,133,2,2,3,['d'],['d'],Y,Y,['space'],Y,,,,,,,Female,18,
8,14,134,13,13,3,['d'],['d'],Y,Y,['space'],Y,,,,,,,Female,18,
9,0,135,4,4,3,['k'],['k'],Y,Y,['space'],Y,,,,,,,Female,18,
9,1,136,12,12,3,['k'],['d'],N,N,None,Y,,,,,,,Female,18,
9,2,137,2,2,3,['d'],['d'],Y,Y,['space'],Y,,,,,,,Female,18,
9,3,138,1,1,3,['d'],['d'],Y,Y,['space'],Y,,,,,,,Female,18,
9,4,139,3,3,3,['d'],['k'],N,Y,['space'],Y,,,,,,,Female,18,
9,5,140,14,14,3,['k'],['k'],Y,Y,['space'],Y,,,,,,,Female,18,
9,6,141,8,8,3,['k'],['k'],Y,N,None,Y,,,,,,,Female,18,
9,7,142,14,14,3,['d'],['d'],Y,N,None,Y,,,,,,,Female,18,
9,8,143,3,3,3,['d'],['d'],Y,Y,['space'],Y,,,,,,,Female,18,
9,9,144,2,2,3,['k'],['k'],Y,Y,['space'],Y,,,,,,,Female,18,
9,10,145,14,14,3,['k'],['d'],N,Y,['space'],Y,,,,,,,Female,18,
9,11,146,0,0,3,['k'],['k'],Y,Y,['space'],Y,,,,,,,Female,18,
9,12,147,9,9,3,['d'],['d'],Y,N,None,Y,,,,,,,Female,18,
9,13,148,5,5,3,['k'],['k'],Y,Y,['space'],Y,,,,,,,Female,18,
9,14,149,4,4,3,['k'],['k'],Y,Y,['space'],Y,44,46,24,,,,Female,18,
10,0,150,1,1,4,['k'],['k'],Y,,,,,,,,,,Female,18,
10,1,151,11,11,4,['k'],['k'],Y,,,,,,,,,,Female,18,
10,2,152,6,6,4,['d'],['d'],Y,Y,['space'],Y,,,,,,,Female,18,
10,3,153,11,11,4,['k'],['k'],Y,N,None,Y,,,,,,,Female,18,
10,4,154,9,9,4,['d'],['d'],Y,N,['space'],N,,,,,,,Female,18,
10,5,155,8,8,4,['k'],['k'],Y,N,None,Y,,,,,,,Female,18,
10,6,156,13,13,4,['d'],['k'],N,N,None,Y,,,,,,,Female,18,
10,7,157,6,6,4,['k'],['k'],Y,N,None,Y,,,,,,,Female,18,
10,8,158,1,1,4,['k'],['k'],Y,N,['space'],N,,,,,,,Female,18,
10,9,159,3,3,4,['k'],['k'],Y,Y,None,N,,,,,,,Female,18,
10,10,160,6,6,4,['d'],['k'],N,Y,['space'],Y,,,,,,,Female,18,
10,11,161,10,10,4,['k'],['k'],Y,Y,None,N,,,,,,,Female,18,
10,12,162,4,4,4,['d'],['d'],Y,Y,['space'],Y,,,,,,,Female,18,
10,13,163,3,3,4,['k'],['k'],Y,Y,None,N,,,,,,,Female,18,
10,14,164,4,4,4,['k'],['k'],Y,N,None,Y,,,,,,,Female,18,
11,0,165,0,0,4,['k'],['k'],Y,Y,['space'],Y,,,,,,,Female,18,
11,1,166,4,4,4,['d'],['d'],Y,Y,['space'],Y,,,,,,,Female,18,
11,2,167,1,1,4,['d'],['d'],Y,N,None,Y,,,,,,,Female,18,
11,3,168,6,6,4,['k'],['k'],Y,Y,['space'],Y,,,,,,,Female,18,
11,4,169,11,11,4,['k'],['k'],Y,Y,['space'],Y,,,,,,,Female,18,
11,5,170,12,12,4,['d'],['d'],Y,N,None,Y,,,,,,,Female,18,
11,6,171,12,12,4,['d'],['d'],Y,Y,['space'],Y,,,,,,,Female,18,
11,7,172,11,11,4,['k'],['k'],Y,Y,['space'],Y,,,,,,,Female,18,
11,8,173,13,13,4,['d'],['d'],Y,Y,['space'],Y,,,,,,,Female,18,
11,9,174,13,13,4,['k'],['k'],Y,Y,['space'],Y,,,,,,,Female,18,
11,10,175,6,6,4,['k'],['k'],Y,N,None,Y,,,,,,,Female,18,
11,11,176,9,9,4,['k'],['d'],N,N,None,Y,,,,,,,Female,18,
11,12,177,5,5,4,['k'],['d'],N,N,['space'],N,,,,,,,Female,18,
11,13,178,6,6,4,['d'],['d'],Y,N,None,Y,,,,,,,Female,18,
11,14,179,0,0,4,['k'],['k'],Y,Y,['space'],Y,,,,,,,Female,18,
12,0,180,12,12,4,['k'],['k'],Y,N,None,Y,,,,,,,Female,18,
12,1,181,7,7,4,['d'],['d'],Y,N,None,Y,,,,,,,Female,18,
12,2,182,10,10,4,['d'],['d'],Y,N,None,Y,,,,,,,Female,18,
12,3,183,13,13,4,['k'],['d'],N,Y,['space'],Y,,,,,,,Female,18,
12,4,184,1,1,4,['d'],['d'],Y,N,None,Y,,,,,,,Female,18,
12,5,185,10,10,4,['d'],['d'],Y,Y,['space'],Y,,,,,,,Female,18,
12,6,186,13,13,4,['k'],['k'],Y,N,None,Y,,,,,,,Female,18,
12,7,187,10,10,4,['k'],['k'],Y,Y,['space'],Y,,,,,,,Female,18,
12,8,188,1,1,4,['k'],['k'],Y,N,None,Y,,,,,,,Female,18,
12,9,189,13,13,4,['d'],['d'],Y,Y,['space'],Y,,,,,,,Female,18,
12,10,190,14,14,4,['k'],['k'],Y,N,None,Y,,,,,,,Female,18,
12,11,191,5,5,4,['k'],['k'],Y,N,None,Y,,,,,,,Female,18,
12,12,192,7,7,4,['d'],['d'],Y,N,None,Y,,,,,,,Female,18,
12,13,193,14,14,4,['k'],['k'],Y,N,['k'],N,,,,,,,Female,18,
12,14,194,0,0,4,['k'],['d'],N,N,None,Y,,,,,,,Female,18,
13,0,195,2,2,4,['d'],['d'],Y,Y,['d'],N,,,,,,,Female,18,
13,1,196,2,2,4,['k'],['k'],Y,Y,['space'],Y,,,,,,,Female,18,
13,2,197,11,11,4,['d'],['k'],N,N,None,Y,,,,,,,Female,18,
13,3,198,7,7,4,['k'],['k'],Y,Y,None,N,,,,,,,Female,18,
13,4,199,0,0,4,['k'],['k'],Y,N,['space'],N,43,38,22,,,,Female,18,
13,5,200,14,14,5,['k'],['k'],Y,,,,,,,,,,Female,18,
13,6,201,8,8,5,['k'],['k'],Y,,,,,,,,,,Female,18,
13,7,202,0,0,5,['d'],['d'],Y,Y,['space'],Y,,,,,,,Female,18,
13,8,203,4,4,5,['k'],['k'],Y,N,None,Y,,,,,,,Female,18,
13,9,204,13,13,5,['k'],['d'],N,Y,['space'],Y,,,,,,,Female,18,
13,10,205,13,13,5,['d'],['d'],Y,Y,['space'],Y,,,,,,,Female,18,
13,11,206,1,1,5,['k'],['k'],Y,N,None,Y,,,,,,,Female,18,
13,12,207,8,8,5,['d'],['d'],Y,Y,['space'],Y,,,,,,,Female,18,
13,13,208,5,5,5,['d'],['d'],Y,N,None,Y,,,,,,,Female,18,
13,14,209,13,13,5,['k'],['k'],Y,Y,['space'],Y,,,,,,,Female,18,
14,0,210,7,7,5,['d'],['k'],N,N,None,Y,,,,,,,Female,18,
14,1,211,13,13,5,['d'],['d'],Y,N,None,Y,,,,,,,Female,18,
14,2,212,13,13,5,['d'],['d'],Y,Y,['space'],Y,,,,,,,Female,18,
14,3,213,3,3,5,['k'],['d'],N,Y,['space'],Y,,,,,,,Female,18,
14,4,214,8,8,5,['k'],['d'],N,N,None,Y,,,,,,,Female,18,
14,5,215,5,5,5,['k'],['d'],N,Y,['space'],Y,,,,,,,Female,18,
14,6,216,5,5,5,['k'],['k'],Y,Y,['space'],Y,,,,,,,Female,18,
14,7,217,7,7,5,['d'],['d'],Y,N,['space'],N,,,,,,,Female,18,
14,8,218,4,4,5,['k'],['k'],Y,N,['space'],N,,,,,,,Female,18,
14,9,219,11,11,5,['d'],['d'],Y,N,None,Y,,,,,,,Female,18,
14,10,220,9,9,5,['d'],['d'],Y,N,None,Y,,,,,,,Female,18,
14,11,221,5,5,5,['k'],['d'],N,Y,None,N,,,,,,,Female,18,
14,12,222,10,10,5,['k'],['d'],N,N,None,Y,,,,,,,Female,18,
14,13,223,12,12,5,['k'],['k'],Y,Y,['space'],Y,,,,,,,Female,18,
14,14,224,6,6,5,['d'],['d'],Y,Y,['space'],Y,,,,,,,Female,18,
15,0,225,5,5,5,['d'],['k'],N,N,None,Y,,,,,,,Female,18,
15,1,226,1,1,5,['k'],['k'],Y,N,None,Y,,,,,,,Female,18,
15,2,227,2,2,5,['k'],['k'],Y,N,None,Y,,,,,,,Female,18,
15,3,228,8,8,5,['d'],['k'],N,Y,['space'],Y,,,,,,,Female,18,
15,4,229,1,1,5,['k'],['k'],Y,Y,['space'],Y,,,,,,,Female,18,
15,5,230,12,12,5,['d'],['d'],Y,Y,['space'],Y,,,,,,,Female,18,
15,6,231,14,14,5,['d'],['d'],Y,N,None,Y,,,,,,,Female,18,
15,7,232,1,1,5,['k'],['k'],Y,Y,['space'],Y,,,,,,,Female,18,
15,8,233,7,7,5,['k'],['k'],Y,N,None,Y,,,,,,,Female,18,
15,9,234,1,1,5,['d'],['d'],Y,N,['space'],N,,,,,,,Female,18,
15,10,235,0,0,5,['d'],['d'],Y,N,None,Y,,,,,,,Female,18,
15,11,236,0,0,5,['k'],['k'],Y,Y,None,N,,,,,,,Female,18,
15,12,237,5,5,5,['d'],['k'],N,Y,['space'],Y,,,,,,,Female,18,
15,13,238,3,3,5,['d'],['k'],N,Y,None,N,,,,,,,Female,18,
15,14,239,14,14,5,['k'],['d'],N,N,['space'],N,,,,,,,Female,18,
16,0,240,11,11,5,['k'],['k'],Y,N,None,Y,,,,,,,Female,18,
16,1,241,3,3,5,['k'],['k'],Y,N,None,Y,,,,,,,Female,18,
16,2,242,0,0,5,['k'],['k'],Y,Y,['space'],Y,,,,,,,Female,18,
16,3,243,1,1,5,['d'],['k'],N,Y,['space'],Y,,,,,,,Female,18,
16,4,244,13,13,5,['k'],['k'],Y,Y,None,N,,,,,,,Female,18,
16,5,245,0,0,5,['k'],['k'],Y,Y,['space'],Y,,,,,,,Female,18,
16,6,246,13,13,5,['d'],['d'],Y,Y,['space'],Y,,,,,,,Female,18,
16,7,247,7,7,5,['k'],['k'],Y,Y,['space'],Y,,,,,,,Female,18,
16,8,248,1,1,5,['d'],['k'],N,N,None,Y,,,,,,,Female,18,
16,9,249,3,3,5,['d'],['d'],Y,N,None,Y,36,40,25,,,,Female,18,
16,10,250,5,5,6,['k'],['k'],Y,,,,,,,,,,Female,18,
16,11,251,10,10,6,['d'],['d'],Y,,,,,,,,,,Female,18,
16,12,252,0,0,6,['d'],['d'],Y,N,None,Y,,,,,,,Female,18,
16,13,253,4,4,6,['k'],['k'],Y,N,None,Y,,,,,,,Female,18,
16,14,254,2,2,6,['k'],['k'],Y,Y,['space'],Y,,,,,,,Female,18,
17,0,255,8,8,6,['k'],['k'],Y,Y,['space'],Y,,,,,,,Female,18,
17,1,256,14,14,6,['d'],['d'],Y,Y,['space'],Y,,,,,,,Female,18,
17,2,257,6,6,6,['d'],['d'],Y,Y,['space'],Y,,,,,,,Female,18,
17,3,258,9,9,6,['k'],['k'],Y,N,None,Y,,,,,,,Female,18,
17,4,259,6,6,6,['d'],['d'],Y,Y,['space'],Y,,,,,,,Female,18,
17,5,260,0,0,6,['k'],['k'],Y,Y,['space'],Y,,,,,,,Female,18,
17,6,261,7,7,6,['k'],['d'],N,Y,['space'],Y,,,,,,,Female,18,
17,7,262,13,13,6,['d'],['d'],Y,N,None,Y,,,,,,,Female,18,
17,8,263,5,5,6,['d'],['d'],Y,Y,['space'],Y,,,,,,,Female,18,
17,9,264,9,9,6,['d'],['d'],Y,N,None,Y,,,,,,,Female,18,
17,10,265,14,14,6,['k'],['d'],N,N,None,Y,,,,,,,Female,18,
17,11,266,13,13,6,['k'],['k'],Y,N,['space'],N,,,,,,,Female,18,
17,12,267,4,4,6,['d'],['d'],Y,N,['space'],N,,,,,,,Female,18,
17,13,268,10,10,6,['d'],['d'],Y,Y,['space'],Y,,,,,,,Female,18,
17,14,269,11,11,6,['k'],['k'],Y,N,None,Y,,,,,,,Female,18,
18,0,270,7,7,6,['k'],['k'],Y,Y,['space'],Y,,,,,,,Female,18,
18,1,271,7,7,6,['k'],['d'],N,Y,None,N,,,,,,,Female,18,
18,2,272,1,1,6,['d'],['d'],Y,Y,['space'],Y,,,,,,,Female,18,
18,3,273,11,11,6,['d'],['d'],Y,N,None,Y,,,,,,,Female,18,
18,4,274,3,3,6,['d'],['k'],N,N,None,Y,,,,,,,Female,18,
18,5,275,6,6,6,['d'],['k'],N,N,None,Y,,,,,,,Female,18,
18,6,276,14,14,6,['k'],['k'],Y,Y,['space'],Y,,,,,,,Female,18,
18,7,277,2,2,6,['d'],['d'],Y,Y,['space'],Y,,,,,,,Female,18,
18,8,278,6,6,6,['d'],['d'],Y,N,['space'],N,,,,,,,Female,18,
18,9,279,9,9,6,['d'],['d'],Y,Y,['space'],Y,,,,,,,Female,18,
18,10,280,0,0,6,['d'],['d'],Y,Y,['space'],Y,,,,,,,Female,18,
18,11,281,5,5,6,['k'],['k'],Y,N,['space'],N,,,,,,,Female,18,
18,12,282,8,8,6,['k'],['k'],Y,Y,['space'],Y,,,,,,,Female,18,
18,13,283,2,2,6,['k'],['k'],Y,Y,None,N,,,,,,,Female,18,
18,14,284,11,11,6,['d'],['k'],N,N,['d'],N,,,,,,,Female,18,
19,0,285,2,2,6,['k'],['k'],Y,Y,None,N,,,,,,,Female,18,
19,1,286,10,10,6,['k'],['k'],Y,Y,['space'],Y,,,,,,,Female,18,
19,2,287,11,11,6,['d'],['d'],Y,Y,['space'],Y,,,,,,,Female,18,
19,3,288,2,2,6,['k'],['k'],Y,N,None,Y,,,,,,,Female,18,
19,4,289,7,7,6,['d'],['d'],Y,Y,None,N,,,,,,,Female,18,
19,5,290,0,0,6,['k'],['d'],N,N,None,Y,,,,,,,Female,18,
19,6,291,13,13,6,['k'],['k'],Y,N,['space'],N,,,,,,,Female,18,
19,7,292,8,8,6,['d'],['d'],Y,Y,['space'],Y,,,,,,,Female,18,
19,8,293,7,7,6,['k'],['k'],Y,Y,['space'],Y,,,,,,,Female,18,
19,9,294,2,2,6,['d'],['d'],Y,Y,None,N,,,,,,,Female,18,
19,10,295,9,9,6,['k'],['k'],Y,N,['space'],N,,,,,,,Female,18,
19,11,296,12,12,6,['k'],['d'],N,N,['d'],N,,,,,,,Female,18,
19,12,297,7,7,6,['d'],['d'],Y,N,None,Y,,,,,,,Female,18,
19,13,298,7,7,6,['d'],['d'],Y,N,['space'],N,,,,,,,Female,18,
19,14,299,7,7,6,['d'],['d'],Y,N,None,Y,42,34,25,,,,Female,18,
20,0,300,0,0,7,['k'],['k'],Y,,,,,,,,,,Female,18,
20,1,301,9,9,7,['d'],['d'],Y,,,,,,,,,,Female,18,
20,2,302,5,5,7,['d'],['d'],Y,N,None,Y,,,,,,,Female,18,
20,3,303,13,13,7,['d'],['d'],Y,Y,['space'],Y,,,,,,,Female,18,
20,4,304,11,11,7,['d'],['k'],N,N,None,Y,,,,,,,Female,18,
20,5,305,2,2,7,['d'],['d'],Y,N,None,Y,,,,,,,Female,18,
20,6,306,14,14,7,['d'],['d'],Y,Y,['space'],Y,,,,,,,Female,18,
20,7,307,12,12,7,['d'],['d'],Y,Y,['space'],Y,,,,,,,Female,18,
20,8,308,7,7,7,['k'],['k'],Y,Y,['space'],Y,,,,,,,Female,18,
20,9,309,5,5,7,['d'],['k'],N,Y,None,N,,,,,,,Female,18,
20,10,310,7,7,7,['d'],['k'],N,N,None,Y,,,,,,,Female,18,
20,11,311,3,3,7,['d'],['d'],Y,Y,['space'],Y,,,,,,,Female,18,
20,12,312,8,8,7,['d'],['d'],Y,N,None,Y,,,,,,,Female,18,
20,13,313,14,14,7,['k'],['k'],Y,N,None,Y,,,,,,,Female,18,
20,14,314,6,6,7,['d'],['d'],Y,Y,['space'],Y,,,,,,,Female,18,
21,0,315,1,1,7,['d'],['d'],Y,Y,['space'],Y,,,,,,,Female,18,
21,1,316,12,12,7,['d'],['d'],Y,N,None,Y,,,,,,,Female,18,
21,2,317,10,10,7,['k'],['k'],Y,N,None,Y,,,,,,,Female,18,
21,3,318,0,0,7,['d'],['d'],Y,Y,None,N,,,,,,,Female,18,
21,4,319,5,5,7,['d'],['d'],Y,Y,['space'],Y,,,,,,,Female,18,
21,5,320,5,5,7,['d'],['d'],Y,N,None,Y,,,,,,,Female,18,
21,6,321,5,5,7,['d'],['k'],N,N,['space'],N,,,,,,,Female,18,
21,7,322,4,4,7,['d'],['d'],Y,N,None,Y,,,,,,,Female,18,
21,8,323,7,7,7,['d'],['d'],Y,N,['space'],N,,,,,,,Female,18,
21,9,324,4,4,7,['k'],['k'],Y,Y,['space'],Y,,,,,,,Female,18,
21,10,325,6,6,7,['d'],['d'],Y,N,None,Y,,,,,,,Female,18,
21,11,326,10,10,7,['k'],['k'],Y,N,None,Y,,,,,,,Female,18,
21,12,327,3,3,7,['k'],['k'],Y,Y,None,N,,,,,,,Female,18,
21,13,328,10,10,7,['k'],['k'],Y,Y,None,N,,,,,,,Female,18,
21,14,329,9,9,7,['d'],['d'],Y,Y,None,N,,,,,,,Female,18,
22,0,330,14,14,7,['d'],['d'],Y,N,['space'],N,,,,,,,Female,18,
22,1,331,4,4,7,['d'],['d'],Y,N,None,Y,,,,,,,Female,18,
22,2,332,0,0,7,['d'],['d'],Y,N,None,Y,,,,,,,Female,18,
22,3,333,12,12,7,['d'],['d'],Y,N,['space'],N,,,,,,,Female,18,
22,4,334,14,14,7,['d'],['d'],Y,N,None,Y,,,,,,,Female,18,
22,5,335,3,3,7,['d'],['d'],Y,N,None,Y,,,,,,,Female,18,
22,6,336,0,0,7,['k'],['d'],N,Y,['space'],Y,,,,,,,Female,18,
22,7,337,0,0,7,['k'],['k'],Y,Y,['space'],Y,,,,,,,Female,18,
22,8,338,14,14,7,['k'],['k'],Y,N,None,Y,,,,,,,Female,18,
22,9,339,14,14,7,['d'],['d'],Y,N,['space'],N,,,,,,,Female,18,
22,10,340,1,1,7,['d'],['d'],Y,N,None,Y,,,,,,,Female,18,
22,11,341,4,4,7,['d'],['d'],Y,N,None,Y,,,,,,,Female,18,
22,12,342,12,12,7,['k'],['d'],N,Y,['space'],Y,,,,,,,Female,18,
22,13,343,11,11,7,['d'],['d'],Y,N,None,Y,,,,,,,Female,18,
22,14,344,3,3,7,['d'],['d'],Y,Y,None,N,,,,,,,Female,18,
23,0,345,2,2,7,['k'],['k'],Y,Y,['d'],N,,,,,,,Female,18,
23,1,346,4,4,7,['d'],['d'],Y,N,None,Y,,,,,,,Female,18,
23,2,347,9,9,7,['k'],['d'],N,N,None,Y,,,,,,,Female,18,
23,3,348,2,2,7,['d'],['d'],Y,N,None,Y,,,,,,,Female,18,
23,4,349,11,11,7,['k'],['d'],N,N,['space'],N,42,35,19,,,,Female,18,
23,5,350,5,5,8,['k'],['k'],Y,,,,,,,,,,Female,18,
23,6,351,7,7,8,['k'],['k'],Y,,,,,,,,,,Female,18,
23,7,352,0,0,8,['k'],['k'],Y,N,None,Y,,,,,,,Female,18,
23,8,353,12,12,8,['d'],['d'],Y,N,None,Y,,,,,,,Female,18,
23,9,354,11,11,8,['d'],['d'],Y,Y,['space'],Y,,,,,,,Female,18,
23,10,355,11,11,8,['d'],['d'],Y,Y,['space'],Y,,,,,,,Female,18,
23,11,356,12,12,8,['d'],['d'],Y,Y,None,N,,,,,,,Female,18,
23,12,357,4,4,8,['k'],['k'],Y,N,None,Y,,,,,,,Female,18,
23,13,358,6,6,8,['k'],['k'],Y,Y,['space'],Y,,,,,,,Female,18,
23,14,359,3,3,8,['d'],['d'],Y,Y,['space'],Y,,,,,,,Female,18,
24,0,360,8,8,8,['d'],['d'],Y,N,None,Y,,,,,,,Female,18,
24,1,361,11,11,8,['k'],['k'],Y,Y,['space'],Y,,,,,,,Female,18,
24,2,362,4,4,8,['d'],['d'],Y,N,['space'],N,,,,,,,Female,18,
24,3,363,12,12,8,['d'],['d'],Y,Y,['space'],Y,,,,,,,Female,18,
24,4,364,10,10,8,['k'],['k'],Y,Y,['space'],Y,,,,,,,Female,18,
24,5,365,0,0,8,['d'],['d'],Y,Y,['space'],Y,,,,,,,Female,18,
24,6,366,8,8,8,['d'],['d'],Y,N,None,Y,,,,,,,Female,18,
24,7,367,10,10,8,['d'],['d'],Y,N,['space'],N,,,,,,,Female,18,
24,8,368,9,9,8,['d'],['k'],N,Y,None,N,,,,,,,Female,18,
24,9,369,7,7,8,['k'],['k'],Y,Y,['space'],Y,,,,,,,Female,18,
24,10,370,4,4,8,['k'],['k'],Y,N,None,Y,,,,,,,Female,18,
24,11,371,14,14,8,['k'],['k'],Y,Y,['space'],Y,,,,,,,Female,18,
24,12,372,1,1,8,['k'],['k'],Y,Y,None,N,,,,,,,Female,18,
24,13,373,13,13,8,['k'],['k'],Y,Y,['space'],Y,,,,,,,Female,18,
24,14,374,4,4,8,['k'],['k'],Y,Y,None,N,,,,,,,Female,18,
25,0,375,0,0,8,['k'],['k'],Y,N,None,Y,,,,,,,Female,18,
25,1,376,5,5,8,['k'],['k'],Y,N,None,Y,,,,,,,Female,18,
25,2,377,11,11,8,['d'],['d'],Y,N,None,Y,,,,,,,Female,18,
25,3,378,3,3,8,['d'],['d'],Y,Y,None,N,,,,,,,Female,18,
25,4,379,6,6,8,['d'],['d'],Y,Y,['k'],N,,,,,,,Female,18,
25,5,380,13,13,8,['d'],['d'],Y,Y,['space'],Y,,,,,,,Female,18,
25,6,381,5,5,8,['d'],['d'],Y,N,['space'],N,,,,,,,Female,18,
25,7,382,5,5,8,['k'],['k'],Y,N,None,Y,,,,,,,Female,18,
25,8,383,0,0,8,['k'],['k'],Y,Y,['space'],Y,,,,,,,Female,18,
25,9,384,0,0,8,['k'],['k'],Y,N,None,Y,,,,,,,Female,18,
25,10,385,6,6,8,['d'],['d'],Y,N,None,Y,,,,,,,Female,18,
25,11,386,10,10,8,['k'],['d'],N,N,None,Y,,,,,,,Female,18,
25,12,387,8,8,8,['k'],['k'],Y,N,None,Y,,,,,,,Female,18,
25,13,388,3,3,8,['k'],['d'],N,N,None,Y,,,,,,,Female,18,
25,14,389,10,10,8,['d'],['k'],N,N,None,Y,,,,,,,Female,18,
26,0,390,12,12,8,['k'],['k'],Y,Y,['space'],Y,,,,,,,Female,18,
26,1,391,14,14,8,['k'],['k'],Y,Y,['space'],Y,,,,,,,Female,18,
26,2,392,14,14,8,['k'],['k'],Y,Y,['space'],Y,,,,,,,Female,18,
26,3,393,7,7,8,['d'],['d'],Y,Y,['space'],Y,,,,,,,Female,18,
26,4,394,12,12,8,['d'],['d'],Y,Y,['space'],Y,,,,,,,Female,18,
26,5,395,4,4,8,['k'],['k'],Y,N,['space'],N,,,,,,,Female,18,
26,6,396,1,1,8,['k'],['k'],Y,N,None,Y,,,,,,,Female,18,
26,7,397,10,10,8,['k'],['k'],Y,N,None,Y,,,,,,,Female,18,
26,8,398,6,6,8,['k'],['k'],Y,Y,['space'],Y,,,,,,,Female,18,
26,9,399,10,10,8,['k'],['d'],N,N,None,Y,45,38,25,,,,Female,18,
26,10,400,3,3,9,['k'],['d'],N,,,,,,,,,,Female,18,
26,11,401,5,5,9,['k'],['k'],Y,,,,,,,,,,Female,18,
26,12,402,4,4,9,['k'],['k'],Y,N,None,Y,,,,,,,Female,18,
26,13,403,6,6,9,['d'],['k'],N,Y,['d'],N,,,,,,,Female,18,
26,14,404,6,6,9,['k'],['k'],Y,N,None,Y,,,,,,,Female,18,
27,0,405,4,4,9,['k'],['k'],Y,Y,None,N,,,,,,,Female,18,
27,1,406,8,8,9,['k'],['k'],Y,N,None,Y,,,,,,,Female,18,
27,2,407,12,12,9,['d'],['d'],Y,Y,['space'],Y,,,,,,,Female,18,
27,3,408,8,8,9,['d'],['d'],Y,N,None,Y,,,,,,,Female,18,
27,4,409,9,9,9,['k'],['k'],Y,Y,['space'],Y,,,,,,,Female,18,
27,5,410,6,6,9,['d'],['k'],N,Y,['space'],Y,,,,,,,Female,18,
27,6,411,11,11,9,['d'],['d'],Y,Y,None,N,,,,,,,Female,18,
27,7,412,1,1,9,['d'],['d'],Y,Y,['k'],N,,,,,,,Female,18,
27,8,413,2,2,9,['d'],['k'],N,Y,['space'],Y,,,,,,,Female,18,
27,9,414,11,11,9,['k'],['k'],Y,Y,['space'],Y,,,,,,,Female,18,
27,10,415,5,5,9,['d'],['d'],Y,Y,['space'],Y,,,,,,,Female,18,
27,11,416,4,4,9,['k'],['k'],Y,N,None,Y,,,,,,,Female,18,
27,12,417,1,1,9,['d'],['d'],Y,Y,['space'],Y,,,,,,,Female,18,
27,13,418,6,6,9,['k'],['k'],Y,Y,['space'],Y,,,,,,,Female,18,
27,14,419,8,8,9,['d'],['d'],Y,N,None,Y,,,,,,,Female,18,
28,0,420,10,10,9,['k'],['k'],Y,Y,None,N,,,,,,,Female,18,
28,1,421,2,2,9,['d'],['k'],N,N,None,Y,,,,,,,Female,18,
28,2,422,12,12,9,['k'],['k'],Y,N,None,Y,,,,,,,Female,18,
28,3,423,1,1,9,['d'],['d'],Y,N,None,Y,,,,,,,Female,18,
28,4,424,4,4,9,['k'],['k'],Y,Y,['space'],Y,,,,,,,Female,18,
28,5,425,2,2,9,['k'],['k'],Y,N,None,Y,,,,,,,Female,18,
28,6,426,14,14,9,['d'],['d'],Y,N,None,Y,,,,,,,Female,18,
28,7,427,9,9,9,['k'],['k'],Y,N,None,Y,,,,,,,Female,18,
28,8,428,11,11,9,['d'],['d'],Y,N,None,Y,,,,,,,Female,18,
28,9,429,5,5,9,['k'],['k'],Y,N,None,Y,,,,,,,Female,18,
28,10,430,2,2,9,['d'],['k'],N,N,None,Y,,,,,,,Female,18,
28,11,431,14,14,9,['k'],['k'],Y,Y,None,N,,,,,,,Female,18,
28,12,432,8,8,9,['d'],['d'],Y,Y,None,N,,,,,,,Female,18,
28,13,433,13,13,9,['k'],['d'],N,Y,None,N,,,,,,,Female,18,
28,14,434,1,1,9,['d'],['d'],Y,Y,['space'],Y,,,,,,,Female,18,
29,0,435,5,5,9,['k'],['k'],Y,N,None,Y,,,,,,,Female,18,
29,1,436,3,3,9,['d'],['d'],Y,Y,None,N,,,,,,,Female,18,
29,2,437,0,0,9,['d'],['d'],Y,N,None,Y,,,,,,,Female,18,
29,3,438,4,4,9,['d'],['d'],Y,Y,['space'],Y,,,,,,,Female,18,
29,4,439,5,5,9,['k'],['k'],Y,N,None,Y,,,,,,,Female,18,
29,5,440,0,0,9,['k'],['d'],N,N,None,Y,,,,,,,Female,18,
29,6,441,1,1,9,['k'],['k'],Y,Y,['space'],Y,,,,,,,Female,18,
29,7,442,9,9,9,['d'],['d'],Y,N,None,Y,,,,,,,Female,18,
29,8,443,8,8,9,['k'],['k'],Y,Y,['space'],Y,,,,,,,Female,18,
29,9,444,12,12,9,['d'],['d'],Y,Y,['space'],Y,,,,,,,Female,18,
29,10,445,7,7,9,['k'],['k'],Y,Y,['space'],Y,,,,,,,Female,18,
29,11,446,4,4,9,['k'],['k'],Y,Y,None,N,,,,,,,Female,18,
29,12,447,10,10,9,['d'],['k'],N,N,None,Y,,,,,,,Female,18,
29,13,448,13,13,9,['k'],['k'],Y,N,None,Y,,,,,,,Female,18,
29,14,449,14,14,9,['k'],['k'],Y,N,None,Y,41,38,25,,,,Female,18,
30,0,450,11,11,10,['d'],['d'],Y,,,,,,,,,,Female,18,
30,1,451,9,9,10,['k'],['k'],Y,,,,,,,,,,Female,18,
30,2,452,10,10,10,['d'],['d'],Y,Y,None,N,,,,,,,Female,18,
30,3,453,13,13,10,['d'],['d'],Y,Y,None,N,,,,,,,Female,18,
30,4,454,9,9,10,['k'],['k'],Y,Y,['space'],Y,,,,,,,Female,18,
30,5,455,8,8,10,['k'],['k'],Y,Y,['space'],Y,,,,,,,Female,18,
30,6,456,2,2,10,['d'],['d'],Y,N,None,Y,,,,,,,Female,18,
30,7,457,2,2,10,['k'],['k'],Y,Y,['space'],Y,,,,,,,Female,18,
30,8,458,11,11,10,['k'],['d'],N,Y,['space'],Y,,,,,,,Female,18,
30,9,459,6,6,10,['d'],['d'],Y,Y,['space'],Y,,,,,,,Female,18,
30,10,460,9,9,10,['k'],['k'],Y,N,None,Y,,,,,,,Female,18,
30,11,461,7,7,10,['k'],['k'],Y,Y,['space'],Y,,,,,,,Female,18,
30,12,462,10,10,10,['d'],['d'],Y,N,None,Y,,,,,,,Female,18,
30,13,463,4,4,10,['k'],['k'],Y,N,None,Y,,,,,,,Female,18,
30,14,464,12,12,10,['d'],['d'],Y,Y,['space'],Y,,,,,,,Female,18,
31,0,465,9,9,10,['k'],['d'],N,N,['space'],N,,,,,,,Female,18,
31,1,466,0,0,10,['k'],['k'],Y,Y,['space'],Y,,,,,,,Female,18,
31,2,467,3,3,10,['d'],['d'],Y,Y,['space'],Y,,,,,,,Female,18,
31,3,468,2,2,10,['k'],['k'],Y,N,None,Y,,,,,,,Female,18,
31,4,469,1,1,10,['k'],['k'],Y,Y,['space'],Y,,,,,,,Female,18,
31,5,470,13,13,10,['k'],['k'],Y,Y,None,N,,,,,,,Female,18,
31,6,471,9,9,10,['d'],['d'],Y,Y,['space'],Y,,,,,,,Female,18,
31,7,472,11,11,10,['d'],['d'],Y,Y,None,N,,,,,,,Female,18,
31,8,473,9,9,10,['d'],['d'],Y,Y,['space'],Y,,,,,,,Female,18,
31,9,474,0,0,10,['k'],['k'],Y,N,None,Y,,,,,,,Female,18,
31,10,475,9,9,10,['d'],['d'],Y,N,None,Y,,,,,,,Female,18,
31,11,476,3,3,10,['d'],['d'],Y,Y,['space'],Y,,,,,,,Female,18,
31,12,477,14,14,10,['k'],['d'],N,N,None,Y,,,,,,,Female,18,
31,13,478,1,1,10,['k'],['k'],Y,N,['space'],N,,,,,,,Female,18,
31,14,479,7,7,10,['k'],['k'],Y,Y,None,N,,,,,,,Female,18,
32,0,480,3,3,10,['d'],['d'],Y,N,None,Y,,,,,,,Female,18,
32,1,481,8,8,10,['d'],['d'],Y,Y,['space'],Y,,,,,,,Female,18,
32,2,482,7,7,10,['k'],['k'],Y,Y,None,N,,,,,,,Female,18,
32,3,483,2,2,10,['d'],['d'],Y,Y,None,N,,,,,,,Female,18,
32,4,484,4,4,10,['k'],['k'],Y,N,None,Y,,,,,,,Female,18,
32,5,485,9,9,10,['d'],['d'],Y,N,None,Y,,,,,,,Female,18,
32,6,486,12,12,10,['d'],['d'],Y,N,None,Y,,,,,,,Female,18,
32,7,487,7,7,10,['k'],['k'],Y,Y,['space'],Y,,,,,,,Female,18,
32,8,488,3,3,10,['d'],['d'],Y,Y,['space'],Y,,,,,,,Female,18,
32,9,489,7,7,10,['d'],['d'],Y,Y,['space'],Y,,,,,,,Female,18,
32,10,490,13,13,10,['d'],['d'],Y,N,None,Y,,,,,,,Female,18,
32,11,491,6,6,10,['d'],['d'],Y,Y,['space'],Y,,,,,,,Female,18,
32,12,492,6,6,10,['d'],['d'],Y,N,None,Y,,,,,,,Female,18,
32,13,493,1,1,10,['k'],['k'],Y,N,None,Y,,,,,,,Female,18,
32,14,494,1,1,10,['d'],['d'],Y,N,['space'],N,,,,,,,Female,18,
33,0,495,2,2,10,['k'],['d'],N,N,None,Y,,,,,,,Female,18,
33,1,496,8,8,10,['d'],['d'],Y,N,None,Y,,,,,,,Female,18,
33,2,497,5,5,10,['k'],['k'],Y,N,None,Y,,,,,,,Female,18,
33,3,498,5,5,10,['k'],['k'],Y,N,None,Y,,,,,,,Female,18,
33,4,499,3,3,10,['d'],['d'],Y,N,None,Y,46,38,25,,,,Female,18,
33,5,500,7,7,11,['d'],['k'],Y,,,,,,,Y,Y,Y,Female,18,
33,6,501,3,3,11,['k'],['d'],Y,,,,,,,,Y,Y,Female,18,
33,7,502,8,8,11,['k'],['d'],Y,N,None,Y,,,,,Y,Y,Female,18,
33,8,503,6,6,11,['d'],['k'],Y,Y,['space'],Y,,,,,Y,Y,Female,18,
33,9,504,14,14,11,['d'],['d'],N,Y,['space'],Y,,,,,Y,Y,Female,18,
33,10,505,14,14,11,['k'],['k'],N,N,None,Y,,,,,Y,Y,Female,18,
33,11,506,10,10,11,['d'],['k'],Y,N,None,Y,,,,,Y,Y,Female,18,
33,12,507,14,14,11,['d'],['k'],Y,N,None,Y,,,,,Y,Y,Female,18,
33,13,508,12,12,11,['d'],['k'],Y,N,None,Y,,,,,Y,Y,Female,18,
33,14,509,1,1,11,['d'],['k'],Y,N,None,Y,,,,,Y,Y,Female,18,
34,0,510,1,1,11,['k'],['k'],N,Y,['space'],Y,,,,,Y,Y,Female,18,
34,1,511,7,7,11,['d'],['k'],Y,Y,['space'],Y,,,,,Y,Y,Female,18,
34,2,512,6,6,11,['k'],['d'],Y,N,None,Y,,,,,Y,Y,Female,18,
34,3,513,9,9,11,['d'],['k'],Y,N,None,Y,,,,,Y,Y,Female,18,
34,4,514,14,14,11,['d'],['k'],Y,Y,['space'],Y,,,,,Y,Y,Female,18,
34,5,515,12,12,11,['d'],['k'],Y,N,None,Y,,,,,Y,Y,Female,18,
34,6,516,6,6,11,['d'],['k'],Y,N,None,Y,,,,,Y,Y,Female,18,
34,7,517,12,12,11,['k'],['d'],Y,N,None,Y,,,,,Y,Y,Female,18,
34,8,518,11,11,11,['k'],['d'],Y,N,None,Y,,,,,Y,Y,Female,18,
34,9,519,6,6,11,['k'],['d'],Y,Y,['space'],Y,,,,,Y,Y,Female,18,
34,10,520,14,14,11,['k'],['d'],Y,N,None,Y,,,,,Y,Y,Female,18,
34,11,521,13,13,11,['d'],['k'],Y,N,None,Y,,,,,Y,Y,Female,18,
34,12,522,1,1,11,['d'],['k'],Y,N,None,Y,,,,,Y,Y,Female,18,
34,13,523,4,4,11,['d'],['k'],Y,Y,['space'],Y,,,,,Y,Y,Female,18,
34,14,524,11,11,11,['k'],['k'],N,Y,None,N,,,,,Y,Y,Female,18,
35,0,525,3,3,11,['k'],['d'],Y,Y,['space'],Y,,,,,Y,Y,Female,18,
35,1,526,4,4,11,['k'],['d'],Y,Y,None,N,,,,,Y,Y,Female,18,
35,2,527,11,11,11,['k'],['d'],Y,N,None,Y,,,,,Y,Y,Female,18,
35,3,528,6,6,11,['d'],['k'],Y,Y,['space'],Y,,,,,Y,Y,Female,18,
35,4,529,5,5,11,['d'],['k'],Y,Y,['space'],Y,,,,,Y,Y,Female,18,
35,5,530,0,0,11,['k'],['d'],Y,Y,['space'],Y,,,,,Y,Y,Female,18,
35,6,531,0,0,11,['k'],['d'],Y,Y,None,N,,,,,Y,Y,Female,18,
35,7,532,10,10,11,['d'],['k'],Y,Y,['space'],Y,,,,,Y,Y,Female,18,
35,8,533,3,3,11,['k'],['d'],Y,Y,None,N,,,,,Y,Y,Female,18,
35,9,534,2,2,11,['k'],['d'],Y,N,None,Y,,,,,Y,Y,Female,18,
35,10,535,8,8,11,['d'],['d'],N,Y,['space'],Y,,,,,Y,Y,Female,18,
35,11,536,0,0,11,['d'],['k'],Y,Y,['space'],Y,,,,,Y,Y,Female,18,
35,12,537,8,8,11,['k'],['k'],N,N,None,Y,,,,,Y,Y,Female,18,
35,13,538,12,12,11,['k'],['d'],Y,Y,['space'],Y,,,,,Y,Y,Female,18,
35,14,539,1,1,11,['k'],['d'],Y,Y,['space'],Y,,,,,Y,Y,Female,18,
36,0,540,8,8,11,['d'],['k'],Y,Y,['space'],Y,,,,,Y,Y,Female,18,
36,1,541,10,10,11,['k'],['d'],Y,N,None,Y,,,,,Y,Y,Female,18,
36,2,542,12,12,11,['d'],['k'],Y,N,None,Y,,,,,Y,Y,Female,18,
36,3,543,8,8,11,['d'],['k'],Y,N,None,Y,,,,,Y,Y,Female,18,
36,4,544,5,5,11,['d'],['k'],Y,Y,None,N,,,,,Y,Y,Female,18,
36,5,545,0,0,11,['k'],['d'],Y,N,None,Y,,,,,Y,Y,Female,18,
36,6,546,6,6,11,['k'],['k'],N,Y,['space'],Y,,,,,Y,Y,Female,18,
36,7,547,12,12,11,['k'],['d'],Y,N,['space'],N,,,,,Y,Y,Female,18,
36,8,548,4,4,11,['k'],['d'],Y,Y,['space'],Y,,,,,Y,Y,Female,18,
36,9,549,12,12,11,['d'],['k'],Y,Y,['space'],Y,43,42,25,,Y,Y,Female,18,
36,10,550,11,11,12,['d'],['k'],Y,,,,,,,,Y,Y,Female,18,
36,11,551,5,5,12,['d'],['k'],Y,,,,,,,,Y,Y,Female,18,
36,12,552,12,12,12,['d'],['k'],Y,Y,['space'],Y,,,,,Y,Y,Female,18,
36,13,553,14,14,12,['k'],['d'],Y,N,None,Y,,,,,Y,Y,Female,18,
36,14,554,0,0,12,['d'],['d'],N,N,None,Y,,,,,Y,Y,Female,18,
37,0,555,3,3,12,['d'],['k'],Y,Y,['space'],Y,,,,,Y,Y,Female,18,
37,1,556,14,14,12,['d'],['k'],Y,Y,['space'],Y,,,,,Y,Y,Female,18,
37,2,557,13,13,12,['k'],['d'],Y,N,None,Y,,,,,Y,Y,Female,18,
37,3,558,13,13,12,['d'],['k'],Y,N,None,Y,,,,,Y,Y,Female,18,
37,4,559,10,10,12,['k'],['k'],N,N,None,Y,,,,,Y,Y,Female,18,
37,5,560,11,11,12,['d'],['k'],Y,Y,['space'],Y,,,,,Y,Y,Female,18,
37,6,561,0,0,12,['d'],['k'],Y,N,None,Y,,,,,Y,Y,Female,18,
37,7,562,10,10,12,['d'],['d'],N,N,['space'],N,,,,,Y,Y,Female,18,
37,8,563,14,14,12,['d'],['k'],Y,N,None,Y,,,,,Y,Y,Female,18,
37,9,564,9,9,12,['d'],['k'],Y,N,None,Y,,,,,Y,Y,Female,18,
37,10,565,1,1,12,['k'],['d'],Y,Y,['space'],Y,,,,,Y,Y,Female,18,
37,11,566,5,5,12,['k'],['d'],Y,Y,['space'],Y,,,,,Y,Y,Female,18,
37,12,567,14,14,12,['d'],['k'],Y,N,None,Y,,,,,Y,Y,Female,18,
37,13,568,3,3,12,['k'],['k'],N,N,None,Y,,,,,Y,Y,Female,18,
37,14,569,8,8,12,['d'],['k'],Y,N,None,Y,,,,,Y,Y,Female,18,
38,0,570,7,7,12,['d'],['k'],Y,N,None,Y,,,,,Y,Y,Female,18,
38,1,571,0,0,12,['d'],['d'],N,Y,['space'],Y,,,,,Y,Y,Female,18,
38,2,572,7,7,12,['d'],['k'],Y,N,['space'],N,,,,,Y,Y,Female,18,
38,3,573,13,13,12,['k'],['d'],Y,Y,['space'],Y,,,,,Y,Y,Female,18,
38,4,574,2,2,12,['k'],['d'],Y,N,None,Y,,,,,Y,Y,Female,18,
38,5,575,9,9,12,['k'],['d'],Y,Y,['space'],Y,,,,,Y,Y,Female,18,
38,6,576,8,8,12,['k'],['d'],Y,N,None,Y,,,,,Y,Y,Female,18,
38,7,577,9,9,12,['k'],['d'],Y,Y,['space'],Y,,,,,Y,Y,Female,18,
38,8,578,9,9,12,['k'],['d'],Y,Y,['space'],Y,,,,,Y,Y,Female,18,
38,9,579,8,8,12,['d'],['k'],Y,N,None,Y,,,,,Y,Y,Female,18,
38,10,580,13,13,12,['d'],['k'],Y,N,None,Y,,,,,Y,Y,Female,18,
38,11,581,4,4,12,['d'],['k'],Y,N,None,Y,,,,,Y,Y,Female,18,
38,12,582,12,12,12,['k'],['k'],N,Y,['space'],Y,,,,,Y,Y,Female,18,
38,13,583,0,0,12,['k'],['d'],Y,N,None,Y,,,,,Y,Y,Female,18,
38,14,584,9,9,12,['k'],['d'],Y,N,None,Y,,,,,Y,Y,Female,18,
39,0,585,6,6,12,['k'],['d'],Y,N,None,Y,,,,,Y,Y,Female,18,
39,1,586,10,10,12,['d'],['k'],Y,Y,['space'],Y,,,,,Y,Y,Female,18,
39,2,587,8,8,12,['d'],['k'],Y,Y,['space'],Y,,,,,Y,Y,Female,18,
39,3,588,13,13,12,['d'],['k'],Y,N,None,Y,,,,,Y,Y,Female,18,
39,4,589,2,2,12,['d'],['k'],Y,Y,['space'],Y,,,,,Y,Y,Female,18,
39,5,590,8,8,12,['k'],['k'],N,N,None,Y,,,,,Y,Y,Female,18,
39,6,591,1,1,12,['d'],['k'],Y,Y,['space'],Y,,,,,Y,Y,Female,18,
39,7,592,10,10,12,['k'],['d'],Y,N,None,Y,,,,,Y,Y,Female,18,
39,8,593,2,2,12,['d'],['d'],N,N,None,Y,,,,,Y,Y,Female,18,
39,9,594,3,3,12,['d'],['k'],Y,N,None,Y,,,,,Y,Y,Female,18,
39,10,595,9,9,12,['d'],['d'],N,Y,['space'],Y,,,,,Y,Y,Female,18,
39,11,596,3,3,12,['k'],['d'],Y,Y,['space'],Y,,,,,Y,Y,Female,18,
39,12,597,10,10,12,['k'],['d'],Y,N,None,Y,,,,,Y,Y,Female,18,
39,13,598,11,11,12,['d'],['k'],Y,N,None,Y,,,,,Y,Y,Female,18,
39,14,599,5,5,12,['k'],['d'],Y,N,None,Y,41,46,18,,Y,Y,Female,18,
