.thisRepN,.thisTrialN,.thisN,.thisIndex,.thisTrial,Block Number,Key pressed,Category,Correct?,Int Match?,Int Response,Int Correct?,Line Accuracy,Interference Accuracy,Matching Interferences,New instruction shown?,Buttons switched?,Fast?,gender,age,
0,0,0,11,11,1,['d'],['k'],N,,,,,,,,,,F,20,
0,1,1,13,13,1,['d'],['k'],N,,,,,,,,,,F,20,
0,2,2,12,12,1,['k'],['d'],N,N,None,Y,,,,,,,F,20,
0,3,3,4,4,1,['d'],['k'],N,Y,None,N,,,,,,,F,20,
0,4,4,0,0,1,['k'],['d'],N,N,['space'],N,,,,,,,F,20,
0,5,5,0,0,1,['d'],['k'],N,Y,['space'],Y,,,,,,,F,20,
0,6,6,1,1,1,['d'],['k'],N,N,None,Y,,,,,,,F,20,
0,7,7,10,10,1,['k'],['k'],Y,N,None,Y,,,,,,,F,20,
0,8,8,2,2,1,['d'],['k'],N,Y,['space'],Y,,,,,,,F,20,
0,9,9,3,3,1,['k'],['d'],N,N,None,Y,,,,,,,F,20,
0,10,10,12,12,1,['d'],['k'],N,Y,None,N,,,,,,,F,20,
0,11,11,12,12,1,['k'],['d'],N,Y,None,N,,,,,,,F,20,
0,12,12,1,1,1,['d'],['k'],N,Y,['space'],Y,,,,,,,F,20,
0,13,13,7,7,1,['k'],['d'],N,Y,['space'],Y,,,,,,,F,20,
0,14,14,4,4,1,['d'],['d'],Y,Y,None,N,,,,,,,F,20,
1,0,15,6,6,1,['k'],['k'],Y,N,['space'],N,,,,,,,F,20,
1,1,16,0,0,1,['k'],['k'],Y,Y,None,N,,,,,,,F,20,
1,2,17,13,13,1,['d'],['k'],N,Y,None,N,,,,,,,F,20,
1,3,18,14,14,1,['k'],['k'],Y,N,None,Y,,,,,,,F,20,
1,4,19,3,3,1,['d'],['k'],N,N,None,Y,,,,,,,F,20,
1,5,20,2,2,1,['k'],['k'],Y,Y,None,N,,,,,,,F,20,
1,6,21,8,8,1,['k'],['k'],Y,Y,['space'],Y,,,,,,,F,20,
1,7,22,0,0,1,['k'],['d'],N,N,['space'],N,,,,,,,F,20,
1,8,23,2,2,1,['d'],['k'],N,N,None,Y,,,,,,,F,20,
1,9,24,6,6,1,['k'],['k'],Y,Y,['k'],N,,,,,,,F,20,
1,10,25,2,2,1,['d'],['d'],Y,N,None,Y,,,,,,,F,20,
1,11,26,2,2,1,['k'],['d'],N,Y,None,N,,,,,,,F,20,
1,12,27,4,4,1,['k'],['d'],N,N,None,Y,,,,,,,F,20,
1,13,28,0,0,1,['d'],['d'],Y,Y,None,N,,,,,,,F,20,
1,14,29,7,7,1,['k'],['k'],Y,N,None,Y,,,,,,,F,20,
2,0,30,8,8,1,['k'],['d'],N,Y,['space'],Y,,,,,,,F,20,
2,1,31,9,9,1,['d'],['d'],Y,N,None,Y,,,,,,,F,20,
2,2,32,7,7,1,['k'],['k'],Y,Y,['space'],Y,,,,,,,F,20,
2,3,33,6,6,1,['d'],['k'],N,Y,None,N,,,,,,,F,20,
2,4,34,12,12,1,['k'],['k'],Y,N,None,Y,,,,,,,F,20,
2,5,35,11,11,1,['d'],['d'],Y,Y,None,N,,,,,,,F,20,
2,6,36,8,8,1,['k'],['d'],N,Y,None,N,,,,,,,F,20,
2,7,37,14,14,1,['d'],['d'],Y,N,None,Y,,,,,,,F,20,
2,8,38,1,1,1,['k'],['k'],Y,Y,None,N,,,,,,,F,20,
2,9,39,2,2,1,['d'],['k'],N,N,None,Y,,,,,,,F,20,
2,10,40,3,3,1,['k'],['k'],Y,N,['k'],N,,,,,,,F,20,
2,11,41,7,7,1,['d'],['d'],Y,Y,None,N,,,,,,,F,20,
2,12,42,9,9,1,['k'],['d'],N,Y,None,N,,,,,,,F,20,
2,13,43,12,12,1,['d'],['k'],N,Y,None,N,,,,,,,F,20,
2,14,44,12,12,1,['k'],['k'],Y,N,None,Y,,,,,,,F,20,
3,0,45,4,4,1,['d'],['k'],N,Y,None,N,,,,,,,F,20,
3,1,46,11,11,1,['k'],['k'],Y,N,None,Y,,,,,,,F,20,
3,2,47,8,8,1,['d'],['d'],Y,N,None,Y,,,,,,,F,20,
3,3,48,13,13,1,['k'],['d'],N,N,None,Y,,,,,,,F,20,
3,4,49,11,11,1,['d'],['d'],Y,N,None,Y,23,26,25,,,,F,20,
3,5,50,6,6,2,['k'],['d'],N,,,,,,,,,,F,20,
3,6,51,5,5,2,['d'],['k'],N,,,,,,,,,,F,20,
3,7,52,4,4,2,['k'],['k'],Y,N,None,Y,,,,,,,F,20,
3,8,53,10,10,2,['d'],['d'],Y,N,None,Y,,,,,,,F,20,
3,9,54,9,9,2,['k'],['k'],Y,Y,None,N,,,,,,,F,20,
3,10,55,11,11,2,['d'],['d'],Y,Y,None,N,,,,,,,F,20,
3,11,56,6,6,2,['k'],['k'],Y,Y,['space'],Y,,,,,,,F,20,
3,12,57,3,3,2,['d'],['k'],N,N,None,Y,,,,,,,F,20,
3,13,58,8,8,2,['k'],['d'],N,N,None,Y,,,,,,,F,20,
3,14,59,5,5,2,['d'],['d'],Y,Y,None,N,,,,,,,F,20,
4,0,60,4,4,2,['k'],['d'],N,Y,None,N,,,,,,,F,20,
4,1,61,10,10,2,['d'],['d'],Y,Y,None,N,,,,,,,F,20,
4,2,62,12,12,2,['d'],['d'],Y,N,None,Y,,,,,,,F,20,
4,3,63,9,9,2,['k'],['k'],Y,N,None,Y,,,,,,,F,20,
4,4,64,11,11,2,['k'],['k'],Y,Y,None,N,,,,,,,F,20,
4,5,65,6,6,2,['d'],['k'],N,N,None,Y,,,,,,,F,20,
4,6,66,10,10,2,['k'],['d'],N,N,None,Y,,,,,,,F,20,
4,7,67,0,0,2,['d'],['k'],N,N,None,Y,,,,,,,F,20,
4,8,68,14,14,2,['k'],['k'],Y,N,None,Y,,,,,,,F,20,
4,9,69,4,4,2,['k'],['k'],Y,N,None,Y,,,,,,,F,20,
4,10,70,7,7,2,['k'],['k'],Y,Y,None,N,,,,,,,F,20,
4,11,71,3,3,2,['d'],['d'],Y,N,None,Y,,,,,,,F,20,
4,12,72,8,8,2,['k'],['d'],N,Y,None,N,,,,,,,F,20,
4,13,73,2,2,2,['d'],['d'],Y,N,None,Y,,,,,,,F,20,
4,14,74,5,5,2,['d'],['k'],N,N,['space'],N,,,,,,,F,20,
5,0,75,1,1,2,['k'],['d'],N,Y,['space'],Y,,,,,,,F,20,
5,1,76,4,4,2,['k'],['k'],Y,Y,['space'],Y,,,,,,,F,20,
5,2,77,6,6,2,['d'],['k'],N,Y,['space'],Y,,,,,,,F,20,
5,3,78,3,3,2,['k'],['d'],N,Y,['space'],Y,,,,,,,F,20,
5,4,79,6,6,2,['k'],['d'],N,N,None,Y,,,,,,,F,20,
5,5,80,13,13,2,['d'],['d'],Y,Y,None,N,,,,,,,F,20,
5,6,81,4,4,2,['k'],['k'],Y,N,None,Y,,,,,,,F,20,
5,7,82,9,9,2,['d'],['d'],Y,N,None,Y,,,,,,,F,20,
5,8,83,6,6,2,['k'],['k'],Y,Y,None,N,,,,,,,F,20,
5,9,84,4,4,2,['d'],['k'],N,N,None,Y,,,,,,,F,20,
5,10,85,4,4,2,['k'],['d'],N,N,None,Y,,,,,,,F,20,
5,11,86,14,14,2,['d'],['k'],N,Y,['space'],Y,,,,,,,F,20,
5,12,87,12,12,2,['k'],['d'],N,Y,['space'],Y,,,,,,,F,20,
5,13,88,7,7,2,['d'],['d'],Y,N,['d'],N,,,,,,,F,20,
5,14,89,12,12,2,['k'],['k'],Y,N,None,Y,,,,,,,F,20,
6,0,90,4,4,2,['d'],['d'],Y,Y,['space'],Y,,,,,,,F,20,
6,1,91,6,6,2,['k'],['d'],N,Y,['space'],Y,,,,,,,F,20,
6,2,92,7,7,2,['d'],['k'],N,N,None,Y,,,,,,,F,20,
6,3,93,9,9,2,['k'],['d'],N,Y,['space'],Y,,,,,,,F,20,
6,4,94,13,13,2,['d'],['d'],Y,N,['d'],N,,,,,,,F,20,
6,5,95,8,8,2,['k'],['d'],N,N,None,Y,,,,,,,F,20,
6,6,96,1,1,2,['k'],['d'],N,Y,['space'],Y,,,,,,,F,20,
6,7,97,9,9,2,['d'],['d'],Y,N,None,Y,,,,,,,F,20,
6,8,98,11,11,2,['d'],['k'],N,N,None,Y,,,,,,,F,20,
6,9,99,3,3,2,['k'],['k'],Y,N,None,Y,26,35,21,,,,F,20,
6,10,100,9,9,3,['d'],['d'],Y,,,,,,,,,,F,20,
6,11,101,8,8,3,['k'],['d'],N,,,,,,,,,,F,20,
6,12,102,1,1,3,['d'],['k'],N,Y,None,N,,,,,,,F,20,
6,13,103,12,12,3,['k'],['k'],Y,Y,None,N,,,,,,,F,20,
6,14,104,10,10,3,['d'],['k'],N,Y,['space'],Y,,,,,,,F,20,
7,0,105,1,1,3,['k'],['k'],Y,Y,None,N,,,,,,,F,20,
7,1,106,2,2,3,['d'],['d'],Y,N,None,Y,,,,,,,F,20,
7,2,107,1,1,3,['k'],['k'],Y,Y,['space'],Y,,,,,,,F,20,
7,3,108,0,0,3,['d'],['k'],N,Y,['space'],Y,,,,,,,F,20,
7,4,109,5,5,3,['d'],['k'],N,N,None,Y,,,,,,,F,20,
7,5,110,13,13,3,['k'],['d'],N,Y,['space'],Y,,,,,,,F,20,
7,6,111,13,13,3,['d'],['d'],Y,N,None,Y,,,,,,,F,20,
7,7,112,13,13,3,['k'],['k'],Y,N,None,Y,,,,,,,F,20,
7,8,113,13,13,3,['k'],['d'],N,Y,['space'],Y,,,,,,,F,20,
7,9,114,9,9,3,['k'],['k'],Y,Y,['space'],Y,,,,,,,F,20,
7,10,115,10,10,3,['k'],['d'],N,Y,['space'],Y,,,,,,,F,20,
7,11,116,7,7,3,['d'],['k'],N,Y,None,N,,,,,,,F,20,
7,12,117,2,2,3,['d'],['d'],Y,N,['space'],N,,,,,,,F,20,
7,13,118,13,13,3,['k'],['k'],Y,N,None,Y,,,,,,,F,20,
7,14,119,6,6,3,['d'],['d'],Y,N,None,Y,,,,,,,F,20,
8,0,120,8,8,3,['k'],['k'],Y,Y,None,N,,,,,,,F,20,
8,1,121,6,6,3,['k'],['k'],Y,Y,None,N,,,,,,,F,20,
8,2,122,4,4,3,['d'],['k'],N,Y,None,N,,,,,,,F,20,
8,3,123,7,7,3,['k'],['d'],N,Y,None,N,,,,,,,F,20,
8,4,124,5,5,3,['k'],['d'],N,Y,None,N,,,,,,,F,20,
8,5,125,4,4,3,['d'],['d'],Y,N,None,Y,,,,,,,F,20,
8,6,126,3,3,3,['k'],['k'],Y,N,None,Y,,,,,,,F,20,
8,7,127,14,14,3,['k'],['d'],N,Y,['space'],Y,,,,,,,F,20,
8,8,128,3,3,3,['d'],['k'],N,Y,None,N,,,,,,,F,20,
8,9,129,13,13,3,['d'],['d'],Y,N,None,Y,,,,,,,F,20,
8,10,130,3,3,3,['k'],['d'],N,Y,None,N,,,,,,,F,20,
8,11,131,8,8,3,['k'],['d'],N,Y,['space'],Y,,,,,,,F,20,
8,12,132,5,5,3,['d'],['d'],Y,N,None,Y,,,,,,,F,20,
8,13,133,5,5,3,['d'],['d'],Y,Y,['space'],Y,,,,,,,F,20,
8,14,134,8,8,3,['d'],['k'],N,N,None,Y,,,,,,,F,20,
9,0,135,1,1,3,['k'],['k'],Y,N,None,Y,,,,,,,F,20,
9,1,136,5,5,3,['d'],['d'],Y,N,['space'],N,,,,,,,F,20,
9,2,137,6,6,3,['k'],['d'],N,Y,None,N,,,,,,,F,20,
9,3,138,3,3,3,['k'],['d'],N,N,['d'],N,,,,,,,F,20,
9,4,139,13,13,3,['d'],['d'],Y,Y,None,N,,,,,,,F,20,
9,5,140,9,9,3,['d'],['k'],N,N,None,Y,,,,,,,F,20,
9,6,141,2,2,3,['d'],['d'],Y,Y,None,N,,,,,,,F,20,
9,7,142,4,4,3,['k'],['d'],N,N,['space'],N,,,,,,,F,20,
9,8,143,3,3,3,['d'],['k'],N,Y,None,N,,,,,,,F,20,
9,9,144,13,13,3,['k'],['d'],N,N,None,Y,,,,,,,F,20,
9,10,145,7,7,3,['d'],['d'],Y,N,None,Y,,,,,,,F,20,
9,11,146,1,1,3,['k'],['d'],N,N,None,Y,,,,,,,F,20,
9,12,147,1,1,3,['d'],['k'],N,N,None,Y,,,,,,,F,20,
9,13,148,10,10,3,['k'],['k'],Y,N,None,Y,,,,,,,F,20,
9,14,149,1,1,3,['d'],['k'],N,N,None,Y,24,29,25,,,,F,20,
10,0,150,10,10,4,['k'],['k'],Y,,,,,,,,,,F,20,
10,1,151,3,3,4,['d'],['d'],Y,,,,,,,,,,F,20,
10,2,152,6,6,4,['d'],['k'],N,N,None,Y,,,,,,,F,20,
10,3,153,12,12,4,['d'],['d'],Y,Y,None,N,,,,,,,F,20,
10,4,154,7,7,4,['k'],['k'],Y,Y,['space'],Y,,,,,,,F,20,
10,5,155,0,0,4,['d'],['d'],Y,N,None,Y,,,,,,,F,20,
10,6,156,11,11,4,['k'],['d'],N,N,None,Y,,,,,,,F,20,
10,7,157,12,12,4,['d'],['k'],N,N,None,Y,,,,,,,F,20,
10,8,158,2,2,4,['k'],['d'],N,N,None,Y,,,,,,,F,20,
10,9,159,14,14,4,['d'],['d'],Y,Y,None,N,,,,,,,F,20,
10,10,160,10,10,4,['k'],['d'],N,N,None,Y,,,,,,,F,20,
10,11,161,0,0,4,['d'],['d'],Y,N,None,Y,,,,,,,F,20,
10,12,162,13,13,4,['d'],['k'],N,N,None,Y,,,,,,,F,20,
10,13,163,3,3,4,['k'],['d'],N,Y,['space'],Y,,,,,,,F,20,
10,14,164,4,4,4,['d'],['k'],N,N,None,Y,,,,,,,F,20,
11,0,165,6,6,4,['k'],['k'],Y,N,None,Y,,,,,,,F,20,
11,1,166,8,8,4,['d'],['d'],Y,Y,None,N,,,,,,,F,20,
11,2,167,12,12,4,['d'],['d'],Y,N,None,Y,,,,,,,F,20,
11,3,168,0,0,4,['d'],['d'],Y,Y,['space'],Y,,,,,,,F,20,
11,4,169,4,4,4,['k'],['k'],Y,Y,['space'],Y,,,,,,,F,20,
11,5,170,4,4,4,['d'],['d'],Y,Y,None,N,,,,,,,F,20,
11,6,171,10,10,4,['d'],['d'],Y,N,['space'],N,,,,,,,F,20,
11,7,172,12,12,4,['k'],['k'],Y,N,['space'],N,,,,,,,F,20,
11,8,173,10,10,4,['d'],['d'],Y,Y,['space'],Y,,,,,,,F,20,
11,9,174,9,9,4,['d'],['d'],Y,N,None,Y,,,,,,,F,20,
11,10,175,13,13,4,['k'],['k'],Y,Y,['space'],Y,,,,,,,F,20,
11,11,176,10,10,4,['k'],['k'],Y,Y,None,N,,,,,,,F,20,
11,12,177,0,0,4,['d'],['d'],Y,Y,['space'],Y,,,,,,,F,20,
11,13,178,2,2,4,['k'],['d'],N,Y,None,N,,,,,,,F,20,
11,14,179,13,13,4,['d'],['d'],Y,N,None,Y,,,,,,,F,20,
12,0,180,6,6,4,['d'],['d'],Y,N,None,Y,,,,,,,F,20,
12,1,181,0,0,4,['k'],['k'],Y,N,None,Y,,,,,,,F,20,
12,2,182,2,2,4,['k'],['k'],Y,Y,['space'],Y,,,,,,,F,20,
12,3,183,11,11,4,['d'],['d'],Y,N,None,Y,,,,,,,F,20,
12,4,184,4,4,4,['k'],['k'],Y,N,None,Y,,,,,,,F,20,
12,5,185,12,12,4,['k'],['k'],Y,Y,['space'],Y,,,,,,,F,20,
12,6,186,5,5,4,['k'],['k'],Y,Y,None,N,,,,,,,F,20,
12,7,187,11,11,4,['d'],['d'],Y,Y,['space'],Y,,,,,,,F,20,
12,8,188,1,1,4,['d'],['d'],Y,N,None,Y,,,,,,,F,20,
12,9,189,9,9,4,['k'],['k'],Y,N,None,Y,,,,,,,F,20,
12,10,190,3,3,4,['k'],['k'],Y,N,None,Y,,,,,,,F,20,
12,11,191,3,3,4,['k'],['k'],Y,Y,['space'],Y,,,,,,,F,20,
12,12,192,6,6,4,['k'],['k'],Y,N,['space'],N,,,,,,,F,20,
12,13,193,14,14,4,['d'],['d'],Y,N,None,Y,,,,,,,F,20,
12,14,194,2,2,4,['k'],['k'],Y,Y,['space'],Y,,,,,,,F,20,
13,0,195,8,8,4,['d'],['d'],Y,Y,None,N,,,,,,,F,20,
13,1,196,0,0,4,['d'],['d'],Y,Y,['space'],Y,,,,,,,F,20,
13,2,197,3,3,4,['d'],['d'],Y,N,None,Y,,,,,,,F,20,
13,3,198,1,1,4,['k'],['d'],N,N,None,Y,,,,,,,F,20,
13,4,199,9,9,4,['k'],['k'],Y,N,None,Y,40,37,21,,,,F,20,
13,5,200,13,13,5,['d'],['k'],N,,,,,,,,,,F,20,
13,6,201,2,2,5,['d'],['d'],Y,,,,,,,,,,F,20,
13,7,202,14,14,5,['k'],['d'],N,N,None,Y,,,,,,,F,20,
13,8,203,8,8,5,['k'],['k'],Y,Y,None,N,,,,,,,F,20,
13,9,204,5,5,5,['d'],['k'],N,Y,None,N,,,,,,,F,20,
13,10,205,5,5,5,['k'],['k'],Y,Y,None,N,,,,,,,F,20,
13,11,206,10,10,5,['d'],['d'],Y,N,None,Y,,,,,,,F,20,
13,12,207,2,2,5,['d'],['d'],Y,N,None,Y,,,,,,,F,20,
13,13,208,10,10,5,['d'],['d'],Y,N,None,Y,,,,,,,F,20,
13,14,209,11,11,5,['d'],['d'],Y,Y,['space'],Y,,,,,,,F,20,
14,0,210,2,2,5,['k'],['k'],Y,N,None,Y,,,,,,,F,20,
14,1,211,12,12,5,['d'],['d'],Y,Y,None,N,,,,,,,F,20,
14,2,212,2,2,5,['k'],['d'],N,N,None,Y,,,,,,,F,20,
14,3,213,14,14,5,['d'],['d'],Y,N,None,Y,,,,,,,F,20,
14,4,214,2,2,5,['d'],['d'],Y,Y,None,N,,,,,,,F,20,
14,5,215,5,5,5,['d'],['d'],Y,N,None,Y,,,,,,,F,20,
14,6,216,13,13,5,['d'],['d'],Y,N,['space'],N,,,,,,,F,20,
14,7,217,5,5,5,['k'],['k'],Y,Y,None,N,,,,,,,F,20,
14,8,218,3,3,5,['k'],['k'],Y,N,None,Y,,,,,,,F,20,
14,9,219,9,9,5,['d'],['d'],Y,Y,None,N,,,,,,,F,20,
14,10,220,0,0,5,['d'],['d'],Y,Y,['space'],Y,,,,,,,F,20,
14,11,221,2,2,5,['k'],['k'],Y,Y,None,N,,,,,,,F,20,
14,12,222,5,5,5,['k'],['k'],Y,Y,['space'],Y,,,,,,,F,20,
14,13,223,0,0,5,['k'],['k'],Y,N,['space'],N,,,,,,,F,20,
14,14,224,2,2,5,['k'],['k'],Y,N,['space'],N,,,,,,,F,20,
15,0,225,1,1,5,['d'],['d'],Y,Y,None,N,,,,,,,F,20,
15,1,226,8,8,5,['k'],['k'],Y,Y,['space'],Y,,,,,,,F,20,
15,2,227,2,2,5,['d'],['d'],Y,Y,None,N,,,,,,,F,20,
15,3,228,1,1,5,['k'],['k'],Y,N,None,Y,,,,,,,F,20,
15,4,229,14,14,5,['d'],['k'],N,Y,['space'],Y,,,,,,,F,20,
15,5,230,8,8,5,['k'],['k'],Y,Y,None,N,,,,,,,F,20,
15,6,231,4,4,5,['d'],['k'],N,N,None,Y,,,,,,,F,20,
15,7,232,14,14,5,['d'],['d'],Y,N,None,Y,,,,,,,F,20,
15,8,233,9,9,5,['k'],['k'],Y,Y,['space'],Y,,,,,,,F,20,
15,9,234,2,2,5,['k'],['k'],Y,Y,None,N,,,,,,,F,20,
15,10,235,14,14,5,['d'],['d'],Y,N,['space'],N,,,,,,,F,20,
15,11,236,13,13,5,['k'],['k'],Y,Y,None,N,,,,,,,F,20,
15,12,237,11,11,5,['d'],['d'],Y,Y,['space'],Y,,,,,,,F,20,
15,13,238,8,8,5,['k'],['k'],Y,Y,['space'],Y,,,,,,,F,20,
15,14,239,2,2,5,['k'],['k'],Y,Y,['space'],Y,,,,,,,F,20,
16,0,240,6,6,5,['k'],['k'],Y,Y,['space'],Y,,,,,,,F,20,
16,1,241,9,9,5,['d'],['d'],Y,N,None,Y,,,,,,,F,20,
16,2,242,1,1,5,['k'],['d'],N,Y,None,N,,,,,,,F,20,
16,3,243,1,1,5,['d'],['d'],Y,Y,None,N,,,,,,,F,20,
16,4,244,6,6,5,['d'],['d'],Y,N,None,Y,,,,,,,F,20,
16,5,245,4,4,5,['d'],['d'],Y,N,['space'],N,,,,,,,F,20,
16,6,246,6,6,5,['k'],['k'],Y,N,None,Y,,,,,,,F,20,
16,7,247,10,10,5,['k'],['k'],Y,N,['space'],N,,,,,,,F,20,
16,8,248,12,12,5,['d'],['d'],Y,N,None,Y,,,,,,,F,20,
16,9,249,14,14,5,['d'],['d'],Y,N,None,Y,43,27,25,,,,F,20,
16,10,250,5,5,6,['k'],['k'],Y,,,,,,,,,,F,20,
16,11,251,14,14,6,['d'],['k'],N,,,,,,,,,,F,20,
16,12,252,11,11,6,['d'],['d'],Y,Y,None,N,,,,,,,F,20,
16,13,253,4,4,6,['k'],['k'],Y,N,None,Y,,,,,,,F,20,
16,14,254,5,5,6,['k'],['k'],Y,N,['space'],N,,,,,,,F,20,
17,0,255,5,5,6,['d'],['d'],Y,N,None,Y,,,,,,,F,20,
17,1,256,13,13,6,['d'],['d'],Y,N,None,Y,,,,,,,F,20,
17,2,257,11,11,6,['k'],['k'],Y,N,None,Y,,,,,,,F,20,
17,3,258,4,4,6,['d'],['d'],Y,N,['space'],N,,,,,,,F,20,
17,4,259,0,0,6,['k'],['k'],Y,Y,['space'],Y,,,,,,,F,20,
17,5,260,5,5,6,['k'],['k'],Y,N,None,Y,,,,,,,F,20,
17,6,261,9,9,6,['d'],['k'],N,N,None,Y,,,,,,,F,20,
17,7,262,10,10,6,['k'],['k'],Y,N,None,Y,,,,,,,F,20,
17,8,263,9,9,6,['d'],['d'],Y,N,['space'],N,,,,,,,F,20,
17,9,264,3,3,6,['d'],['d'],Y,Y,None,N,,,,,,,F,20,
17,10,265,9,9,6,['k'],['k'],Y,Y,['space'],Y,,,,,,,F,20,
17,11,266,14,14,6,['d'],['k'],N,N,None,Y,,,,,,,F,20,
17,12,267,11,11,6,['d'],['d'],Y,Y,['space'],Y,,,,,,,F,20,
17,13,268,8,8,6,['k'],['k'],Y,Y,['space'],Y,,,,,,,F,20,
17,14,269,11,11,6,['d'],['d'],Y,N,None,Y,,,,,,,F,20,
18,0,270,2,2,6,['d'],['d'],Y,N,None,Y,,,,,,,F,20,
18,1,271,14,14,6,['d'],['d'],Y,N,['space'],N,,,,,,,F,20,
18,2,272,11,11,6,['k'],['k'],Y,Y,['space'],Y,,,,,,,F,20,
18,3,273,8,8,6,['d'],['d'],Y,Y,['space'],Y,,,,,,,F,20,
18,4,274,7,7,6,['d'],['d'],Y,Y,['space'],Y,,,,,,,F,20,
18,5,275,4,4,6,['k'],['k'],Y,Y,['space'],Y,,,,,,,F,20,
18,6,276,4,4,6,['k'],['k'],Y,N,None,Y,,,,,,,F,20,
18,7,277,1,1,6,['k'],['k'],Y,N,None,Y,,,,,,,F,20,
18,8,278,3,3,6,['d'],['d'],Y,Y,['space'],Y,,,,,,,F,20,
18,9,279,5,5,6,['k'],['k'],Y,N,None,Y,,,,,,,F,20,
18,10,280,4,4,6,['d'],['d'],Y,Y,['space'],Y,,,,,,,F,20,
18,11,281,0,0,6,['d'],['d'],Y,Y,['space'],Y,,,,,,,F,20,
18,12,282,12,12,6,['k'],['k'],Y,N,None,Y,,,,,,,F,20,
18,13,283,14,14,6,['k'],['k'],Y,Y,['space'],Y,,,,,,,F,20,
18,14,284,1,1,6,['d'],['k'],N,Y,['space'],Y,,,,,,,F,20,
19,0,285,5,5,6,['d'],['d'],Y,N,None,Y,,,,,,,F,20,
19,1,286,7,7,6,['k'],['k'],Y,N,None,Y,,,,,,,F,20,
19,2,287,9,9,6,['k'],['k'],Y,Y,['space'],Y,,,,,,,F,20,
19,3,288,10,10,6,['k'],['k'],Y,Y,['space'],Y,,,,,,,F,20,
19,4,289,2,2,6,['d'],['k'],N,Y,['space'],Y,,,,,,,F,20,
19,5,290,3,3,6,['k'],['k'],Y,N,None,Y,,,,,,,F,20,
19,6,291,10,10,6,['d'],['d'],Y,N,None,Y,,,,,,,F,20,
19,7,292,7,7,6,['k'],['d'],N,Y,['space'],Y,,,,,,,F,20,
19,8,293,12,12,6,['d'],['d'],Y,N,None,Y,,,,,,,F,20,
19,9,294,10,10,6,['d'],['d'],Y,N,['space'],N,,,,,,,F,20,
19,10,295,7,7,6,['k'],['d'],N,N,None,Y,,,,,,,F,20,
19,11,296,13,13,6,['d'],['d'],Y,N,None,Y,,,,,,,F,20,
19,12,297,1,1,6,['k'],['d'],N,N,None,Y,,,,,,,F,20,
19,13,298,8,8,6,['d'],['d'],Y,Y,None,N,,,,,,,F,20,
19,14,299,8,8,6,['k'],['d'],N,N,None,Y,41,40,20,,,,F,20,
20,0,300,3,3,7,['k'],['d'],N,,,,,,,,,,F,20,
20,1,301,0,0,7,['k'],['k'],Y,,,,,,,,,,F,20,
20,2,302,2,2,7,['d'],['d'],Y,Y,['space'],Y,,,,,,,F,20,
20,3,303,1,1,7,['k'],['d'],N,N,None,Y,,,,,,,F,20,
20,4,304,11,11,7,['k'],['k'],Y,N,None,Y,,,,,,,F,20,
20,5,305,5,5,7,['d'],['d'],Y,Y,None,N,,,,,,,F,20,
20,6,306,6,6,7,['k'],['k'],Y,Y,['space'],Y,,,,,,,F,20,
20,7,307,2,2,7,['k'],['k'],Y,N,None,Y,,,,,,,F,20,
20,8,308,12,12,7,['d'],['d'],Y,N,None,Y,,,,,,,F,20,
20,9,309,5,5,7,['k'],['d'],N,Y,['space'],Y,,,,,,,F,20,
20,10,310,3,3,7,['d'],['k'],N,Y,['space'],Y,,,,,,,F,20,
20,11,311,8,8,7,['d'],['d'],Y,N,None,Y,,,,,,,F,20,
20,12,312,5,5,7,None,,Timed out,N,None,Y,,,,,,,F,20,
20,13,313,10,10,7,['d'],['d'],Y,N,None,Y,,,,,,,F,20,
20,14,314,9,9,7,['k'],['d'],N,N,None,Y,,,,,,,F,20,
21,0,315,11,11,7,['d'],['d'],Y,N,None,Y,,,,,,,F,20,
21,1,316,14,14,7,['k'],['k'],Y,Y,['space'],Y,,,,,,,F,20,
21,2,317,6,6,7,['d'],['d'],Y,N,None,Y,,,,,,,F,20,
21,3,318,13,13,7,['k'],['k'],Y,N,None,Y,,,,,,,F,20,
21,4,319,9,9,7,['d'],['k'],N,Y,['space'],Y,,,,,,,F,20,
21,5,320,7,7,7,['k'],['d'],N,Y,['space'],Y,,,,,,,F,20,
21,6,321,7,7,7,['d'],['d'],Y,Y,['space'],Y,,,,,,,F,20,
21,7,322,8,8,7,['k'],['k'],Y,N,['space'],N,,,,,,,F,20,
21,8,323,0,0,7,['d'],['d'],Y,Y,['space'],Y,,,,,,,F,20,
21,9,324,5,5,7,['k'],['d'],N,N,None,Y,,,,,,,F,20,
21,10,325,1,1,7,['k'],['k'],Y,Y,['space'],Y,,,,,,,F,20,
21,11,326,0,0,7,['k'],['k'],Y,N,None,Y,,,,,,,F,20,
21,12,327,7,7,7,['k'],['k'],Y,N,None,Y,,,,,,,F,20,
21,13,328,7,7,7,['d'],['d'],Y,N,['space'],N,,,,,,,F,20,
21,14,329,11,11,7,['d'],['d'],Y,N,None,Y,,,,,,,F,20,
22,0,330,13,13,7,['d'],['k'],N,Y,['space'],Y,,,,,,,F,20,
22,1,331,5,5,7,['d'],['d'],Y,Y,None,N,,,,,,,F,20,
22,2,332,7,7,7,['k'],['k'],Y,N,['space'],N,,,,,,,F,20,
22,3,333,3,3,7,['d'],['d'],Y,Y,None,N,,,,,,,F,20,
22,4,334,0,0,7,['d'],['k'],N,Y,['space'],Y,,,,,,,F,20,
22,5,335,12,12,7,['d'],['d'],Y,N,None,Y,,,,,,,F,20,
22,6,336,0,0,7,['k'],['k'],Y,N,None,Y,,,,,,,F,20,
22,7,337,14,14,7,['d'],['d'],Y,Y,['space'],Y,,,,,,,F,20,
22,8,338,13,13,7,['d'],['k'],N,Y,None,N,,,,,,,F,20,
22,9,339,1,1,7,['d'],['k'],N,N,None,Y,,,,,,,F,20,
22,10,340,10,10,7,['d'],['d'],Y,N,None,Y,,,,,,,F,20,
22,11,341,6,6,7,['d'],['d'],Y,N,None,Y,,,,,,,F,20,
22,12,342,7,7,7,['k'],['k'],Y,N,None,Y,,,,,,,F,20,
22,13,343,0,0,7,['d'],['d'],Y,N,None,Y,,,,,,,F,20,
22,14,344,1,1,7,['k'],['k'],Y,N,['space'],N,,,,,,,F,20,
23,0,345,6,6,7,['d'],['k'],N,Y,['space'],Y,,,,,,,F,20,
23,1,346,4,4,7,['k'],['k'],Y,N,None,Y,,,,,,,F,20,
23,2,347,1,1,7,['d'],['d'],Y,N,['space'],N,,,,,,,F,20,
23,3,348,8,8,7,['d'],['d'],Y,Y,['space'],Y,,,,,,,F,20,
23,4,349,3,3,7,['k'],['k'],Y,N,None,Y,36,39,19,,,,F,20,
23,5,350,0,0,8,['d'],['d'],Y,,,,,,,,,,F,20,
23,6,351,0,0,8,['k'],['k'],Y,,,,,,,,,,F,20,
23,7,352,7,7,8,['k'],['k'],Y,N,None,Y,,,,,,,F,20,
23,8,353,5,5,8,['d'],['d'],Y,N,None,Y,,,,,,,F,20,
23,9,354,10,10,8,['k'],['k'],Y,N,None,Y,,,,,,,F,20,
23,10,355,11,11,8,['d'],['d'],Y,Y,None,N,,,,,,,F,20,
23,11,356,8,8,8,['d'],['d'],Y,N,None,Y,,,,,,,F,20,
23,12,357,7,7,8,['d'],['d'],Y,Y,['space'],Y,,,,,,,F,20,
23,13,358,0,0,8,['k'],['k'],Y,N,None,Y,,,,,,,F,20,
23,14,359,13,13,8,['d'],['d'],Y,N,None,Y,,,,,,,F,20,
24,0,360,2,2,8,['d'],['k'],N,Y,['space'],Y,,,,,,,F,20,
24,1,361,10,10,8,['k'],['k'],Y,Y,['space'],Y,,,,,,,F,20,
24,2,362,0,0,8,['k'],['k'],Y,Y,['space'],Y,,,,,,,F,20,
24,3,363,0,0,8,['d'],['d'],Y,Y,['space'],Y,,,,,,,F,20,
24,4,364,2,2,8,['k'],['k'],Y,N,None,Y,,,,,,,F,20,
24,5,365,5,5,8,['d'],['d'],Y,N,['space'],N,,,,,,,F,20,
24,6,366,0,0,8,['d'],['d'],Y,Y,None,N,,,,,,,F,20,
24,7,367,8,8,8,['d'],['d'],Y,N,None,Y,,,,,,,F,20,
24,8,368,7,7,8,['k'],['k'],Y,N,['space'],N,,,,,,,F,20,
24,9,369,10,10,8,['d'],['k'],N,Y,['space'],Y,,,,,,,F,20,
24,10,370,7,7,8,['d'],['d'],Y,Y,['space'],Y,,,,,,,F,20,
24,11,371,11,11,8,['k'],['k'],Y,N,None,Y,,,,,,,F,20,
24,12,372,0,0,8,['d'],['k'],N,N,None,Y,,,,,,,F,20,
24,13,373,9,9,8,['k'],['k'],Y,Y,None,N,,,,,,,F,20,
24,14,374,10,10,8,['d'],['d'],Y,Y,['space'],Y,,,,,,,F,20,
25,0,375,10,10,8,['k'],['k'],Y,N,None,Y,,,,,,,F,20,
25,1,376,7,7,8,['k'],['k'],Y,Y,['space'],Y,,,,,,,F,20,
25,2,377,14,14,8,['d'],['k'],N,Y,['space'],Y,,,,,,,F,20,
25,3,378,0,0,8,['k'],['k'],Y,N,None,Y,,,,,,,F,20,
25,4,379,11,11,8,['d'],['d'],Y,N,None,Y,,,,,,,F,20,
25,5,380,10,10,8,['d'],['d'],Y,Y,None,N,,,,,,,F,20,
25,6,381,12,12,8,['d'],['k'],N,N,None,Y,,,,,,,F,20,
25,7,382,1,1,8,['k'],['k'],Y,Y,None,N,,,,,,,F,20,
25,8,383,13,13,8,['d'],['d'],Y,Y,['space'],Y,,,,,,,F,20,
25,9,384,2,2,8,['k'],['k'],Y,Y,['space'],Y,,,,,,,F,20,
25,10,385,2,2,8,['d'],['d'],Y,Y,['space'],Y,,,,,,,F,20,
25,11,386,3,3,8,['k'],['k'],Y,Y,['space'],Y,,,,,,,F,20,
25,12,387,7,7,8,['d'],['k'],N,N,None,Y,,,,,,,F,20,
25,13,388,10,10,8,['d'],['d'],Y,N,None,Y,,,,,,,F,20,
25,14,389,8,8,8,['d'],['d'],Y,Y,None,N,,,,,,,F,20,
26,0,390,9,9,8,['k'],['k'],Y,Y,['space'],Y,,,,,,,F,20,
26,1,391,12,12,8,['d'],['d'],Y,N,None,Y,,,,,,,F,20,
26,2,392,11,11,8,['d'],['d'],Y,N,None,Y,,,,,,,F,20,
26,3,393,14,14,8,['k'],['k'],Y,Y,['space'],Y,,,,,,,F,20,
26,4,394,14,14,8,['d'],['d'],Y,Y,['space'],Y,,,,,,,F,20,
26,5,395,4,4,8,['k'],['d'],N,N,None,Y,,,,,,,F,20,
26,6,396,13,13,8,['d'],['k'],N,Y,None,N,,,,,,,F,20,
26,7,397,14,14,8,['d'],['d'],Y,N,None,Y,,,,,,,F,20,
26,8,398,0,0,8,['k'],['k'],Y,Y,['space'],Y,,,,,,,F,20,
26,9,399,6,6,8,['k'],['k'],Y,N,None,Y,42,39,25,,,,F,20,
26,10,400,3,3,9,['d'],['d'],Y,,,,,,,,,,F,20,
26,11,401,9,9,9,['k'],['k'],Y,,,,,,,,,,F,20,
26,12,402,5,5,9,['d'],['d'],Y,Y,['space'],Y,,,,,,,F,20,
26,13,403,6,6,9,['d'],['d'],Y,Y,['space'],Y,,,,,,,F,20,
26,14,404,5,5,9,['d'],['d'],Y,N,None,Y,,,,,,,F,20,
27,0,405,2,2,9,['d'],['d'],Y,N,None,Y,,,,,,,F,20,
27,1,406,3,3,9,['k'],['k'],Y,N,None,Y,,,,,,,F,20,
27,2,407,7,7,9,['d'],['d'],Y,Y,['space'],Y,,,,,,,F,20,
27,3,408,2,2,9,['k'],['k'],Y,Y,['space'],Y,,,,,,,F,20,
27,4,409,12,12,9,['k'],['k'],Y,N,None,Y,,,,,,,F,20,
27,5,410,8,8,9,['k'],['k'],Y,Y,['space'],Y,,,,,,,F,20,
27,6,411,12,12,9,['d'],['k'],N,N,None,Y,,,,,,,F,20,
27,7,412,5,5,9,['d'],['d'],Y,Y,None,N,,,,,,,F,20,
27,8,413,12,12,9,['d'],['d'],Y,N,['space'],N,,,,,,,F,20,
27,9,414,8,8,9,['k'],['k'],Y,N,None,Y,,,,,,,F,20,
27,10,415,3,3,9,['d'],['d'],Y,N,None,Y,,,,,,,F,20,
27,11,416,14,14,9,['d'],['d'],Y,N,None,Y,,,,,,,F,20,
27,12,417,13,13,9,['d'],['k'],N,N,None,Y,,,,,,,F,20,
27,13,418,9,9,9,['d'],['d'],Y,N,None,Y,,,,,,,F,20,
27,14,419,9,9,9,['k'],['k'],Y,N,None,Y,,,,,,,F,20,
28,0,420,9,9,9,['k'],['k'],Y,N,None,Y,,,,,,,F,20,
28,1,421,11,11,9,['d'],['d'],Y,N,None,Y,,,,,,,F,20,
28,2,422,6,6,9,['d'],['d'],Y,N,None,Y,,,,,,,F,20,
28,3,423,12,12,9,['d'],['d'],Y,Y,['space'],Y,,,,,,,F,20,
28,4,424,7,7,9,['k'],['k'],Y,N,None,Y,,,,,,,F,20,
28,5,425,6,6,9,['k'],['k'],Y,Y,['space'],Y,,,,,,,F,20,
28,6,426,11,11,9,None,,Timed out,N,None,Y,,,,,,,F,20,
28,7,427,1,1,9,['k'],['d'],N,Y,None,N,,,,,,,F,20,
28,8,428,4,4,9,['d'],['d'],Y,Y,None,N,,,,,,,F,20,
28,9,429,0,0,9,['k'],['k'],Y,N,None,Y,,,,,,,F,20,
28,10,430,10,10,9,['d'],['k'],N,Y,['space'],Y,,,,,,,F,20,
28,11,431,7,7,9,['k'],['d'],N,N,None,Y,,,,,,,F,20,
28,12,432,11,11,9,['k'],['k'],Y,Y,['space'],Y,,,,,,,F,20,
28,13,433,3,3,9,['d'],['d'],Y,Y,None,N,,,,,,,F,20,
28,14,434,9,9,9,['d'],['d'],Y,N,None,Y,,,,,,,F,20,
29,0,435,13,13,9,['k'],['k'],Y,N,None,Y,,,,,,,F,20,
29,1,436,11,11,9,['d'],['k'],N,Y,['space'],Y,,,,,,,F,20,
29,2,437,14,14,9,['k'],['k'],Y,Y,['space'],Y,,,,,,,F,20,
29,3,438,5,5,9,['d'],['d'],Y,Y,['space'],Y,,,,,,,F,20,
29,4,439,12,12,9,['d'],['d'],Y,N,None,Y,,,,,,,F,20,
29,5,440,7,7,9,['d'],['d'],Y,Y,['space'],Y,,,,,,,F,20,
29,6,441,6,6,9,['d'],['d'],Y,Y,['space'],Y,,,,,,,F,20,
29,7,442,7,7,9,['d'],['d'],Y,Y,['space'],Y,,,,,,,F,20,
29,8,443,3,3,9,['d'],['d'],Y,N,None,Y,,,,,,,F,20,
29,9,444,10,10,9,['d'],['d'],Y,N,None,Y,,,,,,,F,20,
29,10,445,5,5,9,['d'],['d'],Y,Y,None,N,,,,,,,F,20,
29,11,446,1,1,9,['k'],['k'],Y,N,None,Y,,,,,,,F,20,
29,12,447,11,11,9,['d'],['d'],Y,N,None,Y,,,,,,,F,20,
29,13,448,1,1,9,['d'],['d'],Y,N,None,Y,,,,,,,F,20,
29,14,449,11,11,9,['d'],['d'],Y,N,None,Y,43,42,20,,,,F,20,
30,0,450,14,14,10,['k'],['k'],Y,,,,,,,,,,F,20,
30,1,451,1,1,10,['k'],['k'],Y,,,,,,,,,,F,20,
30,2,452,5,5,10,['k'],['k'],Y,Y,['space'],Y,,,,,,,F,20,
30,3,453,4,4,10,['k'],['k'],Y,Y,['space'],Y,,,,,,,F,20,
30,4,454,1,1,10,['k'],['k'],Y,N,None,Y,,,,,,,F,20,
30,5,455,11,11,10,['k'],['k'],Y,N,None,Y,,,,,,,F,20,
30,6,456,9,9,10,['d'],['d'],Y,Y,None,N,,,,,,,F,20,
30,7,457,12,12,10,['k'],['k'],Y,Y,None,N,,,,,,,F,20,
30,8,458,14,14,10,['d'],['d'],Y,N,['space'],N,,,,,,,F,20,
30,9,459,11,11,10,['d'],['d'],Y,Y,['space'],Y,,,,,,,F,20,
30,10,460,4,4,10,['k'],['k'],Y,N,None,Y,,,,,,,F,20,
30,11,461,7,7,10,['d'],['d'],Y,N,None,Y,,,,,,,F,20,
30,12,462,4,4,10,['d'],['d'],Y,Y,['space'],Y,,,,,,,F,20,
30,13,463,14,14,10,['k'],['k'],Y,N,['space'],N,,,,,,,F,20,
30,14,464,5,5,10,['d'],['d'],Y,Y,['space'],Y,,,,,,,F,20,
31,0,465,4,4,10,['d'],['d'],Y,N,None,Y,,,,,,,F,20,
31,1,466,6,6,10,['k'],['k'],Y,Y,['space'],Y,,,,,,,F,20,
31,2,467,4,4,10,['k'],['k'],Y,N,None,Y,,,,,,,F,20,
31,3,468,9,9,10,['k'],['k'],Y,N,None,Y,,,,,,,F,20,
31,4,469,12,12,10,['k'],['k'],Y,N,None,Y,,,,,,,F,20,
31,5,470,6,6,10,['d'],['d'],Y,Y,['space'],Y,,,,,,,F,20,
31,6,471,11,11,10,['k'],['k'],Y,N,['space'],N,,,,,,,F,20,
31,7,472,2,2,10,['d'],['d'],Y,N,None,Y,,,,,,,F,20,
31,8,473,13,13,10,['k'],['k'],Y,Y,None,N,,,,,,,F,20,
31,9,474,11,11,10,['k'],['k'],Y,N,None,Y,,,,,,,F,20,
31,10,475,12,12,10,['k'],['k'],Y,Y,['space'],Y,,,,,,,F,20,
31,11,476,8,8,10,['d'],['d'],Y,N,None,Y,,,,,,,F,20,
31,12,477,14,14,10,['d'],['d'],Y,N,None,Y,,,,,,,F,20,
31,13,478,10,10,10,['d'],['d'],Y,Y,['space'],Y,,,,,,,F,20,
31,14,479,8,8,10,['d'],['d'],Y,Y,['space'],Y,,,,,,,F,20,
32,0,480,5,5,10,['k'],['d'],N,N,None,Y,,,,,,,F,20,
32,1,481,2,2,10,['k'],['k'],Y,N,None,Y,,,,,,,F,20,
32,2,482,14,14,10,['k'],['k'],Y,Y,None,N,,,,,,,F,20,
32,3,483,5,5,10,['k'],['k'],Y,N,['space'],N,,,,,,,F,20,
32,4,484,13,13,10,['k'],['k'],Y,Y,None,N,,,,,,,F,20,
32,5,485,11,11,10,['k'],['k'],Y,N,None,Y,,,,,,,F,20,
32,6,486,7,7,10,['d'],['d'],Y,Y,None,N,,,,,,,F,20,
32,7,487,9,9,10,['d'],['d'],Y,Y,['space'],Y,,,,,,,F,20,
32,8,488,8,8,10,['k'],['k'],Y,Y,None,N,,,,,,,F,20,
32,9,489,14,14,10,['k'],['k'],Y,Y,None,N,,,,,,,F,20,
32,10,490,9,9,10,['k'],['k'],Y,Y,['k'],N,,,,,,,F,20,
32,11,491,9,9,10,['k'],['k'],Y,Y,['space'],Y,,,,,,,F,20,
32,12,492,6,6,10,['d'],['d'],Y,N,None,Y,,,,,,,F,20,
32,13,493,0,0,10,['d'],['d'],Y,N,None,Y,,,,,,,F,20,
32,14,494,8,8,10,['d'],['d'],Y,Y,['space'],Y,,,,,,,F,20,
33,0,495,5,5,10,['d'],['d'],Y,N,None,Y,,,,,,,F,20,
33,1,496,14,14,10,['k'],['k'],Y,Y,['space'],Y,,,,,,,F,20,
33,2,497,8,8,10,['k'],['k'],Y,Y,None,N,,,,,,,F,20,
33,3,498,4,4,10,['d'],['k'],N,Y,['space'],Y,,,,,,,F,20,
33,4,499,0,0,10,['d'],['d'],Y,N,None,Y,48,34,25,,,,F,20,
33,5,500,14,14,11,['d'],['d'],N,,,,,,,Y,Y,Y,F,20,
33,6,501,6,6,11,['k'],['d'],Y,,,,,,,,Y,Y,F,20,
33,7,502,1,1,11,None,,Timed out,N,None,Y,,,,,Y,Y,F,20,
33,8,503,6,6,11,['k'],['d'],Y,Y,['space'],Y,,,,,Y,Y,F,20,
33,9,504,2,2,11,['d'],['k'],Y,Y,None,N,,,,,Y,Y,F,20,
33,10,505,14,14,11,['k'],['d'],Y,N,['space'],N,,,,,Y,Y,F,20,
33,11,506,12,12,11,['k'],['d'],Y,Y,None,N,,,,,Y,Y,F,20,
33,12,507,10,10,11,['d'],['d'],N,N,['space'],N,,,,,Y,Y,F,20,
33,13,508,9,9,11,None,,Timed out,N,None,Y,,,,,Y,Y,F,20,
33,14,509,7,7,11,['k'],['d'],Y,N,None,Y,,,,,Y,Y,F,20,
34,0,510,12,12,11,['d'],['k'],Y,Y,['space'],Y,,,,,Y,Y,F,20,
34,1,511,11,11,11,['d'],['d'],N,Y,['space'],Y,,,,,Y,Y,F,20,
34,2,512,11,11,11,['d'],['k'],Y,Y,['space'],Y,,,,,Y,Y,F,20,
34,3,513,1,1,11,['d'],['k'],Y,N,None,Y,,,,,Y,Y,F,20,
34,4,514,10,10,11,None,,Timed out,Y,['space'],Y,,,,,Y,Y,F,20,
34,5,515,10,10,11,['k'],['d'],Y,Y,['space'],Y,,,,,Y,Y,F,20,
34,6,516,13,13,11,['k'],['d'],Y,Y,['space'],Y,,,,,Y,Y,F,20,
34,7,517,7,7,11,['d'],['k'],Y,N,None,Y,,,,,Y,Y,F,20,
34,8,518,10,10,11,['d'],['k'],Y,Y,['space'],Y,,,,,Y,Y,F,20,
34,9,519,0,0,11,None,,Timed out,N,None,Y,,,,,Y,Y,F,20,
34,10,520,8,8,11,['d'],['k'],Y,N,['space'],N,,,,,Y,Y,F,20,
34,11,521,8,8,11,['d'],['k'],Y,Y,['space'],Y,,,,,Y,Y,F,20,
34,12,522,8,8,11,['k'],['d'],Y,N,None,Y,,,,,Y,Y,F,20,
34,13,523,14,14,11,['d'],['k'],Y,N,None,Y,,,,,Y,Y,F,20,
34,14,524,2,2,11,['k'],['d'],Y,N,None,Y,,,,,Y,Y,F,20,
35,0,525,3,3,11,['k'],['d'],Y,N,None,Y,,,,,Y,Y,F,20,
35,1,526,12,12,11,['k'],['d'],Y,Y,['space'],Y,,,,,Y,Y,F,20,
35,2,527,1,1,11,['d'],['d'],N,Y,['space'],Y,,,,,Y,Y,F,20,
35,3,528,5,5,11,['k'],['k'],N,Y,['space'],Y,,,,,Y,Y,F,20,
35,4,529,12,12,11,['d'],['d'],N,N,None,Y,,,,,Y,Y,F,20,
35,5,530,14,14,11,['d'],['k'],Y,Y,['space'],Y,,,,,Y,Y,F,20,
35,6,531,0,0,11,['d'],['k'],Y,N,None,Y,,,,,Y,Y,F,20,
35,7,532,13,13,11,['k'],['k'],N,Y,['space'],Y,,,,,Y,Y,F,20,
35,8,533,13,13,11,['d'],['k'],Y,N,None,Y,,,,,Y,Y,F,20,
35,9,534,0,0,11,['k'],['d'],Y,Y,['space'],Y,,,,,Y,Y,F,20,
35,10,535,6,6,11,['d'],['k'],Y,Y,None,N,,,,,Y,Y,F,20,
35,11,536,12,12,11,['k'],['k'],N,N,['space'],N,,,,,Y,Y,F,20,
35,12,537,9,9,11,['d'],['k'],Y,Y,None,N,,,,,Y,Y,F,20,
35,13,538,4,4,11,['d'],['k'],Y,Y,['space'],Y,,,,,Y,Y,F,20,
35,14,539,8,8,11,['d'],['k'],Y,N,['space'],N,,,,,Y,Y,F,20,
36,0,540,7,7,11,['k'],['d'],Y,N,None,Y,,,,,Y,Y,F,20,
36,1,541,12,12,11,['k'],['d'],Y,Y,['space'],Y,,,,,Y,Y,F,20,
36,2,542,1,1,11,None,,Timed out,N,None,Y,,,,,Y,Y,F,20,
36,3,543,11,11,11,['d'],['k'],Y,Y,['space'],Y,,,,,Y,Y,F,20,
36,4,544,4,4,11,['k'],['d'],Y,Y,['space'],Y,,,,,Y,Y,F,20,
36,5,545,9,9,11,['d'],['k'],Y,N,None,Y,,,,,Y,Y,F,20,
36,6,546,6,6,11,['k'],['d'],Y,Y,['space'],Y,,,,,Y,Y,F,20,
36,7,547,2,2,11,['d'],['k'],Y,Y,['space'],Y,,,,,Y,Y,F,20,
36,8,548,3,3,11,None,,Timed out,N,None,Y,,,,,Y,Y,F,20,
36,9,549,14,14,11,['d'],['k'],Y,N,None,Y,36,39,25,,Y,Y,F,20,
36,10,550,3,3,12,['k'],['d'],Y,,,,,,,,Y,Y,F,20,
36,11,551,13,13,12,['d'],['k'],Y,,,,,,,,Y,Y,F,20,
36,12,552,6,6,12,None,,Timed out,N,None,Y,,,,,Y,Y,F,20,
36,13,553,7,7,12,['d'],['k'],Y,N,None,Y,,,,,Y,Y,F,20,
36,14,554,3,3,12,['k'],['d'],Y,N,['space'],N,,,,,Y,Y,F,20,
37,0,555,5,5,12,['d'],['d'],N,Y,['space'],Y,,,,,Y,Y,F,20,
37,1,556,4,4,12,['d'],['k'],Y,Y,['space'],Y,,,,,Y,Y,F,20,
37,2,557,7,7,12,['k'],['k'],N,Y,['space'],Y,,,,,Y,Y,F,20,
37,3,558,6,6,12,['k'],['d'],Y,N,None,Y,,,,,Y,Y,F,20,
37,4,559,9,9,12,['d'],['d'],N,N,None,Y,,,,,Y,Y,F,20,
37,5,560,10,10,12,['d'],['d'],N,Y,['space'],Y,,,,,Y,Y,F,20,
37,6,561,0,0,12,['d'],['d'],N,N,None,Y,,,,,Y,Y,F,20,
37,7,562,1,1,12,['k'],['d'],Y,Y,None,N,,,,,Y,Y,F,20,
37,8,563,5,5,12,['k'],['d'],Y,N,None,Y,,,,,Y,Y,F,20,
37,9,564,10,10,12,['d'],['k'],Y,N,None,Y,,,,,Y,Y,F,20,
37,10,565,8,8,12,['k'],['d'],Y,N,None,Y,,,,,Y,Y,F,20,
37,11,566,10,10,12,['d'],['k'],Y,Y,['space'],Y,,,,,Y,Y,F,20,
37,12,567,14,14,12,['d'],['d'],N,Y,['space'],Y,,,,,Y,Y,F,20,
37,13,568,0,0,12,['d'],['k'],Y,Y,['space'],Y,,,,,Y,Y,F,20,
37,14,569,13,13,12,['k'],['d'],Y,Y,None,N,,,,,Y,Y,F,20,
38,0,570,9,9,12,['k'],['d'],Y,Y,['space'],Y,,,,,Y,Y,F,20,
38,1,571,13,13,12,['d'],['k'],Y,N,None,Y,,,,,Y,Y,F,20,
38,2,572,3,3,12,['k'],['d'],Y,Y,['space'],Y,,,,,Y,Y,F,20,
38,3,573,10,10,12,['d'],['k'],Y,N,None,Y,,,,,Y,Y,F,20,
38,4,574,6,6,12,['d'],['k'],Y,Y,['space'],Y,,,,,Y,Y,F,20,
38,5,575,6,6,12,['k'],['d'],Y,Y,['space'],Y,,,,,Y,Y,F,20,
38,6,576,10,10,12,['d'],['k'],Y,N,None,Y,,,,,Y,Y,F,20,
38,7,577,13,13,12,['d'],['k'],Y,N,None,Y,,,,,Y,Y,F,20,
38,8,578,12,12,12,['d'],['k'],Y,N,None,Y,,,,,Y,Y,F,20,
38,9,579,1,1,12,['k'],['d'],Y,Y,['space'],Y,,,,,Y,Y,F,20,
38,10,580,7,7,12,['d'],['k'],Y,N,None,Y,,,,,Y,Y,F,20,
38,11,581,4,4,12,['d'],['d'],N,Y,['space'],Y,,,,,Y,Y,F,20,
38,12,582,13,13,12,['d'],['k'],Y,Y,['space'],Y,,,,,Y,Y,F,20,
38,13,583,12,12,12,['k'],['d'],Y,Y,['space'],Y,,,,,Y,Y,F,20,
38,14,584,1,1,12,['d'],['k'],Y,N,None,Y,,,,,Y,Y,F,20,
39,0,585,12,12,12,['d'],['k'],Y,Y,['space'],Y,,,,,Y,Y,F,20,
39,1,586,9,9,12,['k'],['k'],N,Y,['space'],Y,,,,,Y,Y,F,20,
39,2,587,3,3,12,['d'],['k'],Y,N,None,Y,,,,,Y,Y,F,20,
39,3,588,11,11,12,['k'],['d'],Y,Y,['space'],Y,,,,,Y,Y,F,20,
39,4,589,3,3,12,['d'],['k'],Y,N,None,Y,,,,,Y,Y,F,20,
39,5,590,2,2,12,['k'],['k'],N,Y,['space'],Y,,,,,Y,Y,F,20,
39,6,591,14,14,12,['d'],['k'],Y,N,None,Y,,,,,Y,Y,F,20,
39,7,592,8,8,12,['k'],['d'],Y,N,['space'],N,,,,,Y,Y,F,20,
39,8,593,14,14,12,['k'],['d'],Y,Y,['space'],Y,,,,,Y,Y,F,20,
39,9,594,3,3,12,['d'],['k'],Y,Y,['space'],Y,,,,,Y,Y,F,20,
39,10,595,11,11,12,['k'],['k'],N,N,None,Y,,,,,Y,Y,F,20,
39,11,596,1,1,12,['d'],['k'],Y,N,None,Y,,,,,Y,Y,F,20,
39,12,597,3,3,12,['k'],['d'],Y,Y,None,N,,,,,Y,Y,F,20,
39,13,598,13,13,12,None,,Timed out,N,None,Y,,,,,Y,Y,F,20,
39,14,599,4,4,12,['d'],['k'],Y,N,None,Y,38,43,24,,Y,Y,F,20,
