.thisRepN,.thisTrialN,.thisN,.thisIndex,.thisTrial,Block Number,Key pressed,Correct?,Int Match?,Int Response,Int Correct?,Category,Line Accuracy,Interference Accuracy,Matching Interferences,New instruction shown?,Buttons switched?,Fast?,gender,age,
0,0,0,8,8,1,None,Timed out,,,,,,,,,,,Female,20,
0,1,1,2,2,1,None,Timed out,,,,,,,,,,,Female,20,
0,2,2,8,8,1,None,Timed out,Y,None,N,,,,,,,,Female,20,
0,3,3,13,13,1,None,Timed out,N,None,Y,,,,,,,,Female,20,
0,4,4,9,9,1,['d'],Y,Y,['d'],N,['d'],,,,,,,Female,20,
0,5,5,9,9,1,['k'],Y,Y,None,N,['k'],,,,,,,Female,20,
0,6,6,0,0,1,['d'],Y,N,None,Y,['d'],,,,,,,Female,20,
0,7,7,6,6,1,['k'],N,N,None,Y,['d'],,,,,,,Female,20,
0,8,8,1,1,1,['d'],N,N,None,Y,['k'],,,,,,,Female,20,
0,9,9,14,14,1,['d'],Y,N,None,Y,['d'],,,,,,,Female,20,
0,10,10,12,12,1,['k'],N,N,None,Y,['d'],,,,,,,Female,20,
0,11,11,7,7,1,['d'],N,N,None,Y,['k'],,,,,,,Female,20,
0,12,12,10,10,1,['k'],Y,N,None,Y,['k'],,,,,,,Female,20,
0,13,13,6,6,1,['d'],Y,Y,['space'],Y,['d'],,,,,,,Female,20,
0,14,14,6,6,1,['k'],N,N,None,Y,['d'],,,,,,,Female,20,
1,0,15,9,9,1,['d'],Y,N,None,Y,['d'],,,,,,,Female,20,
1,1,16,4,4,1,['k'],Y,N,None,Y,['k'],,,,,,,Female,20,
1,2,17,2,2,1,['d'],Y,Y,['d'],N,['d'],,,,,,,Female,20,
1,3,18,14,14,1,['k'],Y,Y,None,N,['k'],,,,,,,Female,20,
1,4,19,11,11,1,['d'],Y,N,None,Y,['d'],,,,,,,Female,20,
1,5,20,12,12,1,['k'],Y,Y,['space'],Y,['k'],,,,,,,Female,20,
1,6,21,0,0,1,['d'],Y,N,None,Y,['d'],,,,,,,Female,20,
1,7,22,12,12,1,['d'],N,N,None,Y,['k'],,,,,,,Female,20,
1,8,23,9,9,1,['d'],N,Y,None,N,['k'],,,,,,,Female,20,
1,9,24,8,8,1,['k'],Y,N,None,Y,['k'],,,,,,,Female,20,
1,10,25,12,12,1,['k'],Y,Y,['space'],Y,['k'],,,,,,,Female,20,
1,11,26,10,10,1,['d'],N,N,None,Y,['k'],,,,,,,Female,20,
1,12,27,13,13,1,['d'],Y,N,None,Y,['d'],,,,,,,Female,20,
1,13,28,11,11,1,['k'],Y,N,None,Y,['k'],,,,,,,Female,20,
1,14,29,0,0,1,['d'],N,Y,['space'],Y,['k'],,,,,,,Female,20,
2,0,30,12,12,1,['d'],N,Y,['space'],Y,['k'],,,,,,,Female,20,
2,1,31,1,1,1,['k'],N,N,None,Y,['d'],,,,,,,Female,20,
2,2,32,10,10,1,['d'],N,Y,None,N,['k'],,,,,,,Female,20,
2,3,33,7,7,1,['d'],Y,N,None,Y,['d'],,,,,,,Female,20,
2,4,34,3,3,1,['k'],N,N,None,Y,['d'],,,,,,,Female,20,
2,5,35,6,6,1,['d'],N,Y,None,N,['k'],,,,,,,Female,20,
2,6,36,2,2,1,['k'],N,N,None,Y,['d'],,,,,,,Female,20,
2,7,37,5,5,1,['k'],Y,N,None,Y,['k'],,,,,,,Female,20,
2,8,38,3,3,1,['d'],N,Y,['space'],Y,['k'],,,,,,,Female,20,
2,9,39,0,0,1,['d'],Y,N,None,Y,['d'],,,,,,,Female,20,
2,10,40,8,8,1,['k'],Y,N,None,Y,['k'],,,,,,,Female,20,
2,11,41,1,1,1,['d'],N,Y,['space'],Y,['k'],,,,,,,Female,20,
2,12,42,0,0,1,['k'],N,Y,['space'],Y,['d'],,,,,,,Female,20,
2,13,43,6,6,1,['d'],Y,N,None,Y,['d'],,,,,,,Female,20,
2,14,44,14,14,1,['k'],N,N,None,Y,['d'],,,,,,,Female,20,
3,0,45,0,0,1,['k'],N,Y,['space'],Y,['d'],,,,,,,Female,20,
3,1,46,14,14,1,['d'],Y,Y,None,N,['d'],,,,,,,Female,20,
3,2,47,9,9,1,['k'],N,N,None,Y,['d'],,,,,,,Female,20,
3,3,48,12,12,1,['k'],N,Y,['space'],Y,['d'],,,,,,,Female,20,
3,4,49,7,7,1,['d'],Y,N,None,Y,['d'],24,39,19,,,,Female,20,
3,5,50,5,5,2,['d'],N,,,,['k'],,,,,,,Female,20,
3,6,51,11,11,2,['d'],N,,,,['k'],,,,,,,Female,20,
3,7,52,4,4,2,['d'],N,N,None,Y,['k'],,,,,,,Female,20,
3,8,53,7,7,2,['d'],Y,Y,['space'],Y,['d'],,,,,,,Female,20,
3,9,54,8,8,2,['k'],Y,N,None,Y,['k'],,,,,,,Female,20,
3,10,55,7,7,2,['d'],Y,N,['space'],N,['d'],,,,,,,Female,20,
3,11,56,4,4,2,['k'],N,Y,None,N,['d'],,,,,,,Female,20,
3,12,57,4,4,2,['k'],Y,Y,['space'],Y,['k'],,,,,,,Female,20,
3,13,58,0,0,2,['k'],Y,Y,None,N,['k'],,,,,,,Female,20,
3,14,59,12,12,2,['k'],N,N,None,Y,['d'],,,,,,,Female,20,
4,0,60,3,3,2,['d'],N,N,None,Y,['k'],,,,,,,Female,20,
4,1,61,2,2,2,['d'],Y,N,None,Y,['d'],,,,,,,Female,20,
4,2,62,0,0,2,['k'],N,N,['space'],N,['d'],,,,,,,Female,20,
4,3,63,2,2,2,['d'],Y,N,None,Y,['d'],,,,,,,Female,20,
4,4,64,13,13,2,['k'],N,Y,None,N,['d'],,,,,,,Female,20,
4,5,65,9,9,2,['d'],N,N,None,Y,['k'],,,,,,,Female,20,
4,6,66,5,5,2,['d'],N,Y,['space'],Y,['k'],,,,,,,Female,20,
4,7,67,5,5,2,['d'],Y,N,None,Y,['d'],,,,,,,Female,20,
4,8,68,11,11,2,['k'],Y,Y,['space'],Y,['k'],,,,,,,Female,20,
4,9,69,1,1,2,['d'],Y,Y,['space'],Y,['d'],,,,,,,Female,20,
4,10,70,12,12,2,['k'],N,N,None,Y,['d'],,,,,,,Female,20,
4,11,71,6,6,2,['d'],Y,Y,['space'],Y,['d'],,,,,,,Female,20,
4,12,72,2,2,2,['k'],N,N,None,Y,['d'],,,,,,,Female,20,
4,13,73,5,5,2,['d'],Y,N,None,Y,['d'],,,,,,,Female,20,
4,14,74,1,1,2,['k'],N,Y,['space'],Y,['d'],,,,,,,Female,20,
5,0,75,10,10,2,['d'],Y,N,None,Y,['d'],,,,,,,Female,20,
5,1,76,14,14,2,['d'],Y,N,['space'],N,['d'],,,,,,,Female,20,
5,2,77,10,10,2,['k'],N,N,None,Y,['d'],,,,,,,Female,20,
5,3,78,1,1,2,['d'],Y,N,None,Y,['d'],,,,,,,Female,20,
5,4,79,7,7,2,['d'],Y,Y,['space'],Y,['d'],,,,,,,Female,20,
5,5,80,12,12,2,['d'],N,Y,['space'],Y,['k'],,,,,,,Female,20,
5,6,81,4,4,2,['d'],Y,N,None,Y,['d'],,,,,,,Female,20,
5,7,82,11,11,2,['k'],N,Y,None,N,['d'],,,,,,,Female,20,
5,8,83,14,14,2,['d'],N,Y,['space'],Y,['k'],,,,,,,Female,20,
5,9,84,3,3,2,['d'],Y,N,None,Y,['d'],,,,,,,Female,20,
5,10,85,2,2,2,['k'],Y,Y,['space'],Y,['k'],,,,,,,Female,20,
5,11,86,6,6,2,['d'],Y,N,None,Y,['d'],,,,,,,Female,20,
5,12,87,7,7,2,['d'],N,Y,['space'],Y,['k'],,,,,,,Female,20,
5,13,88,4,4,2,['k'],Y,Y,['space'],Y,['k'],,,,,,,Female,20,
5,14,89,5,5,2,['d'],N,Y,None,N,['k'],,,,,,,Female,20,
6,0,90,1,1,2,['k'],Y,N,None,Y,['k'],,,,,,,Female,20,
6,1,91,13,13,2,['k'],N,N,None,Y,['d'],,,,,,,Female,20,
6,2,92,6,6,2,['d'],Y,Y,['space'],Y,['d'],,,,,,,Female,20,
6,3,93,0,0,2,['d'],Y,N,['k'],N,['d'],,,,,,,Female,20,
6,4,94,9,9,2,['d'],N,Y,None,N,['k'],,,,,,,Female,20,
6,5,95,1,1,2,['k'],Y,N,None,Y,['k'],,,,,,,Female,20,
6,6,96,2,2,2,['k'],N,N,None,Y,['d'],,,,,,,Female,20,
6,7,97,6,6,2,['k'],N,Y,['space'],Y,['d'],,,,,,,Female,20,
6,8,98,5,5,2,['d'],N,Y,['space'],Y,['k'],,,,,,,Female,20,
6,9,99,11,11,2,['k'],Y,N,None,Y,['k'],26,38,22,,,,Female,20,
6,10,100,10,10,3,['d'],Y,,,,['d'],,,,,,,Female,20,
6,11,101,11,11,3,['d'],N,,,,['k'],,,,,,,Female,20,
6,12,102,4,4,3,['k'],N,Y,None,N,['d'],,,,,,,Female,20,
6,13,103,9,9,3,['k'],Y,N,None,Y,['k'],,,,,,,Female,20,
6,14,104,10,10,3,['k'],Y,N,None,Y,['k'],,,,,,,Female,20,
7,0,105,10,10,3,['d'],N,Y,['space'],Y,['k'],,,,,,,Female,20,
7,1,106,4,4,3,['k'],Y,Y,['space'],Y,['k'],,,,,,,Female,20,
7,2,107,11,11,3,['k'],N,N,None,Y,['d'],,,,,,,Female,20,
7,3,108,10,10,3,['d'],N,Y,None,N,['k'],,,,,,,Female,20,
7,4,109,9,9,3,['d'],N,Y,None,N,['k'],,,,,,,Female,20,
7,5,110,10,10,3,['d'],N,Y,None,N,['k'],,,,,,,Female,20,
7,6,111,11,11,3,['k'],N,Y,['space'],Y,['d'],,,,,,,Female,20,
7,7,112,2,2,3,['d'],Y,N,None,Y,['d'],,,,,,,Female,20,
7,8,113,11,11,3,['k'],N,Y,None,N,['d'],,,,,,,Female,20,
7,9,114,6,6,3,['d'],Y,Y,['space'],Y,['d'],,,,,,,Female,20,
7,10,115,6,6,3,['k'],Y,N,None,Y,['k'],,,,,,,Female,20,
7,11,116,7,7,3,['d'],N,N,None,Y,['k'],,,,,,,Female,20,
7,12,117,7,7,3,['d'],Y,Y,None,N,['d'],,,,,,,Female,20,
7,13,118,7,7,3,['k'],N,N,None,Y,['d'],,,,,,,Female,20,
7,14,119,14,14,3,None,Timed out,Y,None,N,,,,,,,,Female,20,
8,0,120,6,6,3,['k'],N,N,None,Y,['d'],,,,,,,Female,20,
8,1,121,9,9,3,['k'],N,N,None,Y,['d'],,,,,,,Female,20,
8,2,122,0,0,3,['d'],N,N,None,Y,['k'],,,,,,,Female,20,
8,3,123,11,11,3,['d'],N,Y,['space'],Y,['k'],,,,,,,Female,20,
8,4,124,0,0,3,['k'],N,Y,['space'],Y,['d'],,,,,,,Female,20,
8,5,125,11,11,3,['k'],N,Y,['space'],Y,['d'],,,,,,,Female,20,
8,6,126,9,9,3,['k'],Y,N,None,Y,['k'],,,,,,,Female,20,
8,7,127,5,5,3,['d'],Y,N,None,Y,['d'],,,,,,,Female,20,
8,8,128,7,7,3,['k'],N,N,None,Y,['d'],,,,,,,Female,20,
8,9,129,12,12,3,['d'],N,Y,None,N,['k'],,,,,,,Female,20,
8,10,130,8,8,3,['k'],Y,N,None,Y,['k'],,,,,,,Female,20,
8,11,131,2,2,3,['d'],N,N,None,Y,['k'],,,,,,,Female,20,
8,12,132,6,6,3,['k'],Y,N,None,Y,['k'],,,,,,,Female,20,
8,13,133,7,7,3,['k'],N,N,None,Y,['d'],,,,,,,Female,20,
8,14,134,4,4,3,['k'],Y,Y,None,N,['k'],,,,,,,Female,20,
9,0,135,7,7,3,['d'],N,Y,['space'],Y,['k'],,,,,,,Female,20,
9,1,136,4,4,3,['k'],N,Y,['space'],Y,['d'],,,,,,,Female,20,
9,2,137,11,11,3,['d'],Y,N,None,Y,['d'],,,,,,,Female,20,
9,3,138,11,11,3,['k'],Y,N,None,Y,['k'],,,,,,,Female,20,
9,4,139,8,8,3,['k'],N,N,['space'],N,['d'],,,,,,,Female,20,
9,5,140,4,4,3,['d'],Y,Y,None,N,['d'],,,,,,,Female,20,
9,6,141,12,12,3,['d'],Y,N,None,Y,['d'],,,,,,,Female,20,
9,7,142,13,13,3,['d'],N,Y,None,N,['k'],,,,,,,Female,20,
9,8,143,13,13,3,['k'],Y,N,None,Y,['k'],,,,,,,Female,20,
9,9,144,1,1,3,['k'],Y,N,None,Y,['k'],,,,,,,Female,20,
9,10,145,13,13,3,['k'],Y,Y,['space'],Y,['k'],,,,,,,Female,20,
9,11,146,10,10,3,['d'],Y,N,None,Y,['d'],,,,,,,Female,20,
9,12,147,9,9,3,['d'],N,Y,None,N,['k'],,,,,,,Female,20,
9,13,148,3,3,3,['d'],Y,N,None,Y,['d'],,,,,,,Female,20,
9,14,149,1,1,3,['k'],Y,N,None,Y,['k'],23,35,22,,,,Female,20,
10,0,150,13,13,4,['d'],N,,,,['k'],,,,,,,Female,20,
10,1,151,12,12,4,['k'],N,,,,['d'],,,,,,,Female,20,
10,2,152,12,12,4,['d'],N,N,None,Y,['k'],,,,,,,Female,20,
10,3,153,8,8,4,['k'],Y,N,None,Y,['k'],,,,,,,Female,20,
10,4,154,8,8,4,['k'],Y,N,['space'],N,['k'],,,,,,,Female,20,
10,5,155,12,12,4,['d'],Y,N,['space'],N,['d'],,,,,,,Female,20,
10,6,156,12,12,4,['k'],N,Y,['space'],Y,['d'],,,,,,,Female,20,
10,7,157,14,14,4,['d'],Y,Y,None,N,['d'],,,,,,,Female,20,
10,8,158,3,3,4,['d'],Y,N,None,Y,['d'],,,,,,,Female,20,
10,9,159,13,13,4,['k'],Y,N,None,Y,['k'],,,,,,,Female,20,
10,10,160,8,8,4,['d'],Y,Y,['space'],Y,['d'],,,,,,,Female,20,
10,11,161,12,12,4,['k'],Y,N,None,Y,['k'],,,,,,,Female,20,
10,12,162,3,3,4,['k'],Y,N,None,Y,['k'],,,,,,,Female,20,
10,13,163,4,4,4,['k'],Y,Y,['space'],Y,['k'],,,,,,,Female,20,
10,14,164,14,14,4,['k'],Y,Y,None,N,['k'],,,,,,,Female,20,
11,0,165,1,1,4,['k'],Y,N,None,Y,['k'],,,,,,,Female,20,
11,1,166,10,10,4,['k'],Y,Y,['space'],Y,['k'],,,,,,,Female,20,
11,2,167,5,5,4,['d'],Y,N,None,Y,['d'],,,,,,,Female,20,
11,3,168,0,0,4,['d'],N,N,None,Y,['k'],,,,,,,Female,20,
11,4,169,2,2,4,['k'],N,Y,['space'],Y,['d'],,,,,,,Female,20,
11,5,170,3,3,4,['k'],N,Y,None,N,['d'],,,,,,,Female,20,
11,6,171,1,1,4,['d'],N,Y,None,N,['k'],,,,,,,Female,20,
11,7,172,3,3,4,['d'],Y,Y,['space'],Y,['d'],,,,,,,Female,20,
11,8,173,6,6,4,['d'],N,Y,['space'],Y,['k'],,,,,,,Female,20,
11,9,174,7,7,4,['d'],N,Y,None,N,['k'],,,,,,,Female,20,
11,10,175,4,4,4,['d'],N,Y,None,N,['k'],,,,,,,Female,20,
11,11,176,8,8,4,['k'],Y,Y,None,N,['k'],,,,,,,Female,20,
11,12,177,4,4,4,['k'],Y,N,None,Y,['k'],,,,,,,Female,20,
11,13,178,4,4,4,['d'],N,Y,None,N,['k'],,,,,,,Female,20,
11,14,179,4,4,4,['d'],Y,Y,None,N,['d'],,,,,,,Female,20,
12,0,180,5,5,4,['k'],Y,N,None,Y,['k'],,,,,,,Female,20,
12,1,181,6,6,4,['k'],Y,Y,None,N,['k'],,,,,,,Female,20,
12,2,182,1,1,4,['k'],N,N,None,Y,['d'],,,,,,,Female,20,
12,3,183,4,4,4,['k'],N,N,None,Y,['d'],,,,,,,Female,20,
12,4,184,2,2,4,['d'],Y,N,None,Y,['d'],,,,,,,Female,20,
12,5,185,0,0,4,['d'],N,N,None,Y,['k'],,,,,,,Female,20,
12,6,186,11,11,4,['k'],N,Y,None,N,['d'],,,,,,,Female,20,
12,7,187,5,5,4,['d'],Y,Y,None,N,['d'],,,,,,,Female,20,
12,8,188,8,8,4,['k'],N,N,None,Y,['d'],,,,,,,Female,20,
12,9,189,11,11,4,['k'],Y,N,None,Y,['k'],,,,,,,Female,20,
12,10,190,7,7,4,['k'],Y,Y,['space'],Y,['k'],,,,,,,Female,20,
12,11,191,3,3,4,['k'],Y,N,None,Y,['k'],,,,,,,Female,20,
12,12,192,3,3,4,['k'],N,N,None,Y,['d'],,,,,,,Female,20,
12,13,193,2,2,4,['d'],N,Y,['space'],Y,['k'],,,,,,,Female,20,
12,14,194,3,3,4,['k'],N,N,None,Y,['d'],,,,,,,Female,20,
13,0,195,7,7,4,['d'],N,N,None,Y,['k'],,,,,,,Female,20,
13,1,196,11,11,4,['d'],N,N,None,Y,['k'],,,,,,,Female,20,
13,2,197,8,8,4,['d'],Y,N,None,Y,['d'],,,,,,,Female,20,
13,3,198,12,12,4,['d'],Y,N,None,Y,['d'],,,,,,,Female,20,
13,4,199,7,7,4,['d'],N,N,None,Y,['k'],27,34,21,,,,Female,20,
13,5,200,9,9,5,['d'],Y,,,,['d'],,,,,,,Female,20,
13,6,201,6,6,5,['d'],N,,,,['k'],,,,,,,Female,20,
13,7,202,9,9,5,['d'],N,Y,['space'],Y,['k'],,,,,,,Female,20,
13,8,203,11,11,5,['d'],N,N,None,Y,['k'],,,,,,,Female,20,
13,9,204,5,5,5,['k'],N,N,None,Y,['d'],,,,,,,Female,20,
13,10,205,1,1,5,['d'],N,N,None,Y,['k'],,,,,,,Female,20,
13,11,206,11,11,5,['k'],Y,N,['space'],N,['k'],,,,,,,Female,20,
13,12,207,6,6,5,['k'],Y,Y,None,N,['k'],,,,,,,Female,20,
13,13,208,14,14,5,['d'],N,N,None,Y,['k'],,,,,,,Female,20,
13,14,209,13,13,5,['d'],N,N,None,Y,['k'],,,,,,,Female,20,
14,0,210,4,4,5,['d'],Y,N,None,Y,['d'],,,,,,,Female,20,
14,1,211,2,2,5,['d'],Y,N,None,Y,['d'],,,,,,,Female,20,
14,2,212,9,9,5,['k'],Y,Y,['space'],Y,['k'],,,,,,,Female,20,
14,3,213,7,7,5,['k'],N,Y,['space'],Y,['d'],,,,,,,Female,20,
14,4,214,4,4,5,['k'],N,N,None,Y,['d'],,,,,,,Female,20,
14,5,215,2,2,5,['k'],Y,Y,None,N,['k'],,,,,,,Female,20,
14,6,216,12,12,5,['d'],Y,Y,['space'],Y,['d'],,,,,,,Female,20,
14,7,217,4,4,5,['d'],Y,N,None,Y,['d'],,,,,,,Female,20,
14,8,218,12,12,5,['k'],Y,Y,['space'],Y,['k'],,,,,,,Female,20,
14,9,219,13,13,5,['k'],N,Y,['space'],Y,['d'],,,,,,,Female,20,
14,10,220,10,10,5,['k'],N,N,None,Y,['d'],,,,,,,Female,20,
14,11,221,9,9,5,['d'],N,Y,None,N,['k'],,,,,,,Female,20,
14,12,222,7,7,5,['d'],N,Y,None,N,['k'],,,,,,,Female,20,
14,13,223,12,12,5,['d'],N,Y,None,N,['k'],,,,,,,Female,20,
14,14,224,1,1,5,['k'],N,N,None,Y,['d'],,,,,,,Female,20,
15,0,225,4,4,5,['k'],N,N,None,Y,['d'],,,,,,,Female,20,
15,1,226,4,4,5,['d'],N,Y,['space'],Y,['k'],,,,,,,Female,20,
15,2,227,5,5,5,['k'],N,Y,['space'],Y,['d'],,,,,,,Female,20,
15,3,228,7,7,5,['d'],Y,N,None,Y,['d'],,,,,,,Female,20,
15,4,229,14,14,5,['k'],N,N,None,Y,['d'],,,,,,,Female,20,
15,5,230,8,8,5,['k'],N,N,None,Y,['d'],,,,,,,Female,20,
15,6,231,1,1,5,['k'],N,N,None,Y,['d'],,,,,,,Female,20,
15,7,232,10,10,5,['d'],Y,Y,None,N,['d'],,,,,,,Female,20,
15,8,233,8,8,5,['k'],Y,N,None,Y,['k'],,,,,,,Female,20,
15,9,234,7,7,5,['d'],N,Y,None,N,['k'],,,,,,,Female,20,
15,10,235,5,5,5,['d'],N,Y,None,N,['k'],,,,,,,Female,20,
15,11,236,7,7,5,['k'],Y,N,None,Y,['k'],,,,,,,Female,20,
15,12,237,14,14,5,['k'],N,N,None,Y,['d'],,,,,,,Female,20,
15,13,238,11,11,5,['k'],N,N,None,Y,['d'],,,,,,,Female,20,
15,14,239,8,8,5,['d'],N,N,None,Y,['k'],,,,,,,Female,20,
16,0,240,14,14,5,['d'],Y,N,None,Y,['d'],,,,,,,Female,20,
16,1,241,10,10,5,['d'],N,Y,None,N,['k'],,,,,,,Female,20,
16,2,242,9,9,5,['d'],Y,N,None,Y,['d'],,,,,,,Female,20,
16,3,243,12,12,5,['k'],N,Y,['space'],Y,['d'],,,,,,,Female,20,
16,4,244,4,4,5,['d'],Y,N,None,Y,['d'],,,,,,,Female,20,
16,5,245,3,3,5,['d'],Y,N,None,Y,['d'],,,,,,,Female,20,
16,6,246,13,13,5,['k'],Y,N,None,Y,['k'],,,,,,,Female,20,
16,7,247,1,1,5,None,Timed out,N,None,Y,,,,,,,,Female,20,
16,8,248,3,3,5,['k'],Y,N,['space'],N,['k'],,,,,,,Female,20,
16,9,249,14,14,5,['k'],Y,N,None,Y,['k'],21,37,18,,,,Female,20,
16,10,250,7,7,6,['k'],N,,,,['d'],,,,,,,Female,20,
16,11,251,11,11,6,['d'],N,,,,['k'],,,,,,,Female,20,
16,12,252,3,3,6,['k'],N,N,None,Y,['d'],,,,,,,Female,20,
16,13,253,5,5,6,['k'],N,Y,None,N,['d'],,,,,,,Female,20,
16,14,254,4,4,6,['k'],Y,Y,['space'],Y,['k'],,,,,,,Female,20,
17,0,255,10,10,6,['d'],N,N,None,Y,['k'],,,,,,,Female,20,
17,1,256,10,10,6,['k'],N,N,None,Y,['d'],,,,,,,Female,20,
17,2,257,13,13,6,['d'],Y,Y,['space'],Y,['d'],,,,,,,Female,20,
17,3,258,9,9,6,['k'],N,N,None,Y,['d'],,,,,,,Female,20,
17,4,259,2,2,6,['k'],Y,Y,None,N,['k'],,,,,,,Female,20,
17,5,260,14,14,6,['k'],N,Y,['space'],Y,['d'],,,,,,,Female,20,
17,6,261,5,5,6,['d'],Y,Y,None,N,['d'],,,,,,,Female,20,
17,7,262,0,0,6,['k'],Y,N,None,Y,['k'],,,,,,,Female,20,
17,8,263,13,13,6,['k'],N,Y,['space'],Y,['d'],,,,,,,Female,20,
17,9,264,3,3,6,['k'],Y,Y,None,N,['k'],,,,,,,Female,20,
17,10,265,2,2,6,['k'],N,N,None,Y,['d'],,,,,,,Female,20,
17,11,266,8,8,6,['k'],N,Y,None,N,['d'],,,,,,,Female,20,
17,12,267,13,13,6,['d'],Y,Y,['space'],Y,['d'],,,,,,,Female,20,
17,13,268,11,11,6,['k'],Y,N,None,Y,['k'],,,,,,,Female,20,
17,14,269,2,2,6,['k'],N,Y,['space'],Y,['d'],,,,,,,Female,20,
18,0,270,14,14,6,['k'],N,N,None,Y,['d'],,,,,,,Female,20,
18,1,271,2,2,6,['k'],N,Y,None,N,['d'],,,,,,,Female,20,
18,2,272,8,8,6,['k'],N,N,None,Y,['d'],,,,,,,Female,20,
18,3,273,6,6,6,['k'],Y,Y,['space'],Y,['k'],,,,,,,Female,20,
18,4,274,3,3,6,['k'],Y,Y,['space'],Y,['k'],,,,,,,Female,20,
18,5,275,8,8,6,['k'],Y,Y,['space'],Y,['k'],,,,,,,Female,20,
18,6,276,14,14,6,['k'],Y,N,None,Y,['k'],,,,,,,Female,20,
18,7,277,10,10,6,['d'],N,Y,['space'],Y,['k'],,,,,,,Female,20,
18,8,278,14,14,6,['d'],Y,Y,None,N,['d'],,,,,,,Female,20,
18,9,279,10,10,6,['d'],N,N,None,Y,['k'],,,,,,,Female,20,
18,10,280,14,14,6,['d'],Y,N,None,Y,['d'],,,,,,,Female,20,
18,11,281,0,0,6,['k'],N,N,None,Y,['d'],,,,,,,Female,20,
18,12,282,6,6,6,['d'],N,Y,None,N,['k'],,,,,,,Female,20,
18,13,283,1,1,6,['k'],Y,Y,['space'],Y,['k'],,,,,,,Female,20,
18,14,284,5,5,6,['k'],N,N,None,Y,['d'],,,,,,,Female,20,
19,0,285,14,14,6,['k'],Y,N,None,Y,['k'],,,,,,,Female,20,
19,1,286,13,13,6,['d'],Y,Y,None,N,['d'],,,,,,,Female,20,
19,2,287,6,6,6,['k'],N,N,None,Y,['d'],,,,,,,Female,20,
19,3,288,2,2,6,None,Timed out,N,None,Y,,,,,,,,Female,20,
19,4,289,2,2,6,['d'],N,Y,None,N,['k'],,,,,,,Female,20,
19,5,290,11,11,6,['d'],N,Y,None,N,['k'],,,,,,,Female,20,
19,6,291,13,13,6,['d'],N,N,None,Y,['k'],,,,,,,Female,20,
19,7,292,0,0,6,['k'],Y,N,None,Y,['k'],,,,,,,Female,20,
19,8,293,8,8,6,['d'],Y,N,None,Y,['d'],,,,,,,Female,20,
19,9,294,0,0,6,['d'],N,Y,None,N,['k'],,,,,,,Female,20,
19,10,295,6,6,6,['d'],N,Y,['space'],Y,['k'],,,,,,,Female,20,
19,11,296,7,7,6,['d'],Y,N,None,Y,['d'],,,,,,,Female,20,
19,12,297,1,1,6,['k'],N,Y,['space'],Y,['d'],,,,,,,Female,20,
19,13,298,5,5,6,['k'],N,N,None,Y,['d'],,,,,,,Female,20,
19,14,299,0,0,6,['d'],N,N,None,Y,['k'],20,36,25,,,,Female,20,
20,0,300,1,1,7,['k'],Y,,,,['k'],,,,,,,Female,20,
20,1,301,3,3,7,['d'],N,,,,['k'],,,,,,,Female,20,
20,2,302,6,6,7,['d'],N,N,None,Y,['k'],,,,,,,Female,20,
20,3,303,11,11,7,['k'],N,Y,['space'],Y,['d'],,,,,,,Female,20,
20,4,304,0,0,7,['k'],Y,Y,['space'],Y,['k'],,,,,,,Female,20,
20,5,305,1,1,7,['k'],N,N,None,Y,['d'],,,,,,,Female,20,
20,6,306,1,1,7,['k'],Y,N,None,Y,['k'],,,,,,,Female,20,
20,7,307,11,11,7,['d'],N,Y,['space'],Y,['k'],,,,,,,Female,20,
20,8,308,7,7,7,['d'],N,N,None,Y,['k'],,,,,,,Female,20,
20,9,309,1,1,7,['k'],N,N,None,Y,['d'],,,,,,,Female,20,
20,10,310,5,5,7,['k'],Y,N,None,Y,['k'],,,,,,,Female,20,
20,11,311,11,11,7,None,Timed out,Y,['space'],Y,,,,,,,,Female,20,
20,12,312,7,7,7,['d'],N,N,None,Y,['k'],,,,,,,Female,20,
20,13,313,3,3,7,['k'],N,Y,['space'],Y,['d'],,,,,,,Female,20,
20,14,314,12,12,7,['d'],N,N,None,Y,['k'],,,,,,,Female,20,
21,0,315,2,2,7,['d'],Y,Y,['space'],Y,['d'],,,,,,,Female,20,
21,1,316,13,13,7,['d'],N,N,None,Y,['k'],,,,,,,Female,20,
21,2,317,0,0,7,['k'],Y,Y,['space'],Y,['k'],,,,,,,Female,20,
21,3,318,1,1,7,['k'],N,Y,['space'],Y,['d'],,,,,,,Female,20,
21,4,319,3,3,7,['k'],N,N,None,Y,['d'],,,,,,,Female,20,
21,5,320,8,8,7,['k'],Y,N,None,Y,['k'],,,,,,,Female,20,
21,6,321,1,1,7,['d'],N,Y,['space'],Y,['k'],,,,,,,Female,20,
21,7,322,13,13,7,['d'],Y,Y,['space'],Y,['d'],,,,,,,Female,20,
21,8,323,12,12,7,['k'],N,N,None,Y,['d'],,,,,,,Female,20,
21,9,324,6,6,7,['d'],Y,Y,None,N,['d'],,,,,,,Female,20,
21,10,325,7,7,7,['d'],N,Y,None,N,['k'],,,,,,,Female,20,
21,11,326,4,4,7,['k'],Y,Y,['space'],Y,['k'],,,,,,,Female,20,
21,12,327,0,0,7,['k'],N,N,None,Y,['d'],,,,,,,Female,20,
21,13,328,6,6,7,['k'],Y,N,None,Y,['k'],,,,,,,Female,20,
21,14,329,8,8,7,['k'],Y,N,None,Y,['k'],,,,,,,Female,20,
22,0,330,5,5,7,None,Timed out,N,None,Y,,,,,,,,Female,20,
22,1,331,10,10,7,['d'],Y,Y,['space'],Y,['d'],,,,,,,Female,20,
22,2,332,3,3,7,['k'],N,N,None,Y,['d'],,,,,,,Female,20,
22,3,333,10,10,7,['k'],Y,N,None,Y,['k'],,,,,,,Female,20,
22,4,334,8,8,7,['k'],N,Y,['space'],Y,['d'],,,,,,,Female,20,
22,5,335,13,13,7,['k'],N,N,None,Y,['d'],,,,,,,Female,20,
22,6,336,3,3,7,['k'],N,N,None,Y,['d'],,,,,,,Female,20,
22,7,337,9,9,7,['d'],N,Y,None,N,['k'],,,,,,,Female,20,
22,8,338,4,4,7,['k'],Y,N,None,Y,['k'],,,,,,,Female,20,
22,9,339,5,5,7,['d'],Y,Y,['space'],Y,['d'],,,,,,,Female,20,
22,10,340,0,0,7,['d'],N,N,None,Y,['k'],,,,,,,Female,20,
22,11,341,2,2,7,['k'],Y,Y,None,N,['k'],,,,,,,Female,20,
22,12,342,12,12,7,['d'],Y,N,None,Y,['d'],,,,,,,Female,20,
22,13,343,13,13,7,['k'],Y,N,None,Y,['k'],,,,,,,Female,20,
22,14,344,13,13,7,['k'],Y,N,None,Y,['k'],,,,,,,Female,20,
23,0,345,0,0,7,['k'],Y,Y,['space'],Y,['k'],,,,,,,Female,20,
23,1,346,11,11,7,['k'],Y,N,None,Y,['k'],,,,,,,Female,20,
23,2,347,4,4,7,['d'],Y,N,None,Y,['d'],,,,,,,Female,20,
23,3,348,10,10,7,['k'],N,N,None,Y,['d'],,,,,,,Female,20,
23,4,349,0,0,7,['k'],N,N,None,Y,['d'],23,44,19,,,,Female,20,
23,5,350,7,7,8,['k'],N,,,,['d'],,,,,,,Female,20,
23,6,351,7,7,8,['d'],Y,,,,['d'],,,,,,,Female,20,
23,7,352,14,14,8,['d'],Y,N,None,Y,['d'],,,,,,,Female,20,
23,8,353,8,8,8,['d'],Y,N,None,Y,['d'],,,,,,,Female,20,
23,9,354,11,11,8,['k'],Y,N,None,Y,['k'],,,,,,,Female,20,
23,10,355,13,13,8,['d'],Y,N,None,Y,['d'],,,,,,,Female,20,
23,11,356,7,7,8,['d'],N,N,None,Y,['k'],,,,,,,Female,20,
23,12,357,3,3,8,['d'],Y,Y,['space'],Y,['d'],,,,,,,Female,20,
23,13,358,12,12,8,['k'],N,N,None,Y,['d'],,,,,,,Female,20,
23,14,359,13,13,8,['k'],Y,N,None,Y,['k'],,,,,,,Female,20,
24,0,360,5,5,8,['d'],Y,N,None,Y,['d'],,,,,,,Female,20,
24,1,361,1,1,8,['d'],Y,N,None,Y,['d'],,,,,,,Female,20,
24,2,362,2,2,8,['d'],Y,N,None,Y,['d'],,,,,,,Female,20,
24,3,363,0,0,8,['k'],Y,N,None,Y,['k'],,,,,,,Female,20,
24,4,364,11,11,8,['d'],N,Y,['space'],Y,['k'],,,,,,,Female,20,
24,5,365,12,12,8,['k'],Y,Y,['space'],Y,['k'],,,,,,,Female,20,
24,6,366,5,5,8,['k'],Y,Y,None,N,['k'],,,,,,,Female,20,
24,7,367,11,11,8,['d'],Y,N,None,Y,['d'],,,,,,,Female,20,
24,8,368,11,11,8,['k'],Y,Y,['space'],Y,['k'],,,,,,,Female,20,
24,9,369,10,10,8,['d'],N,Y,['space'],Y,['k'],,,,,,,Female,20,
24,10,370,5,5,8,['k'],Y,Y,['space'],Y,['k'],,,,,,,Female,20,
24,11,371,1,1,8,['d'],Y,Y,['space'],Y,['d'],,,,,,,Female,20,
24,12,372,7,7,8,['k'],N,Y,None,N,['d'],,,,,,,Female,20,
24,13,373,9,9,8,['d'],Y,Y,['space'],Y,['d'],,,,,,,Female,20,
24,14,374,1,1,8,['d'],N,N,None,Y,['k'],,,,,,,Female,20,
25,0,375,12,12,8,['d'],Y,N,None,Y,['d'],,,,,,,Female,20,
25,1,376,12,12,8,['d'],Y,Y,['space'],Y,['d'],,,,,,,Female,20,
25,2,377,0,0,8,['k'],N,N,None,Y,['d'],,,,,,,Female,20,
25,3,378,5,5,8,['d'],N,Y,['space'],Y,['k'],,,,,,,Female,20,
25,4,379,3,3,8,['d'],Y,N,None,Y,['d'],,,,,,,Female,20,
25,5,380,9,9,8,['k'],Y,N,None,Y,['k'],,,,,,,Female,20,
25,6,381,8,8,8,['k'],N,Y,['space'],Y,['d'],,,,,,,Female,20,
25,7,382,8,8,8,['d'],Y,N,None,Y,['d'],,,,,,,Female,20,
25,8,383,6,6,8,['k'],N,Y,['space'],Y,['d'],,,,,,,Female,20,
25,9,384,4,4,8,['k'],Y,Y,['space'],Y,['k'],,,,,,,Female,20,
25,10,385,2,2,8,['d'],N,N,None,Y,['k'],,,,,,,Female,20,
25,11,386,10,10,8,['k'],Y,Y,['space'],Y,['k'],,,,,,,Female,20,
25,12,387,14,14,8,['d'],Y,N,None,Y,['d'],,,,,,,Female,20,
25,13,388,14,14,8,['d'],Y,N,None,Y,['d'],,,,,,,Female,20,
25,14,389,14,14,8,['d'],Y,N,None,Y,['d'],,,,,,,Female,20,
26,0,390,7,7,8,['k'],Y,Y,['space'],Y,['k'],,,,,,,Female,20,
26,1,391,3,3,8,['d'],Y,Y,None,N,['d'],,,,,,,Female,20,
26,2,392,0,0,8,['d'],Y,N,None,Y,['d'],,,,,,,Female,20,
26,3,393,3,3,8,['d'],Y,N,None,Y,['d'],,,,,,,Female,20,
26,4,394,10,10,8,['k'],N,N,None,Y,['d'],,,,,,,Female,20,
26,5,395,10,10,8,['d'],Y,Y,['space'],Y,['d'],,,,,,,Female,20,
26,6,396,13,13,8,['d'],N,N,None,Y,['k'],,,,,,,Female,20,
26,7,397,13,13,8,['d'],N,N,None,Y,['k'],,,,,,,Female,20,
26,8,398,0,0,8,['k'],N,Y,['space'],Y,['d'],,,,,,,Female,20,
26,9,399,8,8,8,['d'],N,N,None,Y,['k'],33,45,20,,,,Female,20,
26,10,400,5,5,9,['d'],Y,,,,['d'],,,,,,,Female,20,
26,11,401,4,4,9,['d'],N,,,,['k'],,,,,,,Female,20,
26,12,402,1,1,9,['d'],N,Y,['space'],Y,['k'],,,,,,,Female,20,
26,13,403,0,0,9,['d'],Y,Y,['space'],Y,['d'],,,,,,,Female,20,
26,14,404,13,13,9,['k'],Y,Y,['space'],Y,['k'],,,,,,,Female,20,
27,0,405,3,3,9,['d'],N,N,None,Y,['k'],,,,,,,Female,20,
27,1,406,7,7,9,['k'],N,Y,['space'],Y,['d'],,,,,,,Female,20,
27,2,407,5,5,9,['d'],N,Y,['space'],Y,['k'],,,,,,,Female,20,
27,3,408,1,1,9,['k'],Y,Y,['space'],Y,['k'],,,,,,,Female,20,
27,4,409,10,10,9,['k'],Y,Y,['space'],Y,['k'],,,,,,,Female,20,
27,5,410,14,14,9,['k'],Y,Y,['space'],Y,['k'],,,,,,,Female,20,
27,6,411,13,13,9,['d'],N,N,None,Y,['k'],,,,,,,Female,20,
27,7,412,3,3,9,['d'],Y,Y,['space'],Y,['d'],,,,,,,Female,20,
27,8,413,14,14,9,['k'],N,N,None,Y,['d'],,,,,,,Female,20,
27,9,414,3,3,9,['k'],Y,N,None,Y,['k'],,,,,,,Female,20,
27,10,415,12,12,9,['d'],N,Y,['space'],Y,['k'],,,,,,,Female,20,
27,11,416,5,5,9,['k'],Y,Y,['space'],Y,['k'],,,,,,,Female,20,
27,12,417,11,11,9,['k'],Y,Y,['space'],Y,['k'],,,,,,,Female,20,
27,13,418,5,5,9,['d'],N,N,None,Y,['k'],,,,,,,Female,20,
27,14,419,12,12,9,['d'],Y,N,None,Y,['d'],,,,,,,Female,20,
28,0,420,2,2,9,['k'],N,N,None,Y,['d'],,,,,,,Female,20,
28,1,421,9,9,9,['d'],Y,N,None,Y,['d'],,,,,,,Female,20,
28,2,422,11,11,9,['d'],Y,Y,['space'],Y,['d'],,,,,,,Female,20,
28,3,423,13,13,9,['d'],N,N,None,Y,['k'],,,,,,,Female,20,
28,4,424,8,8,9,['k'],N,Y,['space'],Y,['d'],,,,,,,Female,20,
28,5,425,6,6,9,['d'],Y,Y,['space'],Y,['d'],,,,,,,Female,20,
28,6,426,7,7,9,['d'],Y,N,None,Y,['d'],,,,,,,Female,20,
28,7,427,10,10,9,['k'],N,Y,['space'],Y,['d'],,,,,,,Female,20,
28,8,428,1,1,9,['d'],Y,N,None,Y,['d'],,,,,,,Female,20,
28,9,429,6,6,9,['d'],Y,N,None,Y,['d'],,,,,,,Female,20,
28,10,430,1,1,9,['d'],N,N,None,Y,['k'],,,,,,,Female,20,
28,11,431,13,13,9,['k'],Y,N,None,Y,['k'],,,,,,,Female,20,
28,12,432,3,3,9,['d'],N,Y,['space'],Y,['k'],,,,,,,Female,20,
28,13,433,1,1,9,['d'],N,Y,None,N,['k'],,,,,,,Female,20,
28,14,434,13,13,9,['d'],Y,Y,['space'],Y,['d'],,,,,,,Female,20,
29,0,435,9,9,9,['d'],N,N,None,Y,['k'],,,,,,,Female,20,
29,1,436,10,10,9,['d'],N,Y,['space'],Y,['k'],,,,,,,Female,20,
29,2,437,2,2,9,['d'],N,N,None,Y,['k'],,,,,,,Female,20,
29,3,438,4,4,9,['k'],Y,N,None,Y,['k'],,,,,,,Female,20,
29,4,439,12,12,9,['d'],Y,Y,['space'],Y,['d'],,,,,,,Female,20,
29,5,440,6,6,9,['k'],N,N,None,Y,['d'],,,,,,,Female,20,
29,6,441,5,5,9,['k'],N,Y,['space'],Y,['d'],,,,,,,Female,20,
29,7,442,11,11,9,['d'],N,N,None,Y,['k'],,,,,,,Female,20,
29,8,443,9,9,9,['d'],Y,N,None,Y,['d'],,,,,,,Female,20,
29,9,444,0,0,9,['d'],N,Y,['space'],Y,['k'],,,,,,,Female,20,
29,10,445,5,5,9,['d'],Y,Y,['space'],Y,['d'],,,,,,,Female,20,
29,11,446,5,5,9,['d'],Y,Y,['space'],Y,['d'],,,,,,,Female,20,
29,12,447,9,9,9,['k'],Y,N,None,Y,['k'],,,,,,,Female,20,
29,13,448,14,14,9,['k'],Y,N,None,Y,['k'],,,,,,,Female,20,
29,14,449,5,5,9,['d'],Y,N,None,Y,['d'],27,47,25,,,,Female,20,
30,0,450,12,12,10,['d'],Y,,,,['d'],,,,,,,Female,20,
30,1,451,9,9,10,['k'],Y,,,,['k'],,,,,,,Female,20,
30,2,452,2,2,10,['d'],Y,N,None,Y,['d'],,,,,,,Female,20,
30,3,453,6,6,10,['k'],Y,Y,['space'],Y,['k'],,,,,,,Female,20,
30,4,454,3,3,10,['d'],Y,N,None,Y,['d'],,,,,,,Female,20,
30,5,455,8,8,10,['k'],N,N,None,Y,['d'],,,,,,,Female,20,
30,6,456,14,14,10,['d'],Y,N,None,Y,['d'],,,,,,,Female,20,
30,7,457,9,9,10,['d'],N,N,None,Y,['k'],,,,,,,Female,20,
30,8,458,10,10,10,['k'],N,N,['space'],N,['d'],,,,,,,Female,20,
30,9,459,14,14,10,['d'],Y,Y,None,N,['d'],,,,,,,Female,20,
30,10,460,4,4,10,['k'],N,Y,['space'],Y,['d'],,,,,,,Female,20,
30,11,461,1,1,10,['d'],Y,N,None,Y,['d'],,,,,,,Female,20,
30,12,462,4,4,10,['k'],Y,Y,None,N,['k'],,,,,,,Female,20,
30,13,463,7,7,10,['k'],N,Y,['space'],Y,['d'],,,,,,,Female,20,
30,14,464,2,2,10,['d'],N,N,None,Y,['k'],,,,,,,Female,20,
31,0,465,0,0,10,['d'],N,N,None,Y,['k'],,,,,,,Female,20,
31,1,466,9,9,10,['k'],Y,N,None,Y,['k'],,,,,,,Female,20,
31,2,467,11,11,10,['k'],Y,Y,['space'],Y,['k'],,,,,,,Female,20,
31,3,468,5,5,10,['d'],N,N,None,Y,['k'],,,,,,,Female,20,
31,4,469,4,4,10,['k'],Y,Y,['space'],Y,['k'],,,,,,,Female,20,
31,5,470,3,3,10,['k'],Y,N,None,Y,['k'],,,,,,,Female,20,
31,6,471,6,6,10,['d'],Y,N,None,Y,['d'],,,,,,,Female,20,
31,7,472,2,2,10,['d'],N,N,None,Y,['k'],,,,,,,Female,20,
31,8,473,6,6,10,['k'],Y,N,None,Y,['k'],,,,,,,Female,20,
31,9,474,3,3,10,['d'],Y,Y,['space'],Y,['d'],,,,,,,Female,20,
31,10,475,10,10,10,['k'],N,Y,['space'],Y,['d'],,,,,,,Female,20,
31,11,476,10,10,10,['k'],N,Y,['space'],Y,['d'],,,,,,,Female,20,
31,12,477,14,14,10,['k'],Y,N,None,Y,['k'],,,,,,,Female,20,
31,13,478,2,2,10,['d'],N,N,None,Y,['k'],,,,,,,Female,20,
31,14,479,3,3,10,['d'],Y,N,['space'],N,['d'],,,,,,,Female,20,
32,0,480,3,3,10,['d'],Y,Y,['space'],Y,['d'],,,,,,,Female,20,
32,1,481,5,5,10,['d'],Y,Y,['space'],Y,['d'],,,,,,,Female,20,
32,2,482,7,7,10,['d'],N,Y,['space'],Y,['k'],,,,,,,Female,20,
32,3,483,9,9,10,['k'],N,Y,['space'],Y,['d'],,,,,,,Female,20,
32,4,484,8,8,10,['k'],N,N,None,Y,['d'],,,,,,,Female,20,
32,5,485,12,12,10,['k'],Y,Y,['space'],Y,['k'],,,,,,,Female,20,
32,6,486,0,0,10,['d'],Y,N,None,Y,['d'],,,,,,,Female,20,
32,7,487,14,14,10,['k'],N,N,None,Y,['d'],,,,,,,Female,20,
32,8,488,5,5,10,['d'],N,Y,['space'],Y,['k'],,,,,,,Female,20,
32,9,489,14,14,10,['k'],Y,N,None,Y,['k'],,,,,,,Female,20,
32,10,490,8,8,10,['k'],Y,Y,['space'],Y,['k'],,,,,,,Female,20,
32,11,491,7,7,10,['d'],N,Y,['space'],Y,['k'],,,,,,,Female,20,
32,12,492,12,12,10,['k'],Y,N,None,Y,['k'],,,,,,,Female,20,
32,13,493,4,4,10,['d'],N,Y,['space'],Y,['k'],,,,,,,Female,20,
32,14,494,3,3,10,['d'],Y,Y,['space'],Y,['d'],,,,,,,Female,20,
33,0,495,14,14,10,['k'],Y,Y,['space'],Y,['k'],,,,,,,Female,20,
33,1,496,11,11,10,['k'],N,N,None,Y,['d'],,,,,,,Female,20,
33,2,497,10,10,10,['k'],N,Y,['space'],Y,['d'],,,,,,,Female,20,
33,3,498,2,2,10,['k'],Y,Y,['space'],Y,['k'],,,,,,,Female,20,
33,4,499,8,8,10,['d'],Y,N,None,Y,['d'],29,44,23,,,,Female,20,
33,5,500,3,3,11,['k'],Y,,,,['d'],,,,Y,Y,Y,Female,20,
33,6,501,0,0,11,['k'],N,,,,['k'],,,,,Y,Y,Female,20,
33,7,502,12,12,11,['d'],Y,Y,['space'],Y,['k'],,,,,Y,Y,Female,20,
33,8,503,8,8,11,['k'],Y,N,None,Y,['d'],,,,,Y,Y,Female,20,
33,9,504,9,9,11,['k'],N,N,None,Y,['k'],,,,,Y,Y,Female,20,
33,10,505,5,5,11,['k'],Y,N,None,Y,['d'],,,,,Y,Y,Female,20,
33,11,506,8,8,11,['k'],Y,Y,['space'],Y,['d'],,,,,Y,Y,Female,20,
33,12,507,7,7,11,['d'],N,N,None,Y,['d'],,,,,Y,Y,Female,20,
33,13,508,13,13,11,['k'],N,N,None,Y,['k'],,,,,Y,Y,Female,20,
33,14,509,2,2,11,['k'],N,N,None,Y,['k'],,,,,Y,Y,Female,20,
34,0,510,6,6,11,['d'],Y,N,None,Y,['k'],,,,,Y,Y,Female,20,
34,1,511,4,4,11,['d'],N,N,None,Y,['d'],,,,,Y,Y,Female,20,
34,2,512,0,0,11,['k'],N,N,None,Y,['k'],,,,,Y,Y,Female,20,
34,3,513,14,14,11,['k'],Y,Y,['space'],Y,['d'],,,,,Y,Y,Female,20,
34,4,514,5,5,11,['d'],N,N,None,Y,['d'],,,,,Y,Y,Female,20,
34,5,515,4,4,11,['k'],N,Y,['space'],Y,['k'],,,,,Y,Y,Female,20,
34,6,516,7,7,11,['d'],Y,N,None,Y,['k'],,,,,Y,Y,Female,20,
34,7,517,3,3,11,['d'],Y,N,None,Y,['k'],,,,,Y,Y,Female,20,
34,8,518,3,3,11,['k'],Y,N,None,Y,['d'],,,,,Y,Y,Female,20,
34,9,519,10,10,11,['d'],Y,Y,['space'],Y,['k'],,,,,Y,Y,Female,20,
34,10,520,3,3,11,['k'],N,N,None,Y,['k'],,,,,Y,Y,Female,20,
34,11,521,1,1,11,['k'],Y,N,None,Y,['d'],,,,,Y,Y,Female,20,
34,12,522,8,8,11,['k'],Y,N,None,Y,['d'],,,,,Y,Y,Female,20,
34,13,523,6,6,11,['d'],Y,Y,['space'],Y,['k'],,,,,Y,Y,Female,20,
34,14,524,9,9,11,['k'],N,Y,['space'],Y,['k'],,,,,Y,Y,Female,20,
35,0,525,5,5,11,['k'],N,N,None,Y,['k'],,,,,Y,Y,Female,20,
35,1,526,7,7,11,['d'],Y,Y,['space'],Y,['k'],,,,,Y,Y,Female,20,
35,2,527,1,1,11,['k'],N,N,None,Y,['k'],,,,,Y,Y,Female,20,
35,3,528,13,13,11,['d'],N,N,None,Y,['d'],,,,,Y,Y,Female,20,
35,4,529,2,2,11,['k'],Y,Y,['space'],Y,['d'],,,,,Y,Y,Female,20,
35,5,530,10,10,11,['d'],Y,N,None,Y,['k'],,,,,Y,Y,Female,20,
35,6,531,2,2,11,['d'],N,Y,['space'],Y,['d'],,,,,Y,Y,Female,20,
35,7,532,11,11,11,['d'],N,N,None,Y,['d'],,,,,Y,Y,Female,20,
35,8,533,12,12,11,['k'],N,Y,['space'],Y,['k'],,,,,Y,Y,Female,20,
35,9,534,2,2,11,['d'],N,Y,['space'],Y,['d'],,,,,Y,Y,Female,20,
35,10,535,9,9,11,['k'],N,N,None,Y,['k'],,,,,Y,Y,Female,20,
35,11,536,14,14,11,['d'],Y,N,None,Y,['k'],,,,,Y,Y,Female,20,
35,12,537,2,2,11,['d'],N,Y,['space'],Y,['d'],,,,,Y,Y,Female,20,
35,13,538,10,10,11,['d'],N,Y,['space'],Y,['d'],,,,,Y,Y,Female,20,
35,14,539,14,14,11,['k'],Y,Y,['space'],Y,['d'],,,,,Y,Y,Female,20,
36,0,540,8,8,11,['k'],N,Y,['space'],Y,['k'],,,,,Y,Y,Female,20,
36,1,541,0,0,11,['k'],Y,Y,['space'],Y,['d'],,,,,Y,Y,Female,20,
36,2,542,14,14,11,['k'],Y,N,None,Y,['d'],,,,,Y,Y,Female,20,
36,3,543,0,0,11,['d'],Y,Y,['space'],Y,['k'],,,,,Y,Y,Female,20,
36,4,544,9,9,11,['k'],Y,N,None,Y,['d'],,,,,Y,Y,Female,20,
36,5,545,6,6,11,['d'],N,N,None,Y,['d'],,,,,Y,Y,Female,20,
36,6,546,10,10,11,['d'],Y,Y,['space'],Y,['k'],,,,,Y,Y,Female,20,
36,7,547,5,5,11,['d'],Y,N,None,Y,['k'],,,,,Y,Y,Female,20,
36,8,548,11,11,11,['d'],Y,N,None,Y,['k'],,,,,Y,Y,Female,20,
36,9,549,2,2,11,['k'],N,N,None,Y,['k'],26,48,19,,Y,Y,Female,20,
36,10,550,1,1,12,['d'],N,,,,['d'],,,,,Y,Y,Female,20,
36,11,551,10,10,12,['k'],N,,,,['k'],,,,,Y,Y,Female,20,
36,12,552,0,0,12,['k'],Y,N,None,Y,['d'],,,,,Y,Y,Female,20,
36,13,553,4,4,12,['d'],Y,Y,['space'],Y,['k'],,,,,Y,Y,Female,20,
36,14,554,4,4,12,None,Timed out,Y,['space'],Y,,,,,,Y,Y,Female,20,
37,0,555,13,13,12,['k'],Y,N,None,Y,['d'],,,,,Y,Y,Female,20,
37,1,556,1,1,12,['d'],N,Y,['space'],Y,['d'],,,,,Y,Y,Female,20,
37,2,557,2,2,12,['k'],N,N,None,Y,['k'],,,,,Y,Y,Female,20,
37,3,558,0,0,12,['d'],Y,N,None,Y,['k'],,,,,Y,Y,Female,20,
37,4,559,0,0,12,['d'],N,Y,['space'],Y,['d'],,,,,Y,Y,Female,20,
37,5,560,12,12,12,['k'],N,Y,['space'],Y,['k'],,,,,Y,Y,Female,20,
37,6,561,6,6,12,['k'],N,N,None,Y,['k'],,,,,Y,Y,Female,20,
37,7,562,12,12,12,['d'],Y,Y,['space'],Y,['k'],,,,,Y,Y,Female,20,
37,8,563,10,10,12,['d'],Y,Y,['space'],Y,['k'],,,,,Y,Y,Female,20,
37,9,564,9,9,12,['d'],Y,Y,['space'],Y,['k'],,,,,Y,Y,Female,20,
37,10,565,13,13,12,None,Timed out,N,None,Y,,,,,,Y,Y,Female,20,
37,11,566,12,12,12,['d'],N,Y,['space'],Y,['d'],,,,,Y,Y,Female,20,
37,12,567,4,4,12,['d'],N,Y,['space'],Y,['d'],,,,,Y,Y,Female,20,
37,13,568,13,13,12,['k'],N,Y,None,N,['k'],,,,,Y,Y,Female,20,
37,14,569,8,8,12,['k'],Y,N,None,Y,['d'],,,,,Y,Y,Female,20,
38,0,570,1,1,12,['d'],Y,N,None,Y,['k'],,,,,Y,Y,Female,20,
38,1,571,13,13,12,['d'],Y,Y,['space'],Y,['k'],,,,,Y,Y,Female,20,
38,2,572,9,9,12,None,Timed out,Y,['space'],Y,,,,,,Y,Y,Female,20,
38,3,573,10,10,12,['k'],Y,Y,['space'],Y,['d'],,,,,Y,Y,Female,20,
38,4,574,9,9,12,['d'],N,Y,['space'],Y,['d'],,,,,Y,Y,Female,20,
38,5,575,9,9,12,['k'],Y,N,None,Y,['d'],,,,,Y,Y,Female,20,
38,6,576,14,14,12,['k'],Y,Y,['space'],Y,['d'],,,,,Y,Y,Female,20,
38,7,577,6,6,12,['k'],N,N,None,Y,['k'],,,,,Y,Y,Female,20,
38,8,578,13,13,12,['d'],Y,Y,['space'],Y,['k'],,,,,Y,Y,Female,20,
38,9,579,8,8,12,['d'],N,N,None,Y,['d'],,,,,Y,Y,Female,20,
38,10,580,13,13,12,['k'],Y,N,None,Y,['d'],,,,,Y,Y,Female,20,
38,11,581,8,8,12,['d'],N,N,None,Y,['d'],,,,,Y,Y,Female,20,
38,12,582,6,6,12,['k'],N,N,None,Y,['k'],,,,,Y,Y,Female,20,
38,13,583,2,2,12,['k'],Y,N,None,Y,['d'],,,,,Y,Y,Female,20,
38,14,584,12,12,12,['d'],N,Y,['space'],Y,['d'],,,,,Y,Y,Female,20,
39,0,585,9,9,12,['k'],Y,N,None,Y,['d'],,,,,Y,Y,Female,20,
39,1,586,1,1,12,['d'],N,N,None,Y,['d'],,,,,Y,Y,Female,20,
39,2,587,6,6,12,['k'],N,N,None,Y,['k'],,,,,Y,Y,Female,20,
39,3,588,13,13,12,['k'],N,N,None,Y,['k'],,,,,Y,Y,Female,20,
39,4,589,9,9,12,['d'],N,N,None,Y,['d'],,,,,Y,Y,Female,20,
39,5,590,6,6,12,['k'],N,N,None,Y,['k'],,,,,Y,Y,Female,20,
39,6,591,8,8,12,['d'],N,N,None,Y,['d'],,,,,Y,Y,Female,20,
39,7,592,14,14,12,['k'],Y,N,None,Y,['d'],,,,,Y,Y,Female,20,
39,8,593,0,0,12,['d'],Y,Y,['space'],Y,['k'],,,,,Y,Y,Female,20,
39,9,594,4,4,12,['k'],N,Y,['space'],Y,['k'],,,,,Y,Y,Female,20,
39,10,595,11,11,12,['d'],Y,Y,['space'],Y,['k'],,,,,Y,Y,Female,20,
39,11,596,11,11,12,['k'],N,Y,['space'],Y,['k'],,,,,Y,Y,Female,20,
39,12,597,14,14,12,['k'],N,N,None,Y,['k'],,,,,Y,Y,Female,20,
39,13,598,6,6,12,['k'],N,N,None,Y,['k'],,,,,Y,Y,Female,20,
39,14,599,9,9,12,['d'],Y,Y,None,N,['k'],21,46,23,,Y,Y,Female,20,
