.thisRepN,.thisTrialN,.thisN,.thisIndex,.thisTrial,Block Number,Key pressed,Category,Correct?,Int Match?,Int Response,Int Correct?,Line Accuracy,Interference Accuracy,Matching Interferences,New instruction shown?,Buttons switched?,Fast?,gender,age,
0,0,0,13,13,1,['d'],['d'],Y,,,,,,,,,,female,21,
0,1,1,10,10,1,['k'],['k'],Y,,,,,,,,,,female,21,
0,2,2,5,5,1,['d'],['k'],N,N,None,Y,,,,,,,female,21,
0,3,3,11,11,1,['d'],['k'],N,N,None,Y,,,,,,,female,21,
0,4,4,9,9,1,['k'],['k'],Y,N,['space'],N,,,,,,,female,21,
0,5,5,9,9,1,['d'],['d'],Y,N,['space'],N,,,,,,,female,21,
0,6,6,0,0,1,['d'],['d'],Y,Y,['space'],Y,,,,,,,female,21,
0,7,7,8,8,1,['k'],['k'],Y,N,None,Y,,,,,,,female,21,
0,8,8,11,11,1,['d'],['d'],Y,Y,None,N,,,,,,,female,21,
0,9,9,4,4,1,['d'],['d'],Y,Y,None,N,,,,,,,female,21,
0,10,10,8,8,1,['d'],['d'],Y,N,['space'],N,,,,,,,female,21,
0,11,11,8,8,1,['k'],['d'],N,Y,['space'],Y,,,,,,,female,21,
0,12,12,6,6,1,['k'],['k'],Y,N,None,Y,,,,,,,female,21,
0,13,13,12,12,1,['d'],['d'],Y,N,None,Y,,,,,,,female,21,
0,14,14,8,8,1,['d'],['d'],Y,N,None,Y,,,,,,,female,21,
1,0,15,6,6,1,['k'],['k'],Y,N,['space'],N,,,,,,,female,21,
1,1,16,14,14,1,['d'],['d'],Y,Y,None,N,,,,,,,female,21,
1,2,17,3,3,1,['k'],['d'],N,Y,['space'],Y,,,,,,,female,21,
1,3,18,9,9,1,['d'],['d'],Y,N,None,Y,,,,,,,female,21,
1,4,19,5,5,1,['d'],['d'],Y,N,['space'],N,,,,,,,female,21,
1,5,20,7,7,1,['k'],['k'],Y,N,['space'],N,,,,,,,female,21,
1,6,21,10,10,1,['k'],['k'],Y,N,['space'],N,,,,,,,female,21,
1,7,22,6,6,1,['k'],['d'],N,Y,None,N,,,,,,,female,21,
1,8,23,10,10,1,['d'],['d'],Y,Y,['space'],Y,,,,,,,female,21,
1,9,24,9,9,1,['k'],['k'],Y,Y,None,N,,,,,,,female,21,
1,10,25,11,11,1,['k'],['k'],Y,Y,None,N,,,,,,,female,21,
1,11,26,11,11,1,['k'],['k'],Y,N,None,Y,,,,,,,female,21,
1,12,27,12,12,1,['d'],['d'],Y,N,None,Y,,,,,,,female,21,
1,13,28,2,2,1,['k'],['k'],Y,N,None,Y,,,,,,,female,21,
1,14,29,8,8,1,['k'],['k'],Y,N,['space'],N,,,,,,,female,21,
2,0,30,10,10,1,['d'],['d'],Y,N,['space'],N,,,,,,,female,21,
2,1,31,13,13,1,['d'],['d'],Y,N,['space'],N,,,,,,,female,21,
2,2,32,8,8,1,['d'],['d'],Y,Y,None,N,,,,,,,female,21,
2,3,33,5,5,1,['d'],['d'],Y,N,None,Y,,,,,,,female,21,
2,4,34,3,3,1,['d'],['d'],Y,N,None,Y,,,,,,,female,21,
2,5,35,8,8,1,['d'],['d'],Y,N,['space'],N,,,,,,,female,21,
2,6,36,7,7,1,['d'],['d'],Y,N,['space'],N,,,,,,,female,21,
2,7,37,5,5,1,['d'],['d'],Y,Y,['space'],Y,,,,,,,female,21,
2,8,38,1,1,1,['k'],['k'],Y,N,None,Y,,,,,,,female,21,
2,9,39,6,6,1,['d'],['d'],Y,Y,None,N,,,,,,,female,21,
2,10,40,12,12,1,['d'],['d'],Y,Y,None,N,,,,,,,female,21,
2,11,41,8,8,1,['k'],['k'],Y,Y,['space'],Y,,,,,,,female,21,
2,12,42,13,13,1,['d'],['d'],Y,Y,['space'],Y,,,,,,,female,21,
2,13,43,6,6,1,['d'],['d'],Y,N,None,Y,,,,,,,female,21,
2,14,44,9,9,1,['k'],['k'],Y,Y,['space'],Y,,,,,,,female,21,
3,0,45,0,0,1,['d'],['d'],Y,Y,None,N,,,,,,,female,21,
3,1,46,10,10,1,['k'],['k'],Y,N,None,Y,,,,,,,female,21,
3,2,47,12,12,1,['d'],['d'],Y,N,None,Y,,,,,,,female,21,
3,3,48,13,13,1,['d'],['d'],Y,N,['space'],N,,,,,,,female,21,
3,4,49,9,9,1,['k'],['k'],Y,N,None,Y,45,25,18,,,,female,21,
3,5,50,0,0,2,['k'],['k'],Y,,,,,,,,,,female,21,
3,6,51,13,13,2,['k'],['k'],Y,,,,,,,,,,female,21,
3,7,52,4,4,2,['d'],['d'],Y,Y,['space'],Y,,,,,,,female,21,
3,8,53,4,4,2,['k'],['k'],Y,Y,['space'],Y,,,,,,,female,21,
3,9,54,9,9,2,['d'],['k'],N,Y,['space'],Y,,,,,,,female,21,
3,10,55,0,0,2,['k'],['k'],Y,N,None,Y,,,,,,,female,21,
3,11,56,14,14,2,['k'],['k'],Y,N,None,Y,,,,,,,female,21,
3,12,57,13,13,2,['d'],['d'],Y,Y,['space'],Y,,,,,,,female,21,
3,13,58,12,12,2,['d'],['d'],Y,N,None,Y,,,,,,,female,21,
3,14,59,6,6,2,['d'],['d'],Y,N,['space'],N,,,,,,,female,21,
4,0,60,6,6,2,['k'],['k'],Y,N,['space'],N,,,,,,,female,21,
4,1,61,10,10,2,['d'],['d'],Y,N,None,Y,,,,,,,female,21,
4,2,62,5,5,2,['k'],['k'],Y,N,None,Y,,,,,,,female,21,
4,3,63,11,11,2,['k'],['k'],Y,Y,None,N,,,,,,,female,21,
4,4,64,13,13,2,['d'],['d'],Y,N,None,Y,,,,,,,female,21,
4,5,65,0,0,2,['d'],['d'],Y,N,['space'],N,,,,,,,female,21,
4,6,66,14,14,2,['k'],['k'],Y,Y,None,N,,,,,,,female,21,
4,7,67,12,12,2,['k'],['k'],Y,Y,['space'],Y,,,,,,,female,21,
4,8,68,11,11,2,['d'],['d'],Y,Y,['space'],Y,,,,,,,female,21,
4,9,69,4,4,2,['k'],['k'],Y,N,None,Y,,,,,,,female,21,
4,10,70,13,13,2,['d'],['d'],Y,N,['space'],N,,,,,,,female,21,
4,11,71,9,9,2,['d'],['d'],Y,N,None,Y,,,,,,,female,21,
4,12,72,14,14,2,['k'],['k'],Y,Y,None,N,,,,,,,female,21,
4,13,73,14,14,2,['d'],['d'],Y,N,['space'],N,,,,,,,female,21,
4,14,74,13,13,2,['k'],['k'],Y,N,['space'],N,,,,,,,female,21,
5,0,75,14,14,2,['k'],['k'],Y,Y,None,N,,,,,,,female,21,
5,1,76,1,1,2,['k'],['k'],Y,N,None,Y,,,,,,,female,21,
5,2,77,14,14,2,['k'],['k'],Y,Y,['space'],Y,,,,,,,female,21,
5,3,78,0,0,2,['k'],['k'],Y,Y,['space'],Y,,,,,,,female,21,
5,4,79,6,6,2,['k'],['k'],Y,N,None,Y,,,,,,,female,21,
5,5,80,1,1,2,['k'],['k'],Y,N,None,Y,,,,,,,female,21,
5,6,81,7,7,2,['d'],['k'],N,N,None,Y,,,,,,,female,21,
5,7,82,2,2,2,['k'],['k'],Y,Y,['space'],Y,,,,,,,female,21,
5,8,83,10,10,2,['k'],['k'],Y,N,None,Y,,,,,,,female,21,
5,9,84,13,13,2,['d'],['d'],Y,N,None,Y,,,,,,,female,21,
5,10,85,4,4,2,['k'],['k'],Y,Y,['space'],Y,,,,,,,female,21,
5,11,86,8,8,2,['d'],['k'],N,N,None,Y,,,,,,,female,21,
5,12,87,3,3,2,['k'],['k'],Y,Y,None,N,,,,,,,female,21,
5,13,88,1,1,2,['k'],['k'],Y,N,None,Y,,,,,,,female,21,
5,14,89,5,5,2,['k'],['k'],Y,Y,['space'],Y,,,,,,,female,21,
6,0,90,8,8,2,['d'],['d'],Y,N,None,Y,,,,,,,female,21,
6,1,91,2,2,2,['d'],['d'],Y,N,None,Y,,,,,,,female,21,
6,2,92,10,10,2,['d'],['d'],Y,Y,['space'],Y,,,,,,,female,21,
6,3,93,11,11,2,['d'],['d'],Y,Y,['space'],Y,,,,,,,female,21,
6,4,94,7,7,2,['k'],['k'],Y,N,None,Y,,,,,,,female,21,
6,5,95,2,2,2,['d'],['d'],Y,N,None,Y,,,,,,,female,21,
6,6,96,3,3,2,['k'],['k'],Y,N,None,Y,,,,,,,female,21,
6,7,97,14,14,2,['k'],['k'],Y,N,None,Y,,,,,,,female,21,
6,8,98,11,11,2,['k'],['k'],Y,Y,['space'],Y,,,,,,,female,21,
6,9,99,2,2,2,['d'],['d'],Y,Y,['space'],Y,47,37,20,,,,female,21,
6,10,100,4,4,3,['d'],['d'],Y,,,,,,,,,,female,21,
6,11,101,13,13,3,['k'],['k'],Y,,,,,,,,,,female,21,
6,12,102,13,13,3,['d'],['d'],Y,Y,['space'],Y,,,,,,,female,21,
6,13,103,4,4,3,['k'],['k'],Y,Y,['space'],Y,,,,,,,female,21,
6,14,104,11,11,3,['d'],['d'],Y,Y,['space'],Y,,,,,,,female,21,
7,0,105,7,7,3,['k'],['k'],Y,N,None,Y,,,,,,,female,21,
7,1,106,9,9,3,['d'],['d'],Y,Y,['space'],Y,,,,,,,female,21,
7,2,107,6,6,3,['k'],['k'],Y,Y,['space'],Y,,,,,,,female,21,
7,3,108,2,2,3,['d'],['d'],Y,Y,['space'],Y,,,,,,,female,21,
7,4,109,7,7,3,['d'],['d'],Y,Y,['space'],Y,,,,,,,female,21,
7,5,110,6,6,3,['d'],['d'],Y,Y,['space'],Y,,,,,,,female,21,
7,6,111,5,5,3,['d'],['d'],Y,N,None,Y,,,,,,,female,21,
7,7,112,8,8,3,['k'],['k'],Y,Y,['space'],Y,,,,,,,female,21,
7,8,113,3,3,3,['k'],['k'],Y,Y,['space'],Y,,,,,,,female,21,
7,9,114,6,6,3,['d'],['d'],Y,N,None,Y,,,,,,,female,21,
7,10,115,7,7,3,['k'],['d'],N,N,['space'],N,,,,,,,female,21,
7,11,116,9,9,3,['d'],['d'],Y,Y,['space'],Y,,,,,,,female,21,
7,12,117,11,11,3,['d'],['d'],Y,Y,['space'],Y,,,,,,,female,21,
7,13,118,10,10,3,['d'],['k'],N,N,None,Y,,,,,,,female,21,
7,14,119,14,14,3,['k'],['k'],Y,Y,['space'],Y,,,,,,,female,21,
8,0,120,10,10,3,['k'],['k'],Y,N,None,Y,,,,,,,female,21,
8,1,121,1,1,3,['k'],['k'],Y,N,None,Y,,,,,,,female,21,
8,2,122,14,14,3,['d'],['d'],Y,Y,None,N,,,,,,,female,21,
8,3,123,3,3,3,['k'],['k'],Y,Y,None,N,,,,,,,female,21,
8,4,124,12,12,3,['k'],['k'],Y,N,None,Y,,,,,,,female,21,
8,5,125,5,5,3,['d'],['d'],Y,Y,['space'],Y,,,,,,,female,21,
8,6,126,4,4,3,['d'],['d'],Y,N,None,Y,,,,,,,female,21,
8,7,127,3,3,3,['k'],['k'],Y,Y,['space'],Y,,,,,,,female,21,
8,8,128,9,9,3,['d'],['d'],Y,Y,['space'],Y,,,,,,,female,21,
8,9,129,1,1,3,['k'],['k'],Y,N,None,Y,,,,,,,female,21,
8,10,130,3,3,3,['k'],['k'],Y,Y,['space'],Y,,,,,,,female,21,
8,11,131,10,10,3,['d'],['d'],Y,Y,['space'],Y,,,,,,,female,21,
8,12,132,10,10,3,['k'],['k'],Y,Y,['space'],Y,,,,,,,female,21,
8,13,133,10,10,3,['d'],['d'],Y,N,None,Y,,,,,,,female,21,
8,14,134,10,10,3,['d'],['d'],Y,N,None,Y,,,,,,,female,21,
9,0,135,7,7,3,['k'],['k'],Y,N,None,Y,,,,,,,female,21,
9,1,136,1,1,3,['d'],['d'],Y,Y,['space'],Y,,,,,,,female,21,
9,2,137,11,11,3,['k'],['k'],Y,Y,['space'],Y,,,,,,,female,21,
9,3,138,6,6,3,['d'],['d'],Y,Y,None,N,,,,,,,female,21,
9,4,139,3,3,3,['d'],['d'],Y,Y,None,N,,,,,,,female,21,
9,5,140,8,8,3,['k'],['k'],Y,N,None,Y,,,,,,,female,21,
9,6,141,12,12,3,['d'],['d'],Y,N,None,Y,,,,,,,female,21,
9,7,142,5,5,3,['d'],['d'],Y,N,None,Y,,,,,,,female,21,
9,8,143,13,13,3,['d'],['d'],Y,N,None,Y,,,,,,,female,21,
9,9,144,6,6,3,['k'],['k'],Y,N,None,Y,,,,,,,female,21,
9,10,145,6,6,3,['k'],['k'],Y,N,None,Y,,,,,,,female,21,
9,11,146,8,8,3,['d'],['d'],Y,N,None,Y,,,,,,,female,21,
9,12,147,13,13,3,['d'],['d'],Y,N,['space'],N,,,,,,,female,21,
9,13,148,0,0,3,['d'],['d'],Y,N,None,Y,,,,,,,female,21,
9,14,149,7,7,3,['d'],['d'],Y,N,None,Y,48,42,25,,,,female,21,
10,0,150,14,14,4,['k'],['k'],Y,,,,,,,,,,female,21,
10,1,151,13,13,4,['k'],['k'],Y,,,,,,,,,,female,21,
10,2,152,11,11,4,['k'],['k'],Y,N,None,Y,,,,,,,female,21,
10,3,153,11,11,4,['d'],['d'],Y,Y,['space'],Y,,,,,,,female,21,
10,4,154,3,3,4,['k'],['k'],Y,N,None,Y,,,,,,,female,21,
10,5,155,3,3,4,['k'],['k'],Y,N,None,Y,,,,,,,female,21,
10,6,156,6,6,4,['k'],['k'],Y,N,None,Y,,,,,,,female,21,
10,7,157,7,7,4,['k'],['k'],Y,N,None,Y,,,,,,,female,21,
10,8,158,8,8,4,['k'],['k'],Y,Y,['space'],Y,,,,,,,female,21,
10,9,159,7,7,4,['d'],['d'],Y,N,None,Y,,,,,,,female,21,
10,10,160,14,14,4,['k'],['k'],Y,Y,['space'],Y,,,,,,,female,21,
10,11,161,0,0,4,['d'],['k'],N,N,None,Y,,,,,,,female,21,
10,12,162,3,3,4,['d'],['d'],Y,Y,['space'],Y,,,,,,,female,21,
10,13,163,0,0,4,['k'],['k'],Y,N,None,Y,,,,,,,female,21,
10,14,164,10,10,4,['d'],['d'],Y,Y,['space'],Y,,,,,,,female,21,
11,0,165,11,11,4,['k'],['k'],Y,N,None,Y,,,,,,,female,21,
11,1,166,1,1,4,['d'],['d'],Y,N,None,Y,,,,,,,female,21,
11,2,167,12,12,4,['d'],['d'],Y,N,None,Y,,,,,,,female,21,
11,3,168,13,13,4,['d'],['d'],Y,N,None,Y,,,,,,,female,21,
11,4,169,8,8,4,['k'],['k'],Y,N,None,Y,,,,,,,female,21,
11,5,170,6,6,4,['k'],['k'],Y,Y,None,N,,,,,,,female,21,
11,6,171,4,4,4,['k'],['k'],Y,Y,['space'],Y,,,,,,,female,21,
11,7,172,4,4,4,['k'],['k'],Y,Y,['space'],Y,,,,,,,female,21,
11,8,173,9,9,4,['k'],['k'],Y,Y,['space'],Y,,,,,,,female,21,
11,9,174,7,7,4,['k'],['k'],Y,N,None,Y,,,,,,,female,21,
11,10,175,13,13,4,['k'],['d'],N,N,['space'],N,,,,,,,female,21,
11,11,176,12,12,4,['k'],['k'],Y,N,None,Y,,,,,,,female,21,
11,12,177,2,2,4,['k'],['k'],Y,N,None,Y,,,,,,,female,21,
11,13,178,0,0,4,['d'],['d'],Y,Y,['space'],Y,,,,,,,female,21,
11,14,179,8,8,4,['d'],['d'],Y,N,None,Y,,,,,,,female,21,
12,0,180,5,5,4,['d'],['d'],Y,N,None,Y,,,,,,,female,21,
12,1,181,0,0,4,['k'],['k'],Y,N,None,Y,,,,,,,female,21,
12,2,182,4,4,4,['k'],['k'],Y,N,None,Y,,,,,,,female,21,
12,3,183,4,4,4,['d'],['d'],Y,N,None,Y,,,,,,,female,21,
12,4,184,1,1,4,['k'],['k'],Y,N,None,Y,,,,,,,female,21,
12,5,185,6,6,4,['k'],['k'],Y,N,None,Y,,,,,,,female,21,
12,6,186,11,11,4,['d'],['d'],Y,Y,None,N,,,,,,,female,21,
12,7,187,6,6,4,['d'],['d'],Y,Y,['space'],Y,,,,,,,female,21,
12,8,188,5,5,4,['k'],['k'],Y,Y,['space'],Y,,,,,,,female,21,
12,9,189,4,4,4,['d'],['d'],Y,Y,['space'],Y,,,,,,,female,21,
12,10,190,3,3,4,['k'],['d'],N,N,None,Y,,,,,,,female,21,
12,11,191,3,3,4,['d'],['d'],Y,N,None,Y,,,,,,,female,21,
12,12,192,4,4,4,['d'],['d'],Y,N,['space'],N,,,,,,,female,21,
12,13,193,9,9,4,['d'],['d'],Y,Y,['space'],Y,,,,,,,female,21,
12,14,194,2,2,4,['d'],['d'],Y,N,None,Y,,,,,,,female,21,
13,0,195,0,0,4,['k'],['k'],Y,Y,['space'],Y,,,,,,,female,21,
13,1,196,12,12,4,['d'],['d'],Y,N,['space'],N,,,,,,,female,21,
13,2,197,4,4,4,['k'],['k'],Y,Y,['space'],Y,,,,,,,female,21,
13,3,198,4,4,4,['d'],['d'],Y,N,None,Y,,,,,,,female,21,
13,4,199,2,2,4,['d'],['d'],Y,Y,['space'],Y,47,43,18,,,,female,21,
13,5,200,7,7,5,['d'],['d'],Y,,,,,,,,,,female,21,
13,6,201,14,14,5,['d'],['d'],Y,,,,,,,,,,female,21,
13,7,202,12,12,5,['k'],['k'],Y,Y,['space'],Y,,,,,,,female,21,
13,8,203,1,1,5,['d'],['d'],Y,Y,['space'],Y,,,,,,,female,21,
13,9,204,0,0,5,['k'],['k'],Y,Y,['space'],Y,,,,,,,female,21,
13,10,205,0,0,5,['k'],['k'],Y,N,None,Y,,,,,,,female,21,
13,11,206,10,10,5,['d'],['d'],Y,Y,['space'],Y,,,,,,,female,21,
13,12,207,10,10,5,['d'],['d'],Y,Y,['space'],Y,,,,,,,female,21,
13,13,208,2,2,5,['d'],['d'],Y,N,None,Y,,,,,,,female,21,
13,14,209,0,0,5,['d'],['d'],Y,Y,['space'],Y,,,,,,,female,21,
14,0,210,13,13,5,['d'],['d'],Y,Y,['space'],Y,,,,,,,female,21,
14,1,211,7,7,5,['k'],['k'],Y,N,None,Y,,,,,,,female,21,
14,2,212,2,2,5,['d'],['d'],Y,N,None,Y,,,,,,,female,21,
14,3,213,2,2,5,['d'],['d'],Y,Y,['space'],Y,,,,,,,female,21,
14,4,214,0,0,5,['k'],['k'],Y,Y,['space'],Y,,,,,,,female,21,
14,5,215,9,9,5,['k'],['k'],Y,N,None,Y,,,,,,,female,21,
14,6,216,7,7,5,['d'],['d'],Y,N,None,Y,,,,,,,female,21,
14,7,217,8,8,5,['d'],['d'],Y,N,None,Y,,,,,,,female,21,
14,8,218,14,14,5,['k'],['k'],Y,Y,['space'],Y,,,,,,,female,21,
14,9,219,0,0,5,['d'],['d'],Y,Y,['space'],Y,,,,,,,female,21,
14,10,220,0,0,5,['d'],['d'],Y,N,None,Y,,,,,,,female,21,
14,11,221,10,10,5,['d'],['d'],Y,Y,['space'],Y,,,,,,,female,21,
14,12,222,9,9,5,['d'],['d'],Y,Y,['space'],Y,,,,,,,female,21,
14,13,223,3,3,5,['k'],['k'],Y,N,None,Y,,,,,,,female,21,
14,14,224,10,10,5,['d'],['d'],Y,N,None,Y,,,,,,,female,21,
15,0,225,13,13,5,['k'],['k'],Y,Y,['space'],Y,,,,,,,female,21,
15,1,226,4,4,5,['k'],['k'],Y,Y,['space'],Y,,,,,,,female,21,
15,2,227,3,3,5,['k'],['k'],Y,N,None,Y,,,,,,,female,21,
15,3,228,12,12,5,['d'],['d'],Y,N,None,Y,,,,,,,female,21,
15,4,229,1,1,5,['d'],['d'],Y,N,None,Y,,,,,,,female,21,
15,5,230,12,12,5,['d'],['d'],Y,Y,['space'],Y,,,,,,,female,21,
15,6,231,6,6,5,['d'],['d'],Y,N,None,Y,,,,,,,female,21,
15,7,232,5,5,5,['k'],['k'],Y,N,['space'],N,,,,,,,female,21,
15,8,233,11,11,5,['k'],['k'],Y,Y,['space'],Y,,,,,,,female,21,
15,9,234,1,1,5,['k'],['k'],Y,N,['space'],N,,,,,,,female,21,
15,10,235,0,0,5,['k'],['k'],Y,Y,['space'],Y,,,,,,,female,21,
15,11,236,14,14,5,['k'],['k'],Y,Y,['space'],Y,,,,,,,female,21,
15,12,237,10,10,5,['k'],['k'],Y,Y,['space'],Y,,,,,,,female,21,
15,13,238,13,13,5,['k'],['k'],Y,Y,['space'],Y,,,,,,,female,21,
15,14,239,11,11,5,['k'],['k'],Y,Y,['space'],Y,,,,,,,female,21,
16,0,240,5,5,5,['d'],['d'],Y,N,['space'],N,,,,,,,female,21,
16,1,241,7,7,5,['k'],['k'],Y,Y,['space'],Y,,,,,,,female,21,
16,2,242,0,0,5,['k'],['k'],Y,Y,['space'],Y,,,,,,,female,21,
16,3,243,6,6,5,['k'],['k'],Y,Y,['space'],Y,,,,,,,female,21,
16,4,244,9,9,5,['d'],['d'],Y,N,None,Y,,,,,,,female,21,
16,5,245,1,1,5,['d'],['d'],Y,N,['space'],N,,,,,,,female,21,
16,6,246,14,14,5,['k'],['k'],Y,N,['space'],N,,,,,,,female,21,
16,7,247,14,14,5,['k'],['k'],Y,N,None,Y,,,,,,,female,21,
16,8,248,9,9,5,['d'],['d'],Y,N,None,Y,,,,,,,female,21,
16,9,249,13,13,5,['d'],['d'],Y,N,None,Y,50,43,25,,,,female,21,
16,10,250,5,5,6,['d'],['d'],Y,,,,,,,,,,female,21,
16,11,251,1,1,6,['k'],['k'],Y,,,,,,,,,,female,21,
16,12,252,3,3,6,['d'],['d'],Y,Y,['space'],Y,,,,,,,female,21,
16,13,253,4,4,6,['k'],['k'],Y,N,None,Y,,,,,,,female,21,
16,14,254,10,10,6,['k'],['k'],Y,Y,['space'],Y,,,,,,,female,21,
17,0,255,5,5,6,['k'],['k'],Y,N,None,Y,,,,,,,female,21,
17,1,256,13,13,6,['k'],['k'],Y,N,None,Y,,,,,,,female,21,
17,2,257,10,10,6,['d'],['d'],Y,Y,['space'],Y,,,,,,,female,21,
17,3,258,11,11,6,['k'],['k'],Y,Y,['space'],Y,,,,,,,female,21,
17,4,259,8,8,6,['d'],['d'],Y,N,None,Y,,,,,,,female,21,
17,5,260,10,10,6,['k'],['k'],Y,N,None,Y,,,,,,,female,21,
17,6,261,6,6,6,['k'],['k'],Y,Y,['space'],Y,,,,,,,female,21,
17,7,262,9,9,6,['d'],['d'],Y,Y,['space'],Y,,,,,,,female,21,
17,8,263,3,3,6,['k'],['k'],Y,Y,['space'],Y,,,,,,,female,21,
17,9,264,6,6,6,['k'],['k'],Y,Y,['space'],Y,,,,,,,female,21,
17,10,265,7,7,6,['k'],['k'],Y,N,None,Y,,,,,,,female,21,
17,11,266,12,12,6,['k'],['k'],Y,N,None,Y,,,,,,,female,21,
17,12,267,7,7,6,['k'],['k'],Y,N,None,Y,,,,,,,female,21,
17,13,268,12,12,6,['d'],['d'],Y,N,None,Y,,,,,,,female,21,
17,14,269,5,5,6,['d'],['k'],N,Y,['space'],Y,,,,,,,female,21,
18,0,270,7,7,6,['d'],['d'],Y,N,None,Y,,,,,,,female,21,
18,1,271,1,1,6,['k'],['k'],Y,Y,['space'],Y,,,,,,,female,21,
18,2,272,12,12,6,['k'],['k'],Y,Y,['space'],Y,,,,,,,female,21,
18,3,273,8,8,6,['d'],['d'],Y,N,None,Y,,,,,,,female,21,
18,4,274,3,3,6,['k'],['k'],Y,N,None,Y,,,,,,,female,21,
18,5,275,0,0,6,['d'],['d'],Y,N,None,Y,,,,,,,female,21,
18,6,276,0,0,6,['d'],['d'],Y,Y,None,N,,,,,,,female,21,
18,7,277,3,3,6,['k'],['k'],Y,Y,['space'],Y,,,,,,,female,21,
18,8,278,8,8,6,['d'],['d'],Y,Y,['space'],Y,,,,,,,female,21,
18,9,279,4,4,6,['k'],['k'],Y,Y,['space'],Y,,,,,,,female,21,
18,10,280,11,11,6,['k'],['k'],Y,Y,['space'],Y,,,,,,,female,21,
18,11,281,14,14,6,['d'],['d'],Y,Y,['space'],Y,,,,,,,female,21,
18,12,282,5,5,6,['k'],['k'],Y,Y,['space'],Y,,,,,,,female,21,
18,13,283,2,2,6,['d'],['d'],Y,N,None,Y,,,,,,,female,21,
18,14,284,12,12,6,['k'],['k'],Y,Y,['space'],Y,,,,,,,female,21,
19,0,285,9,9,6,['d'],['d'],Y,Y,['space'],Y,,,,,,,female,21,
19,1,286,6,6,6,['d'],['d'],Y,Y,['space'],Y,,,,,,,female,21,
19,2,287,8,8,6,['k'],['k'],Y,Y,['space'],Y,,,,,,,female,21,
19,3,288,12,12,6,['k'],['k'],Y,Y,['space'],Y,,,,,,,female,21,
19,4,289,10,10,6,['d'],['d'],Y,N,None,Y,,,,,,,female,21,
19,5,290,3,3,6,['d'],['d'],Y,Y,['space'],Y,,,,,,,female,21,
19,6,291,11,11,6,['k'],['k'],Y,Y,['space'],Y,,,,,,,female,21,
19,7,292,14,14,6,['k'],['k'],Y,N,None,Y,,,,,,,female,21,
19,8,293,11,11,6,['k'],['k'],Y,N,None,Y,,,,,,,female,21,
19,9,294,1,1,6,['d'],['d'],Y,N,None,Y,,,,,,,female,21,
19,10,295,11,11,6,['k'],['k'],Y,N,None,Y,,,,,,,female,21,
19,11,296,5,5,6,['d'],['d'],Y,N,None,Y,,,,,,,female,21,
19,12,297,6,6,6,['k'],['k'],Y,N,None,Y,,,,,,,female,21,
19,13,298,2,2,6,['d'],['d'],Y,N,None,Y,,,,,,,female,21,
19,14,299,0,0,6,['k'],['k'],Y,N,None,Y,49,47,25,,,,female,21,
20,0,300,9,9,7,['k'],['k'],Y,,,,,,,,,,female,21,
20,1,301,9,9,7,['d'],['d'],Y,,,,,,,,,,female,21,
20,2,302,4,4,7,['d'],['d'],Y,Y,['space'],Y,,,,,,,female,21,
20,3,303,8,8,7,['d'],['d'],Y,N,None,Y,,,,,,,female,21,
20,4,304,0,0,7,['k'],['k'],Y,N,None,Y,,,,,,,female,21,
20,5,305,5,5,7,['d'],['d'],Y,Y,['space'],Y,,,,,,,female,21,
20,6,306,7,7,7,['d'],['d'],Y,N,None,Y,,,,,,,female,21,
20,7,307,9,9,7,['d'],['d'],Y,N,None,Y,,,,,,,female,21,
20,8,308,11,11,7,['k'],['k'],Y,N,None,Y,,,,,,,female,21,
20,9,309,14,14,7,['d'],['d'],Y,Y,['space'],Y,,,,,,,female,21,
20,10,310,14,14,7,['k'],['k'],Y,Y,['space'],Y,,,,,,,female,21,
20,11,311,9,9,7,['k'],['k'],Y,N,None,Y,,,,,,,female,21,
20,12,312,11,11,7,['d'],['d'],Y,N,None,Y,,,,,,,female,21,
20,13,313,7,7,7,['d'],['d'],Y,N,None,Y,,,,,,,female,21,
20,14,314,1,1,7,['d'],['d'],Y,N,['space'],N,,,,,,,female,21,
21,0,315,12,12,7,['k'],['k'],Y,Y,['space'],Y,,,,,,,female,21,
21,1,316,0,0,7,['d'],['d'],Y,N,['space'],N,,,,,,,female,21,
21,2,317,6,6,7,['k'],['k'],Y,Y,['space'],Y,,,,,,,female,21,
21,3,318,2,2,7,['k'],['k'],Y,N,None,Y,,,,,,,female,21,
21,4,319,14,14,7,['d'],['d'],Y,N,None,Y,,,,,,,female,21,
21,5,320,8,8,7,['d'],['d'],Y,Y,['space'],Y,,,,,,,female,21,
21,6,321,4,4,7,['k'],['k'],Y,N,None,Y,,,,,,,female,21,
21,7,322,4,4,7,['d'],['d'],Y,Y,['space'],Y,,,,,,,female,21,
21,8,323,4,4,7,['d'],['d'],Y,N,None,Y,,,,,,,female,21,
21,9,324,11,11,7,['k'],['k'],Y,N,None,Y,,,,,,,female,21,
21,10,325,9,9,7,['d'],['d'],Y,N,None,Y,,,,,,,female,21,
21,11,326,3,3,7,['d'],['d'],Y,Y,['space'],Y,,,,,,,female,21,
21,12,327,5,5,7,['k'],['k'],Y,N,None,Y,,,,,,,female,21,
21,13,328,8,8,7,['k'],['k'],Y,N,None,Y,,,,,,,female,21,
21,14,329,14,14,7,['d'],['d'],Y,N,None,Y,,,,,,,female,21,
22,0,330,12,12,7,['d'],['d'],Y,Y,['space'],Y,,,,,,,female,21,
22,1,331,3,3,7,['k'],['k'],Y,N,None,Y,,,,,,,female,21,
22,2,332,8,8,7,['d'],['d'],Y,Y,['space'],Y,,,,,,,female,21,
22,3,333,8,8,7,['k'],['k'],Y,Y,['space'],Y,,,,,,,female,21,
22,4,334,14,14,7,['k'],['k'],Y,N,None,Y,,,,,,,female,21,
22,5,335,2,2,7,['d'],['k'],N,N,None,Y,,,,,,,female,21,
22,6,336,2,2,7,['d'],['d'],Y,Y,['space'],Y,,,,,,,female,21,
22,7,337,2,2,7,['k'],['k'],Y,Y,None,N,,,,,,,female,21,
22,8,338,4,4,7,['k'],['k'],Y,Y,['space'],Y,,,,,,,female,21,
22,9,339,10,10,7,['k'],['k'],Y,N,None,Y,,,,,,,female,21,
22,10,340,13,13,7,['d'],['d'],Y,N,None,Y,,,,,,,female,21,
22,11,341,5,5,7,['d'],['d'],Y,Y,['space'],Y,,,,,,,female,21,
22,12,342,1,1,7,['d'],['d'],Y,N,None,Y,,,,,,,female,21,
22,13,343,7,7,7,['d'],['d'],Y,N,None,Y,,,,,,,female,21,
22,14,344,14,14,7,['k'],['k'],Y,Y,['space'],Y,,,,,,,female,21,
23,0,345,1,1,7,['k'],['k'],Y,N,None,Y,,,,,,,female,21,
23,1,346,5,5,7,['d'],['d'],Y,Y,['space'],Y,,,,,,,female,21,
23,2,347,14,14,7,['d'],['d'],Y,Y,['space'],Y,,,,,,,female,21,
23,3,348,8,8,7,['d'],['d'],Y,N,None,Y,,,,,,,female,21,
23,4,349,1,1,7,['k'],['k'],Y,Y,['space'],Y,49,45,20,,,,female,21,
23,5,350,9,9,8,['d'],['d'],Y,,,,,,,,,,female,21,
23,6,351,0,0,8,['d'],['d'],Y,,,,,,,,,,female,21,
23,7,352,13,13,8,['k'],['k'],Y,Y,['space'],Y,,,,,,,female,21,
23,8,353,2,2,8,['d'],['d'],Y,N,None,Y,,,,,,,female,21,
23,9,354,11,11,8,['d'],['d'],Y,Y,['space'],Y,,,,,,,female,21,
23,10,355,10,10,8,['k'],['k'],Y,Y,['space'],Y,,,,,,,female,21,
23,11,356,6,6,8,['k'],['k'],Y,N,None,Y,,,,,,,female,21,
23,12,357,3,3,8,['d'],['k'],N,Y,['space'],Y,,,,,,,female,21,
23,13,358,3,3,8,['k'],['k'],Y,Y,['space'],Y,,,,,,,female,21,
23,14,359,9,9,8,['k'],['k'],Y,Y,['space'],Y,,,,,,,female,21,
24,0,360,10,10,8,['k'],['k'],Y,N,None,Y,,,,,,,female,21,
24,1,361,2,2,8,['k'],['k'],Y,Y,['space'],Y,,,,,,,female,21,
24,2,362,11,11,8,['d'],['d'],Y,N,None,Y,,,,,,,female,21,
24,3,363,1,1,8,['d'],['d'],Y,N,None,Y,,,,,,,female,21,
24,4,364,1,1,8,['d'],['d'],Y,Y,['space'],Y,,,,,,,female,21,
24,5,365,12,12,8,['k'],['k'],Y,Y,['space'],Y,,,,,,,female,21,
24,6,366,7,7,8,['k'],['k'],Y,Y,['space'],Y,,,,,,,female,21,
24,7,367,2,2,8,['d'],['d'],Y,N,None,Y,,,,,,,female,21,
24,8,368,13,13,8,['k'],['k'],Y,N,None,Y,,,,,,,female,21,
24,9,369,13,13,8,['d'],['d'],Y,N,None,Y,,,,,,,female,21,
24,10,370,14,14,8,['k'],['k'],Y,Y,['space'],Y,,,,,,,female,21,
24,11,371,9,9,8,['k'],['k'],Y,N,None,Y,,,,,,,female,21,
24,12,372,1,1,8,['d'],['d'],Y,N,None,Y,,,,,,,female,21,
24,13,373,5,5,8,['d'],['d'],Y,Y,['space'],Y,,,,,,,female,21,
24,14,374,4,4,8,['k'],['k'],Y,Y,None,N,,,,,,,female,21,
25,0,375,4,4,8,['k'],['k'],Y,Y,['space'],Y,,,,,,,female,21,
25,1,376,0,0,8,['d'],['d'],Y,N,None,Y,,,,,,,female,21,
25,2,377,7,7,8,['k'],['k'],Y,Y,['space'],Y,,,,,,,female,21,
25,3,378,13,13,8,['k'],['k'],Y,N,None,Y,,,,,,,female,21,
25,4,379,10,10,8,['d'],['d'],Y,N,None,Y,,,,,,,female,21,
25,5,380,5,5,8,['k'],['k'],Y,N,None,Y,,,,,,,female,21,
25,6,381,8,8,8,['d'],['d'],Y,Y,None,N,,,,,,,female,21,
25,7,382,7,7,8,['k'],['k'],Y,N,None,Y,,,,,,,female,21,
25,8,383,14,14,8,['k'],['k'],Y,Y,['space'],Y,,,,,,,female,21,
25,9,384,4,4,8,['d'],['k'],N,N,None,Y,,,,,,,female,21,
25,10,385,10,10,8,['d'],['d'],Y,Y,['space'],Y,,,,,,,female,21,
25,11,386,2,2,8,['k'],['k'],Y,N,None,Y,,,,,,,female,21,
25,12,387,1,1,8,['k'],['k'],Y,Y,['space'],Y,,,,,,,female,21,
25,13,388,4,4,8,['d'],['k'],N,N,None,Y,,,,,,,female,21,
25,14,389,2,2,8,['d'],['k'],N,N,None,Y,,,,,,,female,21,
26,0,390,10,10,8,['k'],['k'],Y,Y,None,N,,,,,,,female,21,
26,1,391,8,8,8,['d'],['d'],Y,Y,['space'],Y,,,,,,,female,21,
26,2,392,3,3,8,['d'],['d'],Y,N,None,Y,,,,,,,female,21,
26,3,393,7,7,8,['k'],['k'],Y,Y,['space'],Y,,,,,,,female,21,
26,4,394,12,12,8,['k'],['k'],Y,Y,['space'],Y,,,,,,,female,21,
26,5,395,7,7,8,['k'],['k'],Y,N,None,Y,,,,,,,female,21,
26,6,396,12,12,8,['d'],['d'],Y,N,None,Y,,,,,,,female,21,
26,7,397,10,10,8,['k'],['k'],Y,N,None,Y,,,,,,,female,21,
26,8,398,5,5,8,['k'],['k'],Y,N,None,Y,,,,,,,female,21,
26,9,399,10,10,8,['k'],['k'],Y,N,None,Y,46,45,23,,,,female,21,
26,10,400,4,4,9,['k'],['k'],Y,,,,,,,,,,female,21,
26,11,401,4,4,9,['d'],['d'],Y,,,,,,,,,,female,21,
26,12,402,3,3,9,['d'],['d'],Y,Y,['space'],Y,,,,,,,female,21,
26,13,403,6,6,9,['d'],['d'],Y,Y,['space'],Y,,,,,,,female,21,
26,14,404,3,3,9,['d'],['d'],Y,N,None,Y,,,,,,,female,21,
27,0,405,2,2,9,['k'],['k'],Y,N,None,Y,,,,,,,female,21,
27,1,406,7,7,9,['d'],['d'],Y,Y,['space'],Y,,,,,,,female,21,
27,2,407,0,0,9,['k'],['k'],Y,N,None,Y,,,,,,,female,21,
27,3,408,6,6,9,['d'],['d'],Y,Y,['space'],Y,,,,,,,female,21,
27,4,409,5,5,9,['k'],['k'],Y,Y,['space'],Y,,,,,,,female,21,
27,5,410,1,1,9,['d'],['d'],Y,Y,['space'],Y,,,,,,,female,21,
27,6,411,8,8,9,['k'],['k'],Y,Y,['space'],Y,,,,,,,female,21,
27,7,412,7,7,9,['d'],['d'],Y,N,None,Y,,,,,,,female,21,
27,8,413,6,6,9,['k'],['k'],Y,Y,['space'],Y,,,,,,,female,21,
27,9,414,8,8,9,['k'],['k'],Y,Y,['space'],Y,,,,,,,female,21,
27,10,415,4,4,9,['d'],['d'],Y,Y,['space'],Y,,,,,,,female,21,
27,11,416,10,10,9,['d'],['d'],Y,N,None,Y,,,,,,,female,21,
27,12,417,9,9,9,['k'],['k'],Y,N,None,Y,,,,,,,female,21,
27,13,418,9,9,9,['d'],['d'],Y,Y,['space'],Y,,,,,,,female,21,
27,14,419,9,9,9,['d'],['d'],Y,N,None,Y,,,,,,,female,21,
28,0,420,8,8,9,['d'],['d'],Y,Y,['space'],Y,,,,,,,female,21,
28,1,421,14,14,9,['d'],['d'],Y,Y,['space'],Y,,,,,,,female,21,
28,2,422,5,5,9,['d'],['d'],Y,N,None,Y,,,,,,,female,21,
28,3,423,6,6,9,['k'],['k'],Y,Y,['space'],Y,,,,,,,female,21,
28,4,424,2,2,9,['d'],['d'],Y,Y,['space'],Y,,,,,,,female,21,
28,5,425,11,11,9,['k'],['k'],Y,Y,['space'],Y,,,,,,,female,21,
28,6,426,0,0,9,['d'],['d'],Y,Y,['space'],Y,,,,,,,female,21,
28,7,427,9,9,9,['k'],['k'],Y,N,None,Y,,,,,,,female,21,
28,8,428,0,0,9,['d'],['d'],Y,Y,['space'],Y,,,,,,,female,21,
28,9,429,5,5,9,['d'],['d'],Y,Y,['space'],Y,,,,,,,female,21,
28,10,430,8,8,9,['d'],['d'],Y,Y,['space'],Y,,,,,,,female,21,
28,11,431,1,1,9,['d'],['d'],Y,Y,['space'],Y,,,,,,,female,21,
28,12,432,9,9,9,['k'],['k'],Y,Y,['space'],Y,,,,,,,female,21,
28,13,433,10,10,9,['k'],['k'],Y,N,None,Y,,,,,,,female,21,
28,14,434,12,12,9,['d'],['d'],Y,N,None,Y,,,,,,,female,21,
29,0,435,9,9,9,['d'],['d'],Y,Y,['space'],Y,,,,,,,female,21,
29,1,436,14,14,9,['k'],['k'],Y,Y,['space'],Y,,,,,,,female,21,
29,2,437,12,12,9,['k'],['k'],Y,Y,['space'],Y,,,,,,,female,21,
29,3,438,10,10,9,['k'],['k'],Y,N,None,Y,,,,,,,female,21,
29,4,439,4,4,9,['d'],['d'],Y,N,None,Y,,,,,,,female,21,
29,5,440,12,12,9,['d'],['d'],Y,N,['space'],N,,,,,,,female,21,
29,6,441,5,5,9,['d'],['d'],Y,N,None,Y,,,,,,,female,21,
29,7,442,2,2,9,['k'],['k'],Y,N,None,Y,,,,,,,female,21,
29,8,443,12,12,9,['d'],['d'],Y,N,['space'],N,,,,,,,female,21,
29,9,444,11,11,9,['k'],['k'],Y,N,None,Y,,,,,,,female,21,
29,10,445,6,6,9,['d'],['d'],Y,N,None,Y,,,,,,,female,21,
29,11,446,8,8,9,['d'],['d'],Y,N,None,Y,,,,,,,female,21,
29,12,447,2,2,9,['d'],['d'],Y,N,None,Y,,,,,,,female,21,
29,13,448,14,14,9,['d'],['d'],Y,N,None,Y,,,,,,,female,21,
29,14,449,13,13,9,['k'],['k'],Y,N,None,Y,50,46,25,,,,female,21,
30,0,450,0,0,10,['k'],['k'],Y,,,,,,,,,,female,21,
30,1,451,10,10,10,['d'],['d'],Y,,,,,,,,,,female,21,
30,2,452,2,2,10,['k'],['k'],Y,N,None,Y,,,,,,,female,21,
30,3,453,11,11,10,['k'],['k'],Y,N,None,Y,,,,,,,female,21,
30,4,454,6,6,10,['d'],['d'],Y,N,None,Y,,,,,,,female,21,
30,5,455,4,4,10,['k'],['k'],Y,Y,None,N,,,,,,,female,21,
30,6,456,5,5,10,['d'],['d'],Y,Y,['space'],Y,,,,,,,female,21,
30,7,457,1,1,10,['d'],['d'],Y,Y,['space'],Y,,,,,,,female,21,
30,8,458,0,0,10,['d'],['d'],Y,Y,['space'],Y,,,,,,,female,21,
30,9,459,3,3,10,['k'],['k'],Y,Y,['space'],Y,,,,,,,female,21,
30,10,460,11,11,10,['k'],['k'],Y,N,None,Y,,,,,,,female,21,
30,11,461,7,7,10,['k'],['k'],Y,Y,['space'],Y,,,,,,,female,21,
30,12,462,3,3,10,['k'],['k'],Y,Y,['space'],Y,,,,,,,female,21,
30,13,463,7,7,10,['d'],['d'],Y,Y,['space'],Y,,,,,,,female,21,
30,14,464,4,4,10,['d'],['d'],Y,Y,['space'],Y,,,,,,,female,21,
31,0,465,1,1,10,['d'],['d'],Y,N,None,Y,,,,,,,female,21,
31,1,466,6,6,10,['d'],['d'],Y,N,None,Y,,,,,,,female,21,
31,2,467,13,13,10,['d'],['d'],Y,N,None,Y,,,,,,,female,21,
31,3,468,2,2,10,['d'],['d'],Y,Y,['space'],Y,,,,,,,female,21,
31,4,469,12,12,10,['k'],['k'],Y,Y,['space'],Y,,,,,,,female,21,
31,5,470,6,6,10,['d'],['d'],Y,N,None,Y,,,,,,,female,21,
31,6,471,13,13,10,['d'],['d'],Y,N,None,Y,,,,,,,female,21,
31,7,472,3,3,10,['k'],['k'],Y,Y,['space'],Y,,,,,,,female,21,
31,8,473,5,5,10,['k'],['k'],Y,N,None,Y,,,,,,,female,21,
31,9,474,13,13,10,['d'],['d'],Y,N,None,Y,,,,,,,female,21,
31,10,475,12,12,10,['d'],['k'],N,N,None,Y,,,,,,,female,21,
31,11,476,2,2,10,['k'],['k'],Y,N,None,Y,,,,,,,female,21,
31,12,477,8,8,10,['k'],['k'],Y,N,None,Y,,,,,,,female,21,
31,13,478,1,1,10,['k'],['k'],Y,N,None,Y,,,,,,,female,21,
31,14,479,13,13,10,['d'],['d'],Y,N,None,Y,,,,,,,female,21,
32,0,480,3,3,10,['k'],['k'],Y,N,None,Y,,,,,,,female,21,
32,1,481,10,10,10,['d'],['d'],Y,Y,['space'],Y,,,,,,,female,21,
32,2,482,13,13,10,['k'],['k'],Y,Y,['space'],Y,,,,,,,female,21,
32,3,483,5,5,10,['k'],['k'],Y,N,None,Y,,,,,,,female,21,
32,4,484,7,7,10,['k'],['k'],Y,Y,['space'],Y,,,,,,,female,21,
32,5,485,7,7,10,['d'],['d'],Y,Y,['space'],Y,,,,,,,female,21,
32,6,486,4,4,10,['d'],['d'],Y,Y,['space'],Y,,,,,,,female,21,
32,7,487,1,1,10,['d'],['d'],Y,N,None,Y,,,,,,,female,21,
32,8,488,3,3,10,['k'],['k'],Y,N,['space'],N,,,,,,,female,21,
32,9,489,2,2,10,['d'],['d'],Y,Y,['space'],Y,,,,,,,female,21,
32,10,490,0,0,10,['k'],['k'],Y,Y,['space'],Y,,,,,,,female,21,
32,11,491,12,12,10,['d'],['d'],Y,Y,['space'],Y,,,,,,,female,21,
32,12,492,3,3,10,['d'],['d'],Y,N,None,Y,,,,,,,female,21,
32,13,493,14,14,10,['d'],['d'],Y,Y,['space'],Y,,,,,,,female,21,
32,14,494,3,3,10,['k'],['k'],Y,Y,['space'],Y,,,,,,,female,21,
33,0,495,0,0,10,['d'],['d'],Y,Y,['space'],Y,,,,,,,female,21,
33,1,496,11,11,10,['d'],['d'],Y,N,None,Y,,,,,,,female,21,
33,2,497,0,0,10,['k'],['k'],Y,Y,['space'],Y,,,,,,,female,21,
33,3,498,0,0,10,['d'],['d'],Y,N,None,Y,,,,,,,female,21,
33,4,499,1,1,10,['k'],['k'],Y,Y,None,N,49,45,25,,,,female,21,
33,5,500,9,9,11,['k'],['d'],Y,,,,,,,Y,Y,Y,female,21,
33,6,501,0,0,11,['k'],['d'],Y,,,,,,,,Y,Y,female,21,
33,7,502,13,13,11,['d'],['k'],Y,Y,['space'],Y,,,,,Y,Y,female,21,
33,8,503,12,12,11,['d'],['k'],Y,Y,['space'],Y,,,,,Y,Y,female,21,
33,9,504,1,1,11,['k'],['d'],Y,N,None,Y,,,,,Y,Y,female,21,
33,10,505,5,5,11,None,,Timed out,Y,['space'],Y,,,,,Y,Y,female,21,
33,11,506,14,14,11,['d'],['k'],Y,Y,['space'],Y,,,,,Y,Y,female,21,
33,12,507,6,6,11,['d'],['k'],Y,Y,['space'],Y,,,,,Y,Y,female,21,
33,13,508,12,12,11,['d'],['k'],Y,N,None,Y,,,,,Y,Y,female,21,
33,14,509,2,2,11,['k'],['d'],Y,N,None,Y,,,,,Y,Y,female,21,
34,0,510,3,3,11,['k'],['d'],Y,Y,['space'],Y,,,,,Y,Y,female,21,
34,1,511,13,13,11,['d'],['k'],Y,N,['space'],N,,,,,Y,Y,female,21,
34,2,512,14,14,11,['d'],['k'],Y,Y,['space'],Y,,,,,Y,Y,female,21,
34,3,513,3,3,11,['d'],['d'],N,Y,['space'],Y,,,,,Y,Y,female,21,
34,4,514,1,1,11,['d'],['k'],Y,N,None,Y,,,,,Y,Y,female,21,
34,5,515,5,5,11,['k'],['d'],Y,N,None,Y,,,,,Y,Y,female,21,
34,6,516,4,4,11,['d'],['k'],Y,Y,None,N,,,,,Y,Y,female,21,
34,7,517,6,6,11,['k'],['d'],Y,N,None,Y,,,,,Y,Y,female,21,
34,8,518,12,12,11,['k'],['d'],Y,N,None,Y,,,,,Y,Y,female,21,
34,9,519,11,11,11,['k'],['d'],Y,Y,['space'],Y,,,,,Y,Y,female,21,
34,10,520,10,10,11,['k'],['d'],Y,N,None,Y,,,,,Y,Y,female,21,
34,11,521,2,2,11,['k'],['d'],Y,N,None,Y,,,,,Y,Y,female,21,
34,12,522,14,14,11,['k'],['d'],Y,Y,['space'],Y,,,,,Y,Y,female,21,
34,13,523,12,12,11,['d'],['k'],Y,Y,['space'],Y,,,,,Y,Y,female,21,
34,14,524,4,4,11,['k'],['d'],Y,N,None,Y,,,,,Y,Y,female,21,
35,0,525,11,11,11,['d'],['k'],Y,Y,['space'],Y,,,,,Y,Y,female,21,
35,1,526,8,8,11,['k'],['d'],Y,N,None,Y,,,,,Y,Y,female,21,
35,2,527,5,5,11,['d'],['k'],Y,Y,['space'],Y,,,,,Y,Y,female,21,
35,3,528,9,9,11,['d'],['k'],Y,N,None,Y,,,,,Y,Y,female,21,
35,4,529,2,2,11,['k'],['d'],Y,Y,['space'],Y,,,,,Y,Y,female,21,
35,5,530,7,7,11,['d'],['d'],N,Y,['space'],Y,,,,,Y,Y,female,21,
35,6,531,14,14,11,['k'],['d'],Y,N,None,Y,,,,,Y,Y,female,21,
35,7,532,10,10,11,['k'],['d'],Y,N,None,Y,,,,,Y,Y,female,21,
35,8,533,6,6,11,['k'],['d'],Y,N,None,Y,,,,,Y,Y,female,21,
35,9,534,7,7,11,['d'],['k'],Y,Y,['space'],Y,,,,,Y,Y,female,21,
35,10,535,7,7,11,['d'],['k'],Y,Y,None,N,,,,,Y,Y,female,21,
35,11,536,6,6,11,['k'],['k'],N,Y,['space'],Y,,,,,Y,Y,female,21,
35,12,537,8,8,11,['k'],['k'],N,Y,['space'],Y,,,,,Y,Y,female,21,
35,13,538,2,2,11,['d'],['k'],Y,N,None,Y,,,,,Y,Y,female,21,
35,14,539,0,0,11,['d'],['k'],Y,N,None,Y,,,,,Y,Y,female,21,
36,0,540,14,14,11,['k'],['d'],Y,Y,['space'],Y,,,,,Y,Y,female,21,
36,1,541,12,12,11,['d'],['k'],Y,N,None,Y,,,,,Y,Y,female,21,
36,2,542,7,7,11,['d'],['k'],Y,N,None,Y,,,,,Y,Y,female,21,
36,3,543,3,3,11,['d'],['k'],Y,Y,['space'],Y,,,,,Y,Y,female,21,
36,4,544,1,1,11,['k'],['d'],Y,Y,['space'],Y,,,,,Y,Y,female,21,
36,5,545,1,1,11,['k'],['d'],Y,N,None,Y,,,,,Y,Y,female,21,
36,6,546,1,1,11,['k'],['d'],Y,N,None,Y,,,,,Y,Y,female,21,
36,7,547,5,5,11,['d'],['k'],Y,N,None,Y,,,,,Y,Y,female,21,
36,8,548,0,0,11,['d'],['k'],Y,N,None,Y,,,,,Y,Y,female,21,
36,9,549,10,10,11,['d'],['k'],Y,N,None,Y,45,45,23,,Y,Y,female,21,
36,10,550,11,11,12,['k'],['d'],Y,,,,,,,,Y,Y,female,21,
36,11,551,2,2,12,['d'],['k'],Y,,,,,,,,Y,Y,female,21,
36,12,552,1,1,12,['k'],['d'],Y,Y,['space'],Y,,,,,Y,Y,female,21,
36,13,553,5,5,12,['d'],['k'],Y,N,None,Y,,,,,Y,Y,female,21,
36,14,554,9,9,12,['d'],['k'],Y,Y,['space'],Y,,,,,Y,Y,female,21,
37,0,555,2,2,12,['d'],['k'],Y,N,None,Y,,,,,Y,Y,female,21,
37,1,556,14,14,12,['k'],['d'],Y,Y,['space'],Y,,,,,Y,Y,female,21,
37,2,557,5,5,12,['d'],['k'],Y,Y,['space'],Y,,,,,Y,Y,female,21,
37,3,558,6,6,12,['d'],['k'],Y,Y,['space'],Y,,,,,Y,Y,female,21,
37,4,559,1,1,12,['d'],['k'],Y,N,None,Y,,,,,Y,Y,female,21,
37,5,560,1,1,12,['k'],['d'],Y,N,None,Y,,,,,Y,Y,female,21,
37,6,561,7,7,12,['d'],['k'],Y,N,None,Y,,,,,Y,Y,female,21,
37,7,562,11,11,12,['k'],['d'],Y,Y,['space'],Y,,,,,Y,Y,female,21,
37,8,563,4,4,12,['d'],['k'],Y,N,None,Y,,,,,Y,Y,female,21,
37,9,564,9,9,12,['k'],['d'],Y,N,None,Y,,,,,Y,Y,female,21,
37,10,565,4,4,12,['k'],['d'],Y,N,None,Y,,,,,Y,Y,female,21,
37,11,566,8,8,12,['d'],['k'],Y,N,None,Y,,,,,Y,Y,female,21,
37,12,567,12,12,12,['d'],['k'],Y,N,None,Y,,,,,Y,Y,female,21,
37,13,568,9,9,12,['k'],['d'],Y,N,None,Y,,,,,Y,Y,female,21,
37,14,569,2,2,12,['k'],['d'],Y,N,None,Y,,,,,Y,Y,female,21,
38,0,570,13,13,12,['k'],['d'],Y,N,None,Y,,,,,Y,Y,female,21,
38,1,571,11,11,12,['d'],['k'],Y,Y,['space'],Y,,,,,Y,Y,female,21,
38,2,572,7,7,12,['d'],['k'],Y,N,None,Y,,,,,Y,Y,female,21,
38,3,573,0,0,12,['d'],['k'],Y,N,None,Y,,,,,Y,Y,female,21,
38,4,574,11,11,12,['k'],['d'],Y,N,None,Y,,,,,Y,Y,female,21,
38,5,575,1,1,12,['k'],['d'],Y,Y,['space'],Y,,,,,Y,Y,female,21,
38,6,576,8,8,12,['d'],['k'],Y,Y,['space'],Y,,,,,Y,Y,female,21,
38,7,577,12,12,12,['d'],['k'],Y,Y,['space'],Y,,,,,Y,Y,female,21,
38,8,578,3,3,12,['k'],['d'],Y,N,None,Y,,,,,Y,Y,female,21,
38,9,579,13,13,12,['k'],['d'],Y,N,None,Y,,,,,Y,Y,female,21,
38,10,580,12,12,12,['k'],['d'],Y,N,None,Y,,,,,Y,Y,female,21,
38,11,581,7,7,12,['d'],['k'],Y,Y,['space'],Y,,,,,Y,Y,female,21,
38,12,582,4,4,12,['k'],['d'],Y,Y,['space'],Y,,,,,Y,Y,female,21,
38,13,583,5,5,12,['k'],['d'],Y,Y,['space'],Y,,,,,Y,Y,female,21,
38,14,584,2,2,12,['d'],['k'],Y,Y,['space'],Y,,,,,Y,Y,female,21,
39,0,585,11,11,12,['d'],['k'],Y,N,None,Y,,,,,Y,Y,female,21,
39,1,586,13,13,12,['d'],['k'],Y,N,None,Y,,,,,Y,Y,female,21,
39,2,587,9,9,12,['k'],['d'],Y,N,None,Y,,,,,Y,Y,female,21,
39,3,588,3,3,12,['d'],['k'],Y,Y,['space'],Y,,,,,Y,Y,female,21,
39,4,589,13,13,12,['k'],['d'],Y,Y,['space'],Y,,,,,Y,Y,female,21,
39,5,590,12,12,12,['k'],['d'],Y,Y,['space'],Y,,,,,Y,Y,female,21,
39,6,591,5,5,12,['k'],['d'],Y,Y,['space'],Y,,,,,Y,Y,female,21,
39,7,592,9,9,12,['k'],['d'],Y,Y,['space'],Y,,,,,Y,Y,female,21,
39,8,593,14,14,12,['k'],['d'],Y,N,None,Y,,,,,Y,Y,female,21,
39,9,594,2,2,12,['k'],['d'],Y,Y,['space'],Y,,,,,Y,Y,female,21,
39,10,595,13,13,12,['k'],['d'],Y,N,['space'],N,,,,,Y,Y,female,21,
39,11,596,6,6,12,['k'],['d'],Y,Y,['space'],Y,,,,,Y,Y,female,21,
39,12,597,14,14,12,['d'],['k'],Y,Y,['space'],Y,,,,,Y,Y,female,21,
39,13,598,11,11,12,['d'],['k'],Y,N,None,Y,,,,,Y,Y,female,21,
39,14,599,8,8,12,['d'],['k'],Y,N,None,Y,50,47,22,,Y,Y,female,21,
