.thisRepN,.thisTrialN,.thisN,.thisIndex,.thisTrial,Block Number,Key pressed,Category,Correct?,Int Match?,Int Response,Int Correct?,Line Accuracy,Interference Accuracy,Matching Interferences,New instruction shown?,Buttons switched?,Fast?,gender,age,
0,0,0,14,14,1,['d'],['d'],Y,,,,,,,,,,f,20,
0,1,1,1,1,1,['k'],['d'],N,,,,,,,,,,f,20,
0,2,2,0,0,1,['d'],['d'],Y,Y,None,N,,,,,,,f,20,
0,3,3,1,1,1,['d'],['d'],Y,Y,None,N,,,,,,,f,20,
0,4,4,8,8,1,['d'],['d'],Y,N,None,Y,,,,,,,f,20,
0,5,5,14,14,1,['d'],['d'],Y,Y,None,N,,,,,,,f,20,
0,6,6,14,14,1,['d'],['k'],N,N,None,Y,,,,,,,f,20,
0,7,7,1,1,1,['k'],['k'],Y,N,None,Y,,,,,,,f,20,
0,8,8,12,12,1,['k'],['d'],N,N,None,Y,,,,,,,f,20,
0,9,9,4,4,1,['k'],['k'],Y,Y,['space'],Y,,,,,,,f,20,
0,10,10,12,12,1,['d'],['d'],Y,N,None,Y,,,,,,,f,20,
0,11,11,4,4,1,['k'],['k'],Y,N,None,Y,,,,,,,f,20,
0,12,12,3,3,1,['d'],['d'],Y,N,None,Y,,,,,,,f,20,
0,13,13,12,12,1,['d'],['d'],Y,Y,None,N,,,,,,,f,20,
0,14,14,3,3,1,['k'],['k'],Y,N,['space'],N,,,,,,,f,20,
1,0,15,12,12,1,['d'],['d'],Y,Y,['space'],Y,,,,,,,f,20,
1,1,16,5,5,1,['d'],['d'],Y,Y,None,N,,,,,,,f,20,
1,2,17,2,2,1,['d'],['d'],Y,Y,['space'],Y,,,,,,,f,20,
1,3,18,8,8,1,['d'],['d'],Y,Y,['space'],Y,,,,,,,f,20,
1,4,19,6,6,1,['k'],['k'],Y,N,None,Y,,,,,,,f,20,
1,5,20,6,6,1,['k'],['k'],Y,N,None,Y,,,,,,,f,20,
1,6,21,6,6,1,['d'],['d'],Y,Y,['space'],Y,,,,,,,f,20,
1,7,22,14,14,1,['d'],['d'],Y,Y,None,N,,,,,,,f,20,
1,8,23,4,4,1,['k'],['k'],Y,N,['space'],N,,,,,,,f,20,
1,9,24,4,4,1,['d'],['d'],Y,N,None,Y,,,,,,,f,20,
1,10,25,5,5,1,['k'],['k'],Y,Y,['space'],Y,,,,,,,f,20,
1,11,26,12,12,1,['d'],['d'],Y,N,None,Y,,,,,,,f,20,
1,12,27,2,2,1,['k'],['k'],Y,N,None,Y,,,,,,,f,20,
1,13,28,9,9,1,['k'],['k'],Y,Y,['space'],Y,,,,,,,f,20,
1,14,29,7,7,1,['d'],['d'],Y,Y,None,N,,,,,,,f,20,
2,0,30,4,4,1,['k'],['k'],Y,Y,None,N,,,,,,,f,20,
2,1,31,12,12,1,['d'],['d'],Y,N,None,Y,,,,,,,f,20,
2,2,32,13,13,1,['k'],['k'],Y,Y,['space'],Y,,,,,,,f,20,
2,3,33,1,1,1,['k'],['k'],Y,Y,['space'],Y,,,,,,,f,20,
2,4,34,8,8,1,['d'],['d'],Y,Y,['space'],Y,,,,,,,f,20,
2,5,35,7,7,1,['d'],['d'],Y,N,None,Y,,,,,,,f,20,
2,6,36,6,6,1,['d'],['d'],Y,N,None,Y,,,,,,,f,20,
2,7,37,6,6,1,['d'],['d'],Y,N,None,Y,,,,,,,f,20,
2,8,38,5,5,1,['k'],['k'],Y,N,None,Y,,,,,,,f,20,
2,9,39,0,0,1,['d'],['d'],Y,N,None,Y,,,,,,,f,20,
2,10,40,4,4,1,['d'],['d'],Y,N,None,Y,,,,,,,f,20,
2,11,41,2,2,1,['d'],['d'],Y,Y,['space'],Y,,,,,,,f,20,
2,12,42,10,10,1,['d'],['d'],Y,N,None,Y,,,,,,,f,20,
2,13,43,10,10,1,['d'],['d'],Y,N,None,Y,,,,,,,f,20,
2,14,44,9,9,1,['k'],['k'],Y,Y,['space'],Y,,,,,,,f,20,
3,0,45,12,12,1,['d'],['k'],N,N,None,Y,,,,,,,f,20,
3,1,46,13,13,1,['k'],['k'],Y,N,None,Y,,,,,,,f,20,
3,2,47,9,9,1,['d'],['d'],Y,N,None,Y,,,,,,,f,20,
3,3,48,13,13,1,['k'],['k'],Y,N,None,Y,,,,,,,f,20,
3,4,49,14,14,1,['k'],['k'],Y,N,None,Y,46,38,20,,,,f,20,
3,5,50,4,4,2,['k'],['k'],Y,,,,,,,,,,f,20,
3,6,51,8,8,2,['k'],['k'],Y,,,,,,,,,,f,20,
3,7,52,14,14,2,['k'],['k'],Y,N,None,Y,,,,,,,f,20,
3,8,53,8,8,2,['k'],['k'],Y,N,None,Y,,,,,,,f,20,
3,9,54,11,11,2,['k'],['d'],N,N,None,Y,,,,,,,f,20,
3,10,55,7,7,2,['d'],['d'],Y,N,None,Y,,,,,,,f,20,
3,11,56,1,1,2,['d'],['d'],Y,Y,None,N,,,,,,,f,20,
3,12,57,10,10,2,['k'],['k'],Y,Y,['space'],Y,,,,,,,f,20,
3,13,58,11,11,2,['d'],['d'],Y,N,None,Y,,,,,,,f,20,
3,14,59,1,1,2,['k'],['k'],Y,N,None,Y,,,,,,,f,20,
4,0,60,5,5,2,['k'],['k'],Y,Y,['space'],Y,,,,,,,f,20,
4,1,61,8,8,2,['d'],['d'],Y,Y,None,N,,,,,,,f,20,
4,2,62,8,8,2,['k'],['k'],Y,N,None,Y,,,,,,,f,20,
4,3,63,5,5,2,['d'],['d'],Y,N,None,Y,,,,,,,f,20,
4,4,64,3,3,2,['d'],['d'],Y,Y,['space'],Y,,,,,,,f,20,
4,5,65,12,12,2,['k'],['k'],Y,N,None,Y,,,,,,,f,20,
4,6,66,5,5,2,['k'],['k'],Y,Y,['space'],Y,,,,,,,f,20,
4,7,67,8,8,2,['k'],['k'],Y,Y,None,N,,,,,,,f,20,
4,8,68,8,8,2,['d'],['d'],Y,N,None,Y,,,,,,,f,20,
4,9,69,3,3,2,['d'],['d'],Y,N,None,Y,,,,,,,f,20,
4,10,70,7,7,2,['d'],['d'],Y,N,None,Y,,,,,,,f,20,
4,11,71,11,11,2,['k'],['k'],Y,N,None,Y,,,,,,,f,20,
4,12,72,6,6,2,['d'],['d'],Y,Y,['space'],Y,,,,,,,f,20,
4,13,73,8,8,2,['k'],['k'],Y,N,None,Y,,,,,,,f,20,
4,14,74,13,13,2,['k'],['k'],Y,N,['space'],N,,,,,,,f,20,
5,0,75,2,2,2,['d'],['d'],Y,Y,None,N,,,,,,,f,20,
5,1,76,12,12,2,['k'],['k'],Y,Y,['space'],Y,,,,,,,f,20,
5,2,77,10,10,2,['d'],['d'],Y,Y,['space'],Y,,,,,,,f,20,
5,3,78,5,5,2,['d'],['d'],Y,N,None,Y,,,,,,,f,20,
5,4,79,9,9,2,['k'],['k'],Y,N,None,Y,,,,,,,f,20,
5,5,80,6,6,2,['d'],['d'],Y,Y,None,N,,,,,,,f,20,
5,6,81,13,13,2,['d'],['d'],Y,N,['space'],N,,,,,,,f,20,
5,7,82,7,7,2,['d'],['d'],Y,Y,None,N,,,,,,,f,20,
5,8,83,4,4,2,['d'],['d'],Y,N,None,Y,,,,,,,f,20,
5,9,84,3,3,2,['d'],['d'],Y,N,None,Y,,,,,,,f,20,
5,10,85,11,11,2,['d'],['d'],Y,N,None,Y,,,,,,,f,20,
5,11,86,3,3,2,['d'],['d'],Y,N,None,Y,,,,,,,f,20,
5,12,87,2,2,2,['k'],['k'],Y,Y,None,N,,,,,,,f,20,
5,13,88,3,3,2,['k'],['k'],Y,Y,['space'],Y,,,,,,,f,20,
5,14,89,1,1,2,['d'],['d'],Y,N,None,Y,,,,,,,f,20,
6,0,90,8,8,2,['d'],['d'],Y,Y,['space'],Y,,,,,,,f,20,
6,1,91,0,0,2,['d'],['d'],Y,N,None,Y,,,,,,,f,20,
6,2,92,4,4,2,['d'],['k'],N,N,None,Y,,,,,,,f,20,
6,3,93,7,7,2,['k'],['k'],Y,Y,None,N,,,,,,,f,20,
6,4,94,10,10,2,['d'],['d'],Y,Y,['space'],Y,,,,,,,f,20,
6,5,95,7,7,2,['d'],['d'],Y,Y,None,N,,,,,,,f,20,
6,6,96,2,2,2,['k'],['k'],Y,Y,['space'],Y,,,,,,,f,20,
6,7,97,13,13,2,['d'],['d'],Y,Y,None,N,,,,,,,f,20,
6,8,98,4,4,2,['k'],['k'],Y,Y,None,N,,,,,,,f,20,
6,9,99,14,14,2,['d'],['d'],Y,N,None,Y,48,35,22,,,,f,20,
6,10,100,14,14,3,['d'],['d'],Y,,,,,,,,,,f,20,
6,11,101,14,14,3,['d'],['d'],Y,,,,,,,,,,f,20,
6,12,102,3,3,3,['k'],['k'],Y,Y,['space'],Y,,,,,,,f,20,
6,13,103,13,13,3,['d'],['d'],Y,Y,['space'],Y,,,,,,,f,20,
6,14,104,11,11,3,['d'],['d'],Y,N,None,Y,,,,,,,f,20,
7,0,105,2,2,3,['d'],['d'],Y,Y,['space'],Y,,,,,,,f,20,
7,1,106,7,7,3,['d'],['d'],Y,Y,['space'],Y,,,,,,,f,20,
7,2,107,3,3,3,['d'],['d'],Y,Y,['space'],Y,,,,,,,f,20,
7,3,108,6,6,3,['k'],['k'],Y,Y,['space'],Y,,,,,,,f,20,
7,4,109,0,0,3,['d'],['d'],Y,Y,['space'],Y,,,,,,,f,20,
7,5,110,11,11,3,['d'],['d'],Y,N,None,Y,,,,,,,f,20,
7,6,111,1,1,3,['k'],['k'],Y,Y,['space'],Y,,,,,,,f,20,
7,7,112,13,13,3,['d'],['d'],Y,N,None,Y,,,,,,,f,20,
7,8,113,13,13,3,['d'],['d'],Y,Y,['space'],Y,,,,,,,f,20,
7,9,114,5,5,3,['k'],['k'],Y,Y,['space'],Y,,,,,,,f,20,
7,10,115,12,12,3,['k'],['k'],Y,Y,['space'],Y,,,,,,,f,20,
7,11,116,7,7,3,['d'],['d'],Y,N,None,Y,,,,,,,f,20,
7,12,117,1,1,3,['k'],['k'],Y,N,None,Y,,,,,,,f,20,
7,13,118,0,0,3,['d'],['d'],Y,Y,['space'],Y,,,,,,,f,20,
7,14,119,4,4,3,['d'],['d'],Y,N,None,Y,,,,,,,f,20,
8,0,120,2,2,3,['k'],['k'],Y,Y,['space'],Y,,,,,,,f,20,
8,1,121,5,5,3,['d'],['d'],Y,N,None,Y,,,,,,,f,20,
8,2,122,5,5,3,['k'],['k'],Y,N,None,Y,,,,,,,f,20,
8,3,123,5,5,3,['d'],['d'],Y,N,None,Y,,,,,,,f,20,
8,4,124,11,11,3,['k'],['k'],Y,Y,['space'],Y,,,,,,,f,20,
8,5,125,10,10,3,['d'],['d'],Y,Y,['space'],Y,,,,,,,f,20,
8,6,126,7,7,3,['d'],['d'],Y,Y,['space'],Y,,,,,,,f,20,
8,7,127,3,3,3,['k'],['k'],Y,Y,['space'],Y,,,,,,,f,20,
8,8,128,0,0,3,['k'],['k'],Y,N,None,Y,,,,,,,f,20,
8,9,129,11,11,3,['d'],['d'],Y,N,None,Y,,,,,,,f,20,
8,10,130,7,7,3,['k'],['k'],Y,N,None,Y,,,,,,,f,20,
8,11,131,1,1,3,['d'],['d'],Y,N,None,Y,,,,,,,f,20,
8,12,132,10,10,3,['k'],['k'],Y,N,None,Y,,,,,,,f,20,
8,13,133,6,6,3,['k'],['k'],Y,N,None,Y,,,,,,,f,20,
8,14,134,4,4,3,['k'],['k'],Y,Y,None,N,,,,,,,f,20,
9,0,135,0,0,3,['d'],['d'],Y,N,None,Y,,,,,,,f,20,
9,1,136,5,5,3,['k'],['k'],Y,Y,['space'],Y,,,,,,,f,20,
9,2,137,3,3,3,['k'],['k'],Y,Y,['space'],Y,,,,,,,f,20,
9,3,138,8,8,3,['k'],['k'],Y,Y,['space'],Y,,,,,,,f,20,
9,4,139,13,13,3,['d'],['d'],Y,N,None,Y,,,,,,,f,20,
9,5,140,0,0,3,['k'],['k'],Y,N,['space'],N,,,,,,,f,20,
9,6,141,4,4,3,['k'],['k'],Y,Y,None,N,,,,,,,f,20,
9,7,142,3,3,3,['d'],['d'],Y,N,None,Y,,,,,,,f,20,
9,8,143,8,8,3,['k'],['k'],Y,Y,['space'],Y,,,,,,,f,20,
9,9,144,7,7,3,['k'],['k'],Y,Y,['space'],Y,,,,,,,f,20,
9,10,145,8,8,3,['d'],['d'],Y,N,None,Y,,,,,,,f,20,
9,11,146,1,1,3,['d'],['d'],Y,N,None,Y,,,,,,,f,20,
9,12,147,10,10,3,['k'],['k'],Y,Y,['space'],Y,,,,,,,f,20,
9,13,148,5,5,3,['k'],['k'],Y,N,None,Y,,,,,,,f,20,
9,14,149,3,3,3,['d'],['d'],Y,N,None,Y,50,45,25,,,,f,20,
10,0,150,4,4,4,['k'],['k'],Y,,,,,,,,,,f,20,
10,1,151,10,10,4,['k'],['k'],Y,,,,,,,,,,f,20,
10,2,152,13,13,4,['d'],['d'],Y,Y,['space'],Y,,,,,,,f,20,
10,3,153,14,14,4,['k'],['k'],Y,Y,['space'],Y,,,,,,,f,20,
10,4,154,12,12,4,['d'],['d'],Y,N,None,Y,,,,,,,f,20,
10,5,155,3,3,4,['k'],['k'],Y,N,['space'],N,,,,,,,f,20,
10,6,156,3,3,4,['d'],['d'],Y,Y,['space'],Y,,,,,,,f,20,
10,7,157,14,14,4,['d'],['d'],Y,N,None,Y,,,,,,,f,20,
10,8,158,1,1,4,['k'],['k'],Y,N,None,Y,,,,,,,f,20,
10,9,159,9,9,4,['d'],['d'],Y,Y,None,N,,,,,,,f,20,
10,10,160,11,11,4,['k'],['k'],Y,N,None,Y,,,,,,,f,20,
10,11,161,7,7,4,['k'],['k'],Y,Y,['space'],Y,,,,,,,f,20,
10,12,162,10,10,4,['d'],['d'],Y,Y,['space'],Y,,,,,,,f,20,
10,13,163,11,11,4,['k'],['k'],Y,N,None,Y,,,,,,,f,20,
10,14,164,3,3,4,['k'],['k'],Y,Y,['space'],Y,,,,,,,f,20,
11,0,165,11,11,4,['k'],['k'],Y,N,None,Y,,,,,,,f,20,
11,1,166,14,14,4,['k'],['k'],Y,N,None,Y,,,,,,,f,20,
11,2,167,10,10,4,['k'],['k'],Y,Y,['space'],Y,,,,,,,f,20,
11,3,168,12,12,4,['d'],['d'],Y,N,None,Y,,,,,,,f,20,
11,4,169,9,9,4,['d'],['d'],Y,Y,['space'],Y,,,,,,,f,20,
11,5,170,5,5,4,['d'],['d'],Y,N,None,Y,,,,,,,f,20,
11,6,171,7,7,4,['d'],['d'],Y,Y,['space'],Y,,,,,,,f,20,
11,7,172,8,8,4,['d'],['d'],Y,Y,None,N,,,,,,,f,20,
11,8,173,6,6,4,['k'],['k'],Y,Y,['space'],Y,,,,,,,f,20,
11,9,174,5,5,4,['k'],['k'],Y,Y,['space'],Y,,,,,,,f,20,
11,10,175,4,4,4,['d'],['d'],Y,Y,['space'],Y,,,,,,,f,20,
11,11,176,12,12,4,['d'],['d'],Y,N,None,Y,,,,,,,f,20,
11,12,177,13,13,4,['d'],['d'],Y,Y,['space'],Y,,,,,,,f,20,
11,13,178,3,3,4,['k'],['k'],Y,N,None,Y,,,,,,,f,20,
11,14,179,14,14,4,['d'],['d'],Y,N,['space'],N,,,,,,,f,20,
12,0,180,2,2,4,['d'],['d'],Y,Y,['space'],Y,,,,,,,f,20,
12,1,181,3,3,4,['d'],['d'],Y,Y,['space'],Y,,,,,,,f,20,
12,2,182,10,10,4,['k'],['k'],Y,N,None,Y,,,,,,,f,20,
12,3,183,0,0,4,['k'],['k'],Y,N,None,Y,,,,,,,f,20,
12,4,184,11,11,4,['d'],['d'],Y,Y,['space'],Y,,,,,,,f,20,
12,5,185,9,9,4,['d'],['d'],Y,N,None,Y,,,,,,,f,20,
12,6,186,8,8,4,['d'],['d'],Y,Y,['space'],Y,,,,,,,f,20,
12,7,187,7,7,4,['d'],['d'],Y,Y,['space'],Y,,,,,,,f,20,
12,8,188,13,13,4,['k'],['k'],Y,Y,['space'],Y,,,,,,,f,20,
12,9,189,7,7,4,['k'],['k'],Y,Y,['space'],Y,,,,,,,f,20,
12,10,190,3,3,4,['k'],['k'],Y,Y,['space'],Y,,,,,,,f,20,
12,11,191,4,4,4,['d'],['d'],Y,N,None,Y,,,,,,,f,20,
12,12,192,3,3,4,['d'],['d'],Y,Y,None,N,,,,,,,f,20,
12,13,193,10,10,4,['d'],['d'],Y,N,None,Y,,,,,,,f,20,
12,14,194,10,10,4,['d'],['d'],Y,Y,['space'],Y,,,,,,,f,20,
13,0,195,6,6,4,['d'],['d'],Y,N,None,Y,,,,,,,f,20,
13,1,196,4,4,4,['d'],['d'],Y,N,None,Y,,,,,,,f,20,
13,2,197,10,10,4,['k'],['k'],Y,N,['space'],N,,,,,,,f,20,
13,3,198,6,6,4,['k'],['k'],Y,N,['space'],N,,,,,,,f,20,
13,4,199,1,1,4,['d'],['d'],Y,N,None,Y,50,41,25,,,,f,20,
13,5,200,2,2,5,['k'],['k'],Y,,,,,,,,,,f,20,
13,6,201,8,8,5,['k'],['k'],Y,,,,,,,,,,f,20,
13,7,202,14,14,5,['k'],['k'],Y,N,None,Y,,,,,,,f,20,
13,8,203,8,8,5,['k'],['k'],Y,N,None,Y,,,,,,,f,20,
13,9,204,3,3,5,['d'],['d'],Y,Y,None,N,,,,,,,f,20,
13,10,205,3,3,5,['k'],['k'],Y,N,None,Y,,,,,,,f,20,
13,11,206,2,2,5,['d'],['d'],Y,N,None,Y,,,,,,,f,20,
13,12,207,14,14,5,['k'],['k'],Y,Y,['space'],Y,,,,,,,f,20,
13,13,208,12,12,5,['k'],['k'],Y,N,None,Y,,,,,,,f,20,
13,14,209,1,1,5,['d'],['d'],Y,N,None,Y,,,,,,,f,20,
14,0,210,8,8,5,['d'],['d'],Y,Y,['space'],Y,,,,,,,f,20,
14,1,211,1,1,5,['k'],['k'],Y,Y,['space'],Y,,,,,,,f,20,
14,2,212,0,0,5,['d'],['d'],Y,N,None,Y,,,,,,,f,20,
14,3,213,3,3,5,['k'],['k'],Y,Y,['space'],Y,,,,,,,f,20,
14,4,214,14,14,5,['d'],['d'],Y,Y,['space'],Y,,,,,,,f,20,
14,5,215,1,1,5,['d'],['d'],Y,Y,['space'],Y,,,,,,,f,20,
14,6,216,1,1,5,['d'],['d'],Y,Y,['space'],Y,,,,,,,f,20,
14,7,217,14,14,5,['d'],['d'],Y,N,None,Y,,,,,,,f,20,
14,8,218,10,10,5,['d'],['d'],Y,Y,['space'],Y,,,,,,,f,20,
14,9,219,10,10,5,['d'],['d'],Y,N,None,Y,,,,,,,f,20,
14,10,220,6,6,5,['d'],['d'],Y,Y,['space'],Y,,,,,,,f,20,
14,11,221,6,6,5,['k'],['k'],Y,N,None,Y,,,,,,,f,20,
14,12,222,6,6,5,['d'],['d'],Y,Y,['space'],Y,,,,,,,f,20,
14,13,223,11,11,5,['k'],['k'],Y,Y,['space'],Y,,,,,,,f,20,
14,14,224,2,2,5,['k'],['k'],Y,N,None,Y,,,,,,,f,20,
15,0,225,11,11,5,['d'],['d'],Y,Y,['space'],Y,,,,,,,f,20,
15,1,226,12,12,5,['k'],['k'],Y,N,None,Y,,,,,,,f,20,
15,2,227,13,13,5,['d'],['d'],Y,Y,['space'],Y,,,,,,,f,20,
15,3,228,7,7,5,['k'],['k'],Y,N,None,Y,,,,,,,f,20,
15,4,229,1,1,5,['k'],['k'],Y,N,None,Y,,,,,,,f,20,
15,5,230,8,8,5,['k'],['k'],Y,N,None,Y,,,,,,,f,20,
15,6,231,6,6,5,['d'],['d'],Y,Y,['space'],Y,,,,,,,f,20,
15,7,232,13,13,5,['d'],['d'],Y,Y,['space'],Y,,,,,,,f,20,
15,8,233,5,5,5,['k'],['k'],Y,N,None,Y,,,,,,,f,20,
15,9,234,0,0,5,['d'],['d'],Y,Y,['space'],Y,,,,,,,f,20,
15,10,235,9,9,5,['d'],['d'],Y,N,None,Y,,,,,,,f,20,
15,11,236,3,3,5,['d'],['d'],Y,N,None,Y,,,,,,,f,20,
15,12,237,1,1,5,['k'],['k'],Y,Y,['space'],Y,,,,,,,f,20,
15,13,238,14,14,5,['d'],['d'],Y,Y,['space'],Y,,,,,,,f,20,
15,14,239,4,4,5,['k'],['k'],Y,N,None,Y,,,,,,,f,20,
16,0,240,5,5,5,['d'],['d'],Y,N,None,Y,,,,,,,f,20,
16,1,241,7,7,5,['k'],['k'],Y,N,None,Y,,,,,,,f,20,
16,2,242,9,9,5,['k'],['k'],Y,Y,['space'],Y,,,,,,,f,20,
16,3,243,4,4,5,['d'],['d'],Y,N,None,Y,,,,,,,f,20,
16,4,244,11,11,5,['d'],['d'],Y,Y,['space'],Y,,,,,,,f,20,
16,5,245,13,13,5,['d'],['d'],Y,N,None,Y,,,,,,,f,20,
16,6,246,2,2,5,['k'],['k'],Y,Y,None,N,,,,,,,f,20,
16,7,247,11,11,5,['k'],['k'],Y,Y,['space'],Y,,,,,,,f,20,
16,8,248,2,2,5,['d'],['k'],N,N,None,Y,,,,,,,f,20,
16,9,249,0,0,5,['k'],['k'],Y,N,None,Y,49,46,23,,,,f,20,
16,10,250,9,9,6,['d'],['d'],Y,,,,,,,,,,f,20,
16,11,251,5,5,6,['k'],['k'],Y,,,,,,,,,,f,20,
16,12,252,14,14,6,['d'],['d'],Y,Y,['space'],Y,,,,,,,f,20,
16,13,253,2,2,6,['d'],['d'],Y,Y,['space'],Y,,,,,,,f,20,
16,14,254,13,13,6,['k'],['k'],Y,Y,['space'],Y,,,,,,,f,20,
17,0,255,6,6,6,['d'],['d'],Y,Y,['space'],Y,,,,,,,f,20,
17,1,256,3,3,6,['d'],['d'],Y,N,None,Y,,,,,,,f,20,
17,2,257,11,11,6,['d'],['d'],Y,N,None,Y,,,,,,,f,20,
17,3,258,4,4,6,['k'],['k'],Y,Y,['space'],Y,,,,,,,f,20,
17,4,259,0,0,6,['k'],['k'],Y,Y,['space'],Y,,,,,,,f,20,
17,5,260,0,0,6,['d'],['d'],Y,Y,['space'],Y,,,,,,,f,20,
17,6,261,3,3,6,['d'],['d'],Y,N,None,Y,,,,,,,f,20,
17,7,262,7,7,6,['k'],['k'],Y,N,None,Y,,,,,,,f,20,
17,8,263,9,9,6,['k'],['k'],Y,N,None,Y,,,,,,,f,20,
17,9,264,12,12,6,['d'],['d'],Y,Y,['space'],Y,,,,,,,f,20,
17,10,265,9,9,6,['d'],['d'],Y,N,None,Y,,,,,,,f,20,
17,11,266,9,9,6,['k'],['k'],Y,Y,['space'],Y,,,,,,,f,20,
17,12,267,11,11,6,['d'],['d'],Y,Y,['space'],Y,,,,,,,f,20,
17,13,268,6,6,6,['d'],['d'],Y,Y,['space'],Y,,,,,,,f,20,
17,14,269,4,4,6,['d'],['d'],Y,N,None,Y,,,,,,,f,20,
18,0,270,5,5,6,['k'],['k'],Y,Y,['space'],Y,,,,,,,f,20,
18,1,271,8,8,6,['k'],['k'],Y,N,None,Y,,,,,,,f,20,
18,2,272,12,12,6,['k'],['k'],Y,N,None,Y,,,,,,,f,20,
18,3,273,9,9,6,['k'],['k'],Y,Y,['space'],Y,,,,,,,f,20,
18,4,274,5,5,6,['k'],['k'],Y,N,None,Y,,,,,,,f,20,
18,5,275,4,4,6,['d'],['d'],Y,Y,['space'],Y,,,,,,,f,20,
18,6,276,7,7,6,['d'],['d'],Y,N,None,Y,,,,,,,f,20,
18,7,277,11,11,6,['k'],['k'],Y,N,None,Y,,,,,,,f,20,
18,8,278,4,4,6,['d'],['d'],Y,N,None,Y,,,,,,,f,20,
18,9,279,14,14,6,['k'],['k'],Y,N,None,Y,,,,,,,f,20,
18,10,280,4,4,6,['d'],['d'],Y,N,None,Y,,,,,,,f,20,
18,11,281,11,11,6,['d'],['d'],Y,Y,None,N,,,,,,,f,20,
18,12,282,10,10,6,['k'],['k'],Y,Y,['space'],Y,,,,,,,f,20,
18,13,283,1,1,6,['k'],['k'],Y,Y,['space'],Y,,,,,,,f,20,
18,14,284,6,6,6,['d'],['d'],Y,N,None,Y,,,,,,,f,20,
19,0,285,12,12,6,['k'],['k'],Y,N,None,Y,,,,,,,f,20,
19,1,286,13,13,6,['k'],['k'],Y,N,None,Y,,,,,,,f,20,
19,2,287,0,0,6,['k'],['k'],Y,N,None,Y,,,,,,,f,20,
19,3,288,2,2,6,['d'],['d'],Y,N,None,Y,,,,,,,f,20,
19,4,289,8,8,6,['d'],['d'],Y,N,None,Y,,,,,,,f,20,
19,5,290,11,11,6,['k'],['k'],Y,N,None,Y,,,,,,,f,20,
19,6,291,3,3,6,['k'],['k'],Y,N,None,Y,,,,,,,f,20,
19,7,292,9,9,6,['k'],['k'],Y,N,None,Y,,,,,,,f,20,
19,8,293,0,0,6,['k'],['k'],Y,N,None,Y,,,,,,,f,20,
19,9,294,7,7,6,['d'],['d'],Y,Y,['space'],Y,,,,,,,f,20,
19,10,295,10,10,6,['k'],['k'],Y,N,None,Y,,,,,,,f,20,
19,11,296,1,1,6,['k'],['k'],Y,Y,['space'],Y,,,,,,,f,20,
19,12,297,10,10,6,['d'],['d'],Y,Y,['space'],Y,,,,,,,f,20,
19,13,298,12,12,6,['k'],['k'],Y,N,None,Y,,,,,,,f,20,
19,14,299,3,3,6,['d'],['d'],Y,N,None,Y,50,47,20,,,,f,20,
20,0,300,7,7,7,['k'],['k'],Y,,,,,,,,,,f,20,
20,1,301,13,13,7,['d'],['d'],Y,,,,,,,,,,f,20,
20,2,302,2,2,7,['k'],['d'],N,Y,['space'],Y,,,,,,,f,20,
20,3,303,0,0,7,['d'],['d'],Y,Y,['space'],Y,,,,,,,f,20,
20,4,304,11,11,7,['k'],['k'],Y,N,None,Y,,,,,,,f,20,
20,5,305,4,4,7,['d'],['d'],Y,Y,None,N,,,,,,,f,20,
20,6,306,6,6,7,['k'],['k'],Y,Y,['space'],Y,,,,,,,f,20,
20,7,307,4,4,7,['k'],['k'],Y,N,None,Y,,,,,,,f,20,
20,8,308,7,7,7,['d'],['d'],Y,N,['space'],N,,,,,,,f,20,
20,9,309,11,11,7,['k'],['k'],Y,N,None,Y,,,,,,,f,20,
20,10,310,2,2,7,['k'],['k'],Y,N,None,Y,,,,,,,f,20,
20,11,311,10,10,7,['d'],['d'],Y,N,None,Y,,,,,,,f,20,
20,12,312,0,0,7,['d'],['d'],Y,N,None,Y,,,,,,,f,20,
20,13,313,12,12,7,['k'],['k'],Y,N,None,Y,,,,,,,f,20,
20,14,314,4,4,7,['d'],['d'],Y,Y,['space'],Y,,,,,,,f,20,
21,0,315,5,5,7,['k'],['k'],Y,Y,['space'],Y,,,,,,,f,20,
21,1,316,0,0,7,['k'],['k'],Y,Y,['space'],Y,,,,,,,f,20,
21,2,317,10,10,7,['k'],['k'],Y,N,None,Y,,,,,,,f,20,
21,3,318,2,2,7,['k'],['k'],Y,N,None,Y,,,,,,,f,20,
21,4,319,9,9,7,['k'],['k'],Y,N,None,Y,,,,,,,f,20,
21,5,320,4,4,7,['k'],['k'],Y,Y,['space'],Y,,,,,,,f,20,
21,6,321,8,8,7,['k'],['k'],Y,Y,['space'],Y,,,,,,,f,20,
21,7,322,9,9,7,['d'],['d'],Y,Y,['space'],Y,,,,,,,f,20,
21,8,323,0,0,7,['k'],['k'],Y,Y,['space'],Y,,,,,,,f,20,
21,9,324,7,7,7,['k'],['k'],Y,N,None,Y,,,,,,,f,20,
21,10,325,6,6,7,['d'],['d'],Y,Y,['space'],Y,,,,,,,f,20,
21,11,326,8,8,7,['k'],['d'],N,Y,['space'],Y,,,,,,,f,20,
21,12,327,12,12,7,['d'],['d'],Y,Y,['space'],Y,,,,,,,f,20,
21,13,328,14,14,7,['k'],['k'],Y,Y,['space'],Y,,,,,,,f,20,
21,14,329,12,12,7,['k'],['k'],Y,N,None,Y,,,,,,,f,20,
22,0,330,1,1,7,['d'],['d'],Y,N,None,Y,,,,,,,f,20,
22,1,331,14,14,7,['d'],['d'],Y,Y,['space'],Y,,,,,,,f,20,
22,2,332,14,14,7,['k'],['k'],Y,Y,['space'],Y,,,,,,,f,20,
22,3,333,2,2,7,['d'],['d'],Y,N,None,Y,,,,,,,f,20,
22,4,334,12,12,7,['k'],['k'],Y,N,['space'],N,,,,,,,f,20,
22,5,335,9,9,7,['k'],['k'],Y,N,None,Y,,,,,,,f,20,
22,6,336,2,2,7,['k'],['k'],Y,Y,['space'],Y,,,,,,,f,20,
22,7,337,5,5,7,['d'],['d'],Y,Y,['space'],Y,,,,,,,f,20,
22,8,338,9,9,7,['k'],['k'],Y,N,None,Y,,,,,,,f,20,
22,9,339,9,9,7,['d'],['d'],Y,N,None,Y,,,,,,,f,20,
22,10,340,1,1,7,['d'],['d'],Y,Y,['space'],Y,,,,,,,f,20,
22,11,341,12,12,7,['k'],['k'],Y,N,None,Y,,,,,,,f,20,
22,12,342,1,1,7,['d'],['d'],Y,N,None,Y,,,,,,,f,20,
22,13,343,6,6,7,['d'],['d'],Y,Y,['space'],Y,,,,,,,f,20,
22,14,344,9,9,7,['k'],['k'],Y,Y,['space'],Y,,,,,,,f,20,
23,0,345,9,9,7,['k'],['k'],Y,Y,['space'],Y,,,,,,,f,20,
23,1,346,11,11,7,['k'],['k'],Y,Y,['space'],Y,,,,,,,f,20,
23,2,347,2,2,7,['k'],['k'],Y,N,None,Y,,,,,,,f,20,
23,3,348,5,5,7,['k'],['k'],Y,Y,['space'],Y,,,,,,,f,20,
23,4,349,0,0,7,['k'],['k'],Y,N,None,Y,48,45,25,,,,f,20,
23,5,350,5,5,8,['d'],['d'],Y,,,,,,,,,,f,20,
23,6,351,8,8,8,['k'],['k'],Y,,,,,,,,,,f,20,
23,7,352,0,0,8,['d'],['d'],Y,N,None,Y,,,,,,,f,20,
23,8,353,7,7,8,['d'],['d'],Y,N,None,Y,,,,,,,f,20,
23,9,354,13,13,8,['k'],['k'],Y,N,None,Y,,,,,,,f,20,
23,10,355,12,12,8,['d'],['d'],Y,Y,['space'],Y,,,,,,,f,20,
23,11,356,13,13,8,['k'],['k'],Y,Y,['space'],Y,,,,,,,f,20,
23,12,357,13,13,8,['k'],['k'],Y,N,None,Y,,,,,,,f,20,
23,13,358,2,2,8,['d'],['d'],Y,N,None,Y,,,,,,,f,20,
23,14,359,5,5,8,['k'],['k'],Y,N,None,Y,,,,,,,f,20,
24,0,360,8,8,8,['d'],['d'],Y,Y,['space'],Y,,,,,,,f,20,
24,1,361,6,6,8,['d'],['d'],Y,Y,['space'],Y,,,,,,,f,20,
24,2,362,4,4,8,['d'],['d'],Y,Y,['space'],Y,,,,,,,f,20,
24,3,363,9,9,8,['d'],['d'],Y,Y,['space'],Y,,,,,,,f,20,
24,4,364,2,2,8,['k'],['k'],Y,N,None,Y,,,,,,,f,20,
24,5,365,10,10,8,['d'],['d'],Y,N,None,Y,,,,,,,f,20,
24,6,366,11,11,8,['k'],['k'],Y,Y,['space'],Y,,,,,,,f,20,
24,7,367,0,0,8,['d'],['d'],Y,N,None,Y,,,,,,,f,20,
24,8,368,9,9,8,['k'],['k'],Y,Y,['space'],Y,,,,,,,f,20,
24,9,369,8,8,8,['d'],['d'],Y,N,None,Y,,,,,,,f,20,
24,10,370,7,7,8,['k'],['k'],Y,N,None,Y,,,,,,,f,20,
24,11,371,5,5,8,['d'],['d'],Y,N,None,Y,,,,,,,f,20,
24,12,372,3,3,8,['k'],['k'],Y,Y,['space'],Y,,,,,,,f,20,
24,13,373,1,1,8,['k'],['k'],Y,N,None,Y,,,,,,,f,20,
24,14,374,4,4,8,['k'],['k'],Y,Y,['space'],Y,,,,,,,f,20,
25,0,375,9,9,8,['k'],['k'],Y,N,None,Y,,,,,,,f,20,
25,1,376,6,6,8,['k'],['k'],Y,N,None,Y,,,,,,,f,20,
25,2,377,11,11,8,['k'],['k'],Y,Y,['space'],Y,,,,,,,f,20,
25,3,378,13,13,8,['d'],['d'],Y,N,None,Y,,,,,,,f,20,
25,4,379,0,0,8,['k'],['k'],Y,Y,['space'],Y,,,,,,,f,20,
25,5,380,13,13,8,['d'],['d'],Y,Y,['space'],Y,,,,,,,f,20,
25,6,381,1,1,8,['k'],['k'],Y,N,None,Y,,,,,,,f,20,
25,7,382,14,14,8,['k'],['k'],Y,N,None,Y,,,,,,,f,20,
25,8,383,13,13,8,['k'],['k'],Y,N,['space'],N,,,,,,,f,20,
25,9,384,1,1,8,['k'],['k'],Y,Y,['space'],Y,,,,,,,f,20,
25,10,385,0,0,8,['k'],['k'],Y,Y,['space'],Y,,,,,,,f,20,
25,11,386,10,10,8,['d'],['d'],Y,N,None,Y,,,,,,,f,20,
25,12,387,0,0,8,['d'],['d'],Y,Y,['space'],Y,,,,,,,f,20,
25,13,388,2,2,8,['k'],['k'],Y,Y,['space'],Y,,,,,,,f,20,
25,14,389,8,8,8,['k'],['k'],Y,Y,['space'],Y,,,,,,,f,20,
26,0,390,3,3,8,['k'],['k'],Y,Y,['space'],Y,,,,,,,f,20,
26,1,391,14,14,8,['d'],['d'],Y,N,None,Y,,,,,,,f,20,
26,2,392,3,3,8,['k'],['k'],Y,N,None,Y,,,,,,,f,20,
26,3,393,3,3,8,['k'],['k'],Y,Y,['space'],Y,,,,,,,f,20,
26,4,394,11,11,8,['d'],['k'],N,N,None,Y,,,,,,,f,20,
26,5,395,10,10,8,['d'],['d'],Y,N,None,Y,,,,,,,f,20,
26,6,396,14,14,8,['k'],['k'],Y,N,None,Y,,,,,,,f,20,
26,7,397,13,13,8,['d'],['d'],Y,N,None,Y,,,,,,,f,20,
26,8,398,1,1,8,['k'],['k'],Y,N,None,Y,,,,,,,f,20,
26,9,399,11,11,8,['d'],['d'],Y,Y,['space'],Y,49,47,21,,,,f,20,
26,10,400,5,5,9,['k'],['k'],Y,,,,,,,,,,f,20,
26,11,401,13,13,9,['k'],['k'],Y,,,,,,,,,,f,20,
26,12,402,4,4,9,['k'],['k'],Y,Y,['space'],Y,,,,,,,f,20,
26,13,403,7,7,9,['k'],['k'],Y,Y,['space'],Y,,,,,,,f,20,
26,14,404,2,2,9,['d'],['d'],Y,N,None,Y,,,,,,,f,20,
27,0,405,12,12,9,['d'],['d'],Y,Y,['space'],Y,,,,,,,f,20,
27,1,406,9,9,9,['k'],['k'],Y,N,None,Y,,,,,,,f,20,
27,2,407,2,2,9,['k'],['k'],Y,Y,['space'],Y,,,,,,,f,20,
27,3,408,8,8,9,['k'],['k'],Y,N,None,Y,,,,,,,f,20,
27,4,409,10,10,9,['d'],['d'],Y,Y,['space'],Y,,,,,,,f,20,
27,5,410,8,8,9,['k'],['k'],Y,N,None,Y,,,,,,,f,20,
27,6,411,1,1,9,['k'],['k'],Y,N,None,Y,,,,,,,f,20,
27,7,412,14,14,9,['k'],['k'],Y,Y,['space'],Y,,,,,,,f,20,
27,8,413,10,10,9,['k'],['k'],Y,N,None,Y,,,,,,,f,20,
27,9,414,14,14,9,['k'],['k'],Y,Y,['space'],Y,,,,,,,f,20,
27,10,415,6,6,9,['d'],['d'],Y,Y,['space'],Y,,,,,,,f,20,
27,11,416,2,2,9,['k'],['k'],Y,Y,['space'],Y,,,,,,,f,20,
27,12,417,11,11,9,['k'],['k'],Y,N,None,Y,,,,,,,f,20,
27,13,418,3,3,9,['d'],['d'],Y,N,None,Y,,,,,,,f,20,
27,14,419,0,0,9,['k'],['k'],Y,N,None,Y,,,,,,,f,20,
28,0,420,2,2,9,['d'],['d'],Y,Y,['space'],Y,,,,,,,f,20,
28,1,421,2,2,9,['k'],['k'],Y,Y,['space'],Y,,,,,,,f,20,
28,2,422,14,14,9,['d'],['d'],Y,Y,None,N,,,,,,,f,20,
28,3,423,12,12,9,['d'],['d'],Y,Y,['space'],Y,,,,,,,f,20,
28,4,424,13,13,9,['d'],['d'],Y,Y,['space'],Y,,,,,,,f,20,
28,5,425,4,4,9,['k'],['k'],Y,Y,['space'],Y,,,,,,,f,20,
28,6,426,9,9,9,['k'],['k'],Y,Y,['space'],Y,,,,,,,f,20,
28,7,427,7,7,9,['k'],['k'],Y,N,None,Y,,,,,,,f,20,
28,8,428,9,9,9,['k'],['k'],Y,Y,['space'],Y,,,,,,,f,20,
28,9,429,3,3,9,['d'],['d'],Y,N,None,Y,,,,,,,f,20,
28,10,430,11,11,9,['d'],['d'],Y,Y,['space'],Y,,,,,,,f,20,
28,11,431,10,10,9,['k'],['k'],Y,Y,['space'],Y,,,,,,,f,20,
28,12,432,10,10,9,['d'],['d'],Y,Y,['space'],Y,,,,,,,f,20,
28,13,433,7,7,9,['d'],['d'],Y,N,None,Y,,,,,,,f,20,
28,14,434,7,7,9,['k'],['k'],Y,N,None,Y,,,,,,,f,20,
29,0,435,13,13,9,['d'],['d'],Y,N,None,Y,,,,,,,f,20,
29,1,436,10,10,9,['k'],['k'],Y,N,None,Y,,,,,,,f,20,
29,2,437,1,1,9,['k'],['k'],Y,Y,['space'],Y,,,,,,,f,20,
29,3,438,4,4,9,['d'],['d'],Y,Y,['space'],Y,,,,,,,f,20,
29,4,439,5,5,9,['k'],['k'],Y,Y,['space'],Y,,,,,,,f,20,
29,5,440,6,6,9,['d'],['d'],Y,N,None,Y,,,,,,,f,20,
29,6,441,1,1,9,['k'],['k'],Y,N,None,Y,,,,,,,f,20,
29,7,442,10,10,9,['d'],['d'],Y,N,None,Y,,,,,,,f,20,
29,8,443,12,12,9,['d'],['d'],Y,N,None,Y,,,,,,,f,20,
29,9,444,11,11,9,['k'],['k'],Y,Y,['space'],Y,,,,,,,f,20,
29,10,445,12,12,9,['d'],['d'],Y,N,None,Y,,,,,,,f,20,
29,11,446,13,13,9,['k'],['k'],Y,Y,['space'],Y,,,,,,,f,20,
29,12,447,5,5,9,['k'],['k'],Y,N,None,Y,,,,,,,f,20,
29,13,448,12,12,9,['d'],['d'],Y,N,None,Y,,,,,,,f,20,
29,14,449,12,12,9,['d'],['d'],Y,N,None,Y,50,47,25,,,,f,20,
30,0,450,0,0,10,['d'],['d'],Y,,,,,,,,,,f,20,
30,1,451,6,6,10,['d'],['d'],Y,,,,,,,,,,f,20,
30,2,452,13,13,10,['d'],['d'],Y,Y,['space'],Y,,,,,,,f,20,
30,3,453,6,6,10,['d'],['d'],Y,Y,['space'],Y,,,,,,,f,20,
30,4,454,12,12,10,['k'],['k'],Y,N,None,Y,,,,,,,f,20,
30,5,455,8,8,10,['k'],['k'],Y,Y,['space'],Y,,,,,,,f,20,
30,6,456,14,14,10,['k'],['k'],Y,N,None,Y,,,,,,,f,20,
30,7,457,6,6,10,['k'],['k'],Y,N,None,Y,,,,,,,f,20,
30,8,458,7,7,10,['d'],['d'],Y,N,None,Y,,,,,,,f,20,
30,9,459,9,9,10,['k'],['k'],Y,Y,['space'],Y,,,,,,,f,20,
30,10,460,13,13,10,['d'],['d'],Y,N,None,Y,,,,,,,f,20,
30,11,461,7,7,10,['d'],['d'],Y,Y,['space'],Y,,,,,,,f,20,
30,12,462,0,0,10,['d'],['d'],Y,Y,['space'],Y,,,,,,,f,20,
30,13,463,6,6,10,['d'],['d'],Y,N,None,Y,,,,,,,f,20,
30,14,464,14,14,10,['k'],['k'],Y,N,None,Y,,,,,,,f,20,
31,0,465,0,0,10,['d'],['k'],N,Y,['space'],Y,,,,,,,f,20,
31,1,466,2,2,10,['d'],['d'],Y,Y,['space'],Y,,,,,,,f,20,
31,2,467,12,12,10,['k'],['k'],Y,Y,['space'],Y,,,,,,,f,20,
31,3,468,5,5,10,['k'],['k'],Y,N,None,Y,,,,,,,f,20,
31,4,469,13,13,10,['k'],['k'],Y,N,None,Y,,,,,,,f,20,
31,5,470,9,9,10,['d'],['d'],Y,Y,['space'],Y,,,,,,,f,20,
31,6,471,5,5,10,['k'],['k'],Y,N,None,Y,,,,,,,f,20,
31,7,472,1,1,10,['k'],['k'],Y,Y,['space'],Y,,,,,,,f,20,
31,8,473,12,12,10,['d'],['d'],Y,Y,['space'],Y,,,,,,,f,20,
31,9,474,0,0,10,['d'],['d'],Y,Y,['space'],Y,,,,,,,f,20,
31,10,475,13,13,10,['k'],['k'],Y,Y,['space'],Y,,,,,,,f,20,
31,11,476,14,14,10,['k'],['k'],Y,N,None,Y,,,,,,,f,20,
31,12,477,9,9,10,['d'],['d'],Y,Y,['space'],Y,,,,,,,f,20,
31,13,478,11,11,10,['k'],['k'],Y,N,None,Y,,,,,,,f,20,
31,14,479,11,11,10,['d'],['d'],Y,N,None,Y,,,,,,,f,20,
32,0,480,1,1,10,['d'],['d'],Y,N,None,Y,,,,,,,f,20,
32,1,481,4,4,10,['d'],['d'],Y,Y,['space'],Y,,,,,,,f,20,
32,2,482,0,0,10,['k'],['k'],Y,N,None,Y,,,,,,,f,20,
32,3,483,10,10,10,['d'],['d'],Y,Y,['space'],Y,,,,,,,f,20,
32,4,484,12,12,10,['k'],['k'],Y,N,None,Y,,,,,,,f,20,
32,5,485,4,4,10,['d'],['d'],Y,N,None,Y,,,,,,,f,20,
32,6,486,14,14,10,['k'],['k'],Y,N,None,Y,,,,,,,f,20,
32,7,487,2,2,10,['k'],['k'],Y,N,None,Y,,,,,,,f,20,
32,8,488,9,9,10,['d'],['d'],Y,N,None,Y,,,,,,,f,20,
32,9,489,5,5,10,['k'],['k'],Y,Y,['space'],Y,,,,,,,f,20,
32,10,490,14,14,10,['d'],['d'],Y,Y,['space'],Y,,,,,,,f,20,
32,11,491,1,1,10,['d'],['d'],Y,N,None,Y,,,,,,,f,20,
32,12,492,4,4,10,['k'],['k'],Y,N,None,Y,,,,,,,f,20,
32,13,493,6,6,10,['k'],['k'],Y,Y,['space'],Y,,,,,,,f,20,
32,14,494,6,6,10,['d'],['d'],Y,Y,['space'],Y,,,,,,,f,20,
33,0,495,2,2,10,['k'],['k'],Y,N,None,Y,,,,,,,f,20,
33,1,496,14,14,10,['k'],['k'],Y,N,None,Y,,,,,,,f,20,
33,2,497,13,13,10,['d'],['d'],Y,Y,['space'],Y,,,,,,,f,20,
33,3,498,0,0,10,['d'],['d'],Y,Y,['space'],Y,,,,,,,f,20,
33,4,499,2,2,10,['d'],['d'],Y,Y,None,N,49,47,24,,,,f,20,
33,5,500,14,14,11,['d'],['k'],Y,,,,,,,Y,Y,Y,f,20,
33,6,501,9,9,11,['k'],['d'],Y,,,,,,,,Y,Y,f,20,
33,7,502,11,11,11,['d'],['k'],Y,N,None,Y,,,,,Y,Y,f,20,
33,8,503,10,10,11,['d'],['k'],Y,Y,['space'],Y,,,,,Y,Y,f,20,
33,9,504,2,2,11,['k'],['d'],Y,N,None,Y,,,,,Y,Y,f,20,
33,10,505,5,5,11,['k'],['d'],Y,N,None,Y,,,,,Y,Y,f,20,
33,11,506,6,6,11,['k'],['d'],Y,Y,['space'],Y,,,,,Y,Y,f,20,
33,12,507,3,3,11,['k'],['d'],Y,N,None,Y,,,,,Y,Y,f,20,
33,13,508,10,10,11,['d'],['k'],Y,N,None,Y,,,,,Y,Y,f,20,
33,14,509,5,5,11,['d'],['k'],Y,N,None,Y,,,,,Y,Y,f,20,
34,0,510,14,14,11,['k'],['d'],Y,N,['space'],N,,,,,Y,Y,f,20,
34,1,511,10,10,11,['d'],['d'],N,N,['space'],N,,,,,Y,Y,f,20,
34,2,512,8,8,11,['k'],['k'],N,Y,['space'],Y,,,,,Y,Y,f,20,
34,3,513,1,1,11,['d'],['d'],N,Y,['space'],Y,,,,,Y,Y,f,20,
34,4,514,0,0,11,['d'],['k'],Y,N,None,Y,,,,,Y,Y,f,20,
34,5,515,12,12,11,['k'],['d'],Y,Y,['space'],Y,,,,,Y,Y,f,20,
34,6,516,6,6,11,['k'],['d'],Y,Y,['space'],Y,,,,,Y,Y,f,20,
34,7,517,6,6,11,['d'],['k'],Y,N,None,Y,,,,,Y,Y,f,20,
34,8,518,1,1,11,['d'],['k'],Y,Y,['space'],Y,,,,,Y,Y,f,20,
34,9,519,8,8,11,['k'],['d'],Y,Y,['space'],Y,,,,,Y,Y,f,20,
34,10,520,2,2,11,['d'],['k'],Y,N,None,Y,,,,,Y,Y,f,20,
34,11,521,9,9,11,['k'],['d'],Y,Y,['space'],Y,,,,,Y,Y,f,20,
34,12,522,10,10,11,['d'],['k'],Y,Y,['space'],Y,,,,,Y,Y,f,20,
34,13,523,7,7,11,['k'],['k'],N,Y,['space'],Y,,,,,Y,Y,f,20,
34,14,524,13,13,11,['d'],['k'],Y,Y,['space'],Y,,,,,Y,Y,f,20,
35,0,525,3,3,11,['d'],['k'],Y,N,None,Y,,,,,Y,Y,f,20,
35,1,526,8,8,11,None,,Timed out,N,None,Y,,,,,Y,Y,f,20,
35,2,527,5,5,11,['k'],['d'],Y,N,None,Y,,,,,Y,Y,f,20,
35,3,528,8,8,11,['d'],['k'],Y,N,None,Y,,,,,Y,Y,f,20,
35,4,529,0,0,11,['k'],['k'],N,Y,None,N,,,,,Y,Y,f,20,
35,5,530,5,5,11,['k'],['k'],N,Y,['space'],Y,,,,,Y,Y,f,20,
35,6,531,4,4,11,['d'],['k'],Y,N,None,Y,,,,,Y,Y,f,20,
35,7,532,8,8,11,['k'],['d'],Y,Y,None,N,,,,,Y,Y,f,20,
35,8,533,7,7,11,['d'],['k'],Y,Y,['space'],Y,,,,,Y,Y,f,20,
35,9,534,11,11,11,['k'],['d'],Y,N,None,Y,,,,,Y,Y,f,20,
35,10,535,14,14,11,['k'],['d'],Y,Y,['space'],Y,,,,,Y,Y,f,20,
35,11,536,10,10,11,['k'],['d'],Y,Y,['space'],Y,,,,,Y,Y,f,20,
35,12,537,13,13,11,['d'],['k'],Y,Y,['space'],Y,,,,,Y,Y,f,20,
35,13,538,10,10,11,['d'],['k'],Y,N,None,Y,,,,,Y,Y,f,20,
35,14,539,12,12,11,['d'],['k'],Y,N,None,Y,,,,,Y,Y,f,20,
36,0,540,13,13,11,['d'],['k'],Y,Y,['space'],Y,,,,,Y,Y,f,20,
36,1,541,11,11,11,['k'],['d'],Y,Y,['space'],Y,,,,,Y,Y,f,20,
36,2,542,10,10,11,['k'],['d'],Y,N,None,Y,,,,,Y,Y,f,20,
36,3,543,7,7,11,['d'],['k'],Y,N,None,Y,,,,,Y,Y,f,20,
36,4,544,4,4,11,['d'],['k'],Y,N,None,Y,,,,,Y,Y,f,20,
36,5,545,0,0,11,['d'],['k'],Y,Y,['space'],Y,,,,,Y,Y,f,20,
36,6,546,6,6,11,['k'],['k'],N,N,None,Y,,,,,Y,Y,f,20,
36,7,547,11,11,11,['k'],['d'],Y,Y,['space'],Y,,,,,Y,Y,f,20,
36,8,548,8,8,11,['d'],['k'],Y,Y,['space'],Y,,,,,Y,Y,f,20,
36,9,549,7,7,11,['k'],['d'],Y,N,None,Y,42,44,24,,Y,Y,f,20,
36,10,550,1,1,12,['k'],['d'],Y,,,,,,,,Y,Y,f,20,
36,11,551,14,14,12,['k'],['d'],Y,,,,,,,,Y,Y,f,20,
36,12,552,3,3,12,['d'],['k'],Y,Y,['space'],Y,,,,,Y,Y,f,20,
36,13,553,0,0,12,['k'],['d'],Y,Y,['space'],Y,,,,,Y,Y,f,20,
36,14,554,5,5,12,['d'],['k'],Y,N,None,Y,,,,,Y,Y,f,20,
37,0,555,8,8,12,['k'],['d'],Y,N,None,Y,,,,,Y,Y,f,20,
37,1,556,9,9,12,['k'],['d'],Y,N,None,Y,,,,,Y,Y,f,20,
37,2,557,14,14,12,['d'],['k'],Y,Y,['space'],Y,,,,,Y,Y,f,20,
37,3,558,5,5,12,['d'],['k'],Y,Y,['space'],Y,,,,,Y,Y,f,20,
37,4,559,3,3,12,['k'],['d'],Y,N,None,Y,,,,,Y,Y,f,20,
37,5,560,9,9,12,['d'],['k'],Y,N,None,Y,,,,,Y,Y,f,20,
37,6,561,2,2,12,['k'],['d'],Y,Y,['space'],Y,,,,,Y,Y,f,20,
37,7,562,6,6,12,['d'],['k'],Y,N,None,Y,,,,,Y,Y,f,20,
37,8,563,5,5,12,['k'],['d'],Y,Y,['space'],Y,,,,,Y,Y,f,20,
37,9,564,1,1,12,['k'],['d'],Y,N,None,Y,,,,,Y,Y,f,20,
37,10,565,3,3,12,['d'],['k'],Y,N,None,Y,,,,,Y,Y,f,20,
37,11,566,0,0,12,['d'],['d'],N,Y,['space'],Y,,,,,Y,Y,f,20,
37,12,567,0,0,12,['d'],['k'],Y,Y,['space'],Y,,,,,Y,Y,f,20,
37,13,568,8,8,12,['d'],['k'],Y,Y,['space'],Y,,,,,Y,Y,f,20,
37,14,569,10,10,12,['k'],['d'],Y,N,None,Y,,,,,Y,Y,f,20,
38,0,570,2,2,12,['d'],['d'],N,Y,['space'],Y,,,,,Y,Y,f,20,
38,1,571,4,4,12,['k'],['d'],Y,N,None,Y,,,,,Y,Y,f,20,
38,2,572,9,9,12,['k'],['d'],Y,N,['space'],N,,,,,Y,Y,f,20,
38,3,573,7,7,12,['d'],['k'],Y,Y,['space'],Y,,,,,Y,Y,f,20,
38,4,574,11,11,12,['k'],['d'],Y,Y,['space'],Y,,,,,Y,Y,f,20,
38,5,575,11,11,12,['k'],['d'],Y,N,None,Y,,,,,Y,Y,f,20,
38,6,576,7,7,12,['d'],['k'],Y,Y,['space'],Y,,,,,Y,Y,f,20,
38,7,577,12,12,12,['k'],['d'],Y,Y,['space'],Y,,,,,Y,Y,f,20,
38,8,578,6,6,12,['d'],['k'],Y,N,None,Y,,,,,Y,Y,f,20,
38,9,579,7,7,12,['d'],['k'],Y,N,None,Y,,,,,Y,Y,f,20,
38,10,580,9,9,12,['d'],['k'],Y,N,None,Y,,,,,Y,Y,f,20,
38,11,581,13,13,12,['k'],['d'],Y,N,None,Y,,,,,Y,Y,f,20,
38,12,582,3,3,12,['d'],['k'],Y,Y,['space'],Y,,,,,Y,Y,f,20,
38,13,583,11,11,12,['k'],['d'],Y,Y,['space'],Y,,,,,Y,Y,f,20,
38,14,584,1,1,12,['k'],['d'],Y,Y,['space'],Y,,,,,Y,Y,f,20,
39,0,585,12,12,12,['k'],['d'],Y,N,None,Y,,,,,Y,Y,f,20,
39,1,586,13,13,12,['k'],['d'],Y,Y,['space'],Y,,,,,Y,Y,f,20,
39,2,587,8,8,12,['k'],['d'],Y,N,None,Y,,,,,Y,Y,f,20,
39,3,588,4,4,12,['d'],['k'],Y,N,None,Y,,,,,Y,Y,f,20,
39,4,589,7,7,12,['d'],['k'],Y,N,None,Y,,,,,Y,Y,f,20,
39,5,590,5,5,12,['k'],['d'],Y,N,None,Y,,,,,Y,Y,f,20,
39,6,591,2,2,12,['d'],['k'],Y,Y,['space'],Y,,,,,Y,Y,f,20,
39,7,592,0,0,12,['k'],['d'],Y,N,None,Y,,,,,Y,Y,f,20,
39,8,593,9,9,12,['k'],['k'],N,Y,['space'],Y,,,,,Y,Y,f,20,
39,9,594,6,6,12,['d'],['d'],N,Y,['space'],Y,,,,,Y,Y,f,20,
39,10,595,2,2,12,['k'],['d'],Y,Y,['space'],Y,,,,,Y,Y,f,20,
39,11,596,1,1,12,['d'],['k'],Y,Y,['space'],Y,,,,,Y,Y,f,20,
39,12,597,6,6,12,['k'],['d'],Y,N,None,Y,,,,,Y,Y,f,20,
39,13,598,12,12,12,['k'],['d'],Y,N,None,Y,,,,,Y,Y,f,20,
39,14,599,9,9,12,['d'],['k'],Y,Y,['space'],Y,46,47,24,,Y,Y,f,20,
