.thisRepN,.thisTrialN,.thisN,.thisIndex,.thisTrial,Block Number,Key pressed,Category,Correct?,Int Match?,Int Response,Int Correct?,Line Accuracy,Interference Accuracy,Matching Interferences,New instruction shown?,Buttons switched?,Fast?,gender,age,
0,0,0,13,13,1,['d'],['d'],Y,,,,,,,,,,male,20,
0,1,1,0,0,1,['d'],['d'],Y,,,,,,,,,,male,20,
0,2,2,8,8,1,['d'],['k'],N,N,None,Y,,,,,,,male,20,
0,3,3,12,12,1,['k'],['d'],N,N,None,Y,,,,,,,male,20,
0,4,4,12,12,1,['k'],['k'],Y,N,['space'],N,,,,,,,male,20,
0,5,5,6,6,1,['d'],['k'],N,Y,['space'],Y,,,,,,,male,20,
0,6,6,2,2,1,['d'],['k'],N,N,['space'],N,,,,,,,male,20,
0,7,7,8,8,1,['d'],['d'],Y,N,None,Y,,,,,,,male,20,
0,8,8,2,2,1,['d'],['k'],N,Y,None,N,,,,,,,male,20,
0,9,9,4,4,1,['d'],['d'],Y,Y,None,N,,,,,,,male,20,
0,10,10,1,1,1,['k'],['d'],N,N,None,Y,,,,,,,male,20,
0,11,11,13,13,1,['k'],['k'],Y,N,None,Y,,,,,,,male,20,
0,12,12,13,13,1,['d'],['k'],N,Y,None,N,,,,,,,male,20,
0,13,13,6,6,1,['k'],['d'],N,Y,['space'],Y,,,,,,,male,20,
0,14,14,0,0,1,['d'],['d'],Y,Y,None,N,,,,,,,male,20,
1,0,15,12,12,1,['d'],['d'],Y,N,['space'],N,,,,,,,male,20,
1,1,16,8,8,1,None,,Timed out,Y,None,N,,,,,,,male,20,
1,2,17,1,1,1,['k'],['d'],N,Y,None,N,,,,,,,male,20,
1,3,18,7,7,1,['d'],['d'],Y,N,None,Y,,,,,,,male,20,
1,4,19,1,1,1,['k'],['d'],N,Y,['space'],Y,,,,,,,male,20,
1,5,20,0,0,1,['d'],['k'],N,N,None,Y,,,,,,,male,20,
1,6,21,0,0,1,['k'],['k'],Y,Y,['space'],Y,,,,,,,male,20,
1,7,22,6,6,1,['d'],['k'],N,Y,None,N,,,,,,,male,20,
1,8,23,0,0,1,['k'],['d'],N,N,None,Y,,,,,,,male,20,
1,9,24,11,11,1,['d'],['d'],Y,Y,['space'],Y,,,,,,,male,20,
1,10,25,10,10,1,['d'],['d'],Y,Y,['space'],Y,,,,,,,male,20,
1,11,26,0,0,1,['d'],['d'],Y,N,None,Y,,,,,,,male,20,
1,12,27,1,1,1,['k'],['k'],Y,Y,['space'],Y,,,,,,,male,20,
1,13,28,8,8,1,['d'],['k'],N,Y,['space'],Y,,,,,,,male,20,
1,14,29,13,13,1,['k'],['k'],Y,N,None,Y,,,,,,,male,20,
2,0,30,4,4,1,['d'],['k'],N,Y,['space'],Y,,,,,,,male,20,
2,1,31,13,13,1,['k'],['k'],Y,N,None,Y,,,,,,,male,20,
2,2,32,0,0,1,['d'],['d'],Y,Y,None,N,,,,,,,male,20,
2,3,33,3,3,1,['d'],['k'],N,N,None,Y,,,,,,,male,20,
2,4,34,10,10,1,['k'],['d'],N,Y,['space'],Y,,,,,,,male,20,
2,5,35,8,8,1,['d'],['d'],Y,N,None,Y,,,,,,,male,20,
2,6,36,6,6,1,['d'],['k'],N,Y,None,N,,,,,,,male,20,
2,7,37,13,13,1,['k'],['k'],Y,Y,['space'],Y,,,,,,,male,20,
2,8,38,12,12,1,['d'],['k'],N,N,['space'],N,,,,,,,male,20,
2,9,39,8,8,1,['k'],['k'],Y,Y,['space'],Y,,,,,,,male,20,
2,10,40,1,1,1,['d'],['d'],Y,N,None,Y,,,,,,,male,20,
2,11,41,13,13,1,['k'],['k'],Y,Y,['space'],Y,,,,,,,male,20,
2,12,42,5,5,1,['d'],['d'],Y,Y,['space'],Y,,,,,,,male,20,
2,13,43,14,14,1,['d'],['d'],Y,Y,['space'],Y,,,,,,,male,20,
2,14,44,10,10,1,['d'],['k'],N,N,None,Y,,,,,,,male,20,
3,0,45,6,6,1,['k'],['k'],Y,Y,['space'],Y,,,,,,,male,20,
3,1,46,5,5,1,['d'],['k'],N,N,None,Y,,,,,,,male,20,
3,2,47,3,3,1,['k'],['d'],N,N,None,Y,,,,,,,male,20,
3,3,48,8,8,1,['d'],['d'],Y,N,['space'],N,,,,,,,male,20,
3,4,49,14,14,1,['k'],['d'],N,N,None,Y,26,34,25,,,,male,20,
3,5,50,7,7,2,['d'],['d'],Y,,,,,,,,,,male,20,
3,6,51,9,9,2,['d'],['k'],N,,,,,,,,,,male,20,
3,7,52,10,10,2,['k'],['d'],N,N,None,Y,,,,,,,male,20,
3,8,53,1,1,2,['d'],['d'],Y,N,None,Y,,,,,,,male,20,
3,9,54,5,5,2,['d'],['d'],Y,Y,['space'],Y,,,,,,,male,20,
3,10,55,14,14,2,['d'],['d'],Y,Y,None,N,,,,,,,male,20,
3,11,56,10,10,2,['d'],['d'],Y,N,None,Y,,,,,,,male,20,
3,12,57,8,8,2,['d'],['d'],Y,N,None,Y,,,,,,,male,20,
3,13,58,5,5,2,['k'],['d'],N,N,None,Y,,,,,,,male,20,
3,14,59,4,4,2,['d'],['d'],Y,Y,['space'],Y,,,,,,,male,20,
4,0,60,9,9,2,['d'],['d'],Y,Y,['space'],Y,,,,,,,male,20,
4,1,61,14,14,2,['d'],['d'],Y,N,None,Y,,,,,,,male,20,
4,2,62,5,5,2,['d'],['d'],Y,Y,['space'],Y,,,,,,,male,20,
4,3,63,5,5,2,['k'],['d'],N,Y,['k'],N,,,,,,,male,20,
4,4,64,14,14,2,['d'],['d'],Y,N,None,Y,,,,,,,male,20,
4,5,65,4,4,2,['d'],['k'],N,Y,['space'],Y,,,,,,,male,20,
4,6,66,9,9,2,['d'],['d'],Y,N,None,Y,,,,,,,male,20,
4,7,67,8,8,2,['d'],['k'],N,Y,['space'],Y,,,,,,,male,20,
4,8,68,7,7,2,['k'],['k'],Y,N,None,Y,,,,,,,male,20,
4,9,69,10,10,2,['d'],['d'],Y,Y,['space'],Y,,,,,,,male,20,
4,10,70,7,7,2,['k'],['k'],Y,Y,['space'],Y,,,,,,,male,20,
4,11,71,4,4,2,['d'],['k'],N,N,None,Y,,,,,,,male,20,
4,12,72,14,14,2,['k'],['k'],Y,Y,['space'],Y,,,,,,,male,20,
4,13,73,0,0,2,['d'],['d'],Y,N,None,Y,,,,,,,male,20,
4,14,74,1,1,2,['d'],['k'],N,Y,['space'],Y,,,,,,,male,20,
5,0,75,12,12,2,['k'],['k'],Y,N,None,Y,,,,,,,male,20,
5,1,76,11,11,2,['d'],['d'],Y,N,None,Y,,,,,,,male,20,
5,2,77,11,11,2,['k'],['k'],Y,Y,['space'],Y,,,,,,,male,20,
5,3,78,2,2,2,['d'],['k'],N,N,None,Y,,,,,,,male,20,
5,4,79,1,1,2,['k'],['k'],Y,N,['space'],N,,,,,,,male,20,
5,5,80,4,4,2,['k'],['d'],N,Y,['space'],Y,,,,,,,male,20,
5,6,81,10,10,2,['d'],['k'],N,N,None,Y,,,,,,,male,20,
5,7,82,11,11,2,['k'],['k'],Y,N,None,Y,,,,,,,male,20,
5,8,83,4,4,2,['k'],['d'],N,Y,None,N,,,,,,,male,20,
5,9,84,11,11,2,['d'],['d'],Y,Y,['space'],Y,,,,,,,male,20,
5,10,85,0,0,2,['k'],['k'],Y,N,None,Y,,,,,,,male,20,
5,11,86,3,3,2,['d'],['k'],N,Y,['space'],Y,,,,,,,male,20,
5,12,87,9,9,2,['k'],['d'],N,Y,['space'],Y,,,,,,,male,20,
5,13,88,9,9,2,['d'],['k'],N,Y,['space'],Y,,,,,,,male,20,
5,14,89,12,12,2,['k'],['d'],N,N,None,Y,,,,,,,male,20,
6,0,90,3,3,2,['k'],['k'],Y,N,None,Y,,,,,,,male,20,
6,1,91,4,4,2,['d'],['k'],N,N,None,Y,,,,,,,male,20,
6,2,92,6,6,2,['k'],['d'],N,Y,['space'],Y,,,,,,,male,20,
6,3,93,6,6,2,['d'],['k'],N,Y,['space'],Y,,,,,,,male,20,
6,4,94,11,11,2,['d'],['k'],N,N,None,Y,,,,,,,male,20,
6,5,95,7,7,2,['d'],['k'],N,N,['k'],N,,,,,,,male,20,
6,6,96,6,6,2,['k'],['k'],Y,Y,['space'],Y,,,,,,,male,20,
6,7,97,0,0,2,['k'],['k'],Y,Y,['space'],Y,,,,,,,male,20,
6,8,98,10,10,2,['k'],['d'],N,Y,None,N,,,,,,,male,20,
6,9,99,1,1,2,['d'],['d'],Y,N,None,Y,28,42,24,,,,male,20,
6,10,100,14,14,3,['d'],['d'],Y,,,,,,,,,,male,20,
6,11,101,13,13,3,['d'],['d'],Y,,,,,,,,,,male,20,
6,12,102,4,4,3,['d'],['k'],N,N,None,Y,,,,,,,male,20,
6,13,103,12,12,3,['d'],['k'],N,N,None,Y,,,,,,,male,20,
6,14,104,5,5,3,['k'],['d'],N,Y,['space'],Y,,,,,,,male,20,
7,0,105,0,0,3,['d'],['d'],Y,Y,['space'],Y,,,,,,,male,20,
7,1,106,13,13,3,['d'],['d'],Y,N,None,Y,,,,,,,male,20,
7,2,107,6,6,3,['k'],['k'],Y,N,None,Y,,,,,,,male,20,
7,3,108,1,1,3,['d'],['k'],N,N,None,Y,,,,,,,male,20,
7,4,109,9,9,3,['k'],['d'],N,N,None,Y,,,,,,,male,20,
7,5,110,10,10,3,['k'],['d'],N,N,None,Y,,,,,,,male,20,
7,6,111,3,3,3,['d'],['k'],N,N,None,Y,,,,,,,male,20,
7,7,112,3,3,3,['d'],['d'],Y,Y,['space'],Y,,,,,,,male,20,
7,8,113,9,9,3,['k'],['d'],N,N,None,Y,,,,,,,male,20,
7,9,114,4,4,3,['d'],['k'],N,N,None,Y,,,,,,,male,20,
7,10,115,2,2,3,['k'],['d'],N,N,None,Y,,,,,,,male,20,
7,11,116,0,0,3,['k'],['k'],Y,N,None,Y,,,,,,,male,20,
7,12,117,2,2,3,['d'],['d'],Y,N,['space'],N,,,,,,,male,20,
7,13,118,1,1,3,['k'],['k'],Y,Y,None,N,,,,,,,male,20,
7,14,119,6,6,3,['d'],['d'],Y,Y,['space'],Y,,,,,,,male,20,
8,0,120,13,13,3,['k'],['d'],N,N,None,Y,,,,,,,male,20,
8,1,121,8,8,3,['d'],['d'],Y,N,None,Y,,,,,,,male,20,
8,2,122,9,9,3,['d'],['d'],Y,Y,['space'],Y,,,,,,,male,20,
8,3,123,6,6,3,['d'],['k'],N,N,None,Y,,,,,,,male,20,
8,4,124,3,3,3,['k'],['k'],Y,N,None,Y,,,,,,,male,20,
8,5,125,0,0,3,['d'],['k'],N,N,None,Y,,,,,,,male,20,
8,6,126,11,11,3,['k'],['d'],N,Y,['space'],Y,,,,,,,male,20,
8,7,127,3,3,3,['d'],['k'],N,N,['space'],N,,,,,,,male,20,
8,8,128,1,1,3,['d'],['k'],N,N,None,Y,,,,,,,male,20,
8,9,129,12,12,3,['k'],['d'],N,N,['space'],N,,,,,,,male,20,
8,10,130,5,5,3,['k'],['k'],Y,Y,None,N,,,,,,,male,20,
8,11,131,13,13,3,['d'],['d'],Y,Y,['space'],Y,,,,,,,male,20,
8,12,132,9,9,3,['d'],['k'],N,N,None,Y,,,,,,,male,20,
8,13,133,3,3,3,['d'],['d'],Y,Y,['space'],Y,,,,,,,male,20,
8,14,134,5,5,3,['k'],['d'],N,N,None,Y,,,,,,,male,20,
9,0,135,14,14,3,['d'],['k'],N,Y,None,N,,,,,,,male,20,
9,1,136,2,2,3,['k'],['d'],N,N,None,Y,,,,,,,male,20,
9,2,137,13,13,3,['d'],['k'],N,Y,['space'],Y,,,,,,,male,20,
9,3,138,10,10,3,['d'],['k'],N,N,None,Y,,,,,,,male,20,
9,4,139,0,0,3,['k'],['d'],N,N,None,Y,,,,,,,male,20,
9,5,140,0,0,3,['d'],['k'],N,Y,['space'],Y,,,,,,,male,20,
9,6,141,7,7,3,['k'],['k'],Y,N,None,Y,,,,,,,male,20,
9,7,142,11,11,3,['d'],['k'],N,N,None,Y,,,,,,,male,20,
9,8,143,5,5,3,['k'],['k'],Y,Y,['k'],N,,,,,,,male,20,
9,9,144,14,14,3,['d'],['d'],Y,N,None,Y,,,,,,,male,20,
9,10,145,3,3,3,['d'],['k'],N,N,None,Y,,,,,,,male,20,
9,11,146,2,2,3,['d'],['d'],Y,Y,['space'],Y,,,,,,,male,20,
9,12,147,12,12,3,['k'],['k'],Y,N,['space'],N,,,,,,,male,20,
9,13,148,1,1,3,['d'],['k'],N,Y,['space'],Y,,,,,,,male,20,
9,14,149,9,9,3,['k'],['d'],N,N,None,Y,21,40,16,,,,male,20,
10,0,150,2,2,4,['d'],['k'],N,,,,,,,,,,male,20,
10,1,151,11,11,4,['k'],['d'],N,,,,,,,,,,male,20,
10,2,152,8,8,4,['d'],['k'],N,Y,['space'],Y,,,,,,,male,20,
10,3,153,14,14,4,['d'],['d'],Y,N,None,Y,,,,,,,male,20,
10,4,154,2,2,4,['d'],['k'],N,Y,['space'],Y,,,,,,,male,20,
10,5,155,6,6,4,['d'],['d'],Y,Y,None,N,,,,,,,male,20,
10,6,156,8,8,4,None,,Timed out,N,None,Y,,,,,,,male,20,
10,7,157,14,14,4,['d'],['d'],Y,Y,None,N,,,,,,,male,20,
10,8,158,3,3,4,['k'],['d'],N,N,None,Y,,,,,,,male,20,
10,9,159,13,13,4,['d'],['k'],N,N,None,Y,,,,,,,male,20,
10,10,160,11,11,4,['k'],['d'],N,N,None,Y,,,,,,,male,20,
10,11,161,11,11,4,['d'],['k'],N,N,None,Y,,,,,,,male,20,
10,12,162,3,3,4,['d'],['d'],Y,Y,None,N,,,,,,,male,20,
10,13,163,11,11,4,['k'],['k'],Y,Y,None,N,,,,,,,male,20,
10,14,164,14,14,4,['d'],['d'],Y,N,None,Y,,,,,,,male,20,
11,0,165,10,10,4,['k'],['d'],N,N,None,Y,,,,,,,male,20,
11,1,166,11,11,4,['d'],['d'],Y,Y,None,N,,,,,,,male,20,
11,2,167,7,7,4,['d'],['d'],Y,N,None,Y,,,,,,,male,20,
11,3,168,11,11,4,['k'],['k'],Y,Y,None,N,,,,,,,male,20,
11,4,169,13,13,4,['k'],['d'],N,N,None,Y,,,,,,,male,20,
11,5,170,2,2,4,['k'],['k'],Y,N,None,Y,,,,,,,male,20,
11,6,171,1,1,4,['d'],['d'],Y,Y,['space'],Y,,,,,,,male,20,
11,7,172,11,11,4,['d'],['d'],Y,N,None,Y,,,,,,,male,20,
11,8,173,4,4,4,['k'],['k'],Y,N,None,Y,,,,,,,male,20,
11,9,174,0,0,4,['k'],['k'],Y,N,None,Y,,,,,,,male,20,
11,10,175,14,14,4,['k'],['k'],Y,N,None,Y,,,,,,,male,20,
11,11,176,11,11,4,['k'],['k'],Y,Y,['space'],Y,,,,,,,male,20,
11,12,177,7,7,4,['d'],['d'],Y,N,None,Y,,,,,,,male,20,
11,13,178,8,8,4,['d'],['d'],Y,N,None,Y,,,,,,,male,20,
11,14,179,2,2,4,['k'],['k'],Y,N,None,Y,,,,,,,male,20,
12,0,180,6,6,4,['k'],['k'],Y,N,None,Y,,,,,,,male,20,
12,1,181,1,1,4,['k'],['k'],Y,Y,None,N,,,,,,,male,20,
12,2,182,4,4,4,['d'],['d'],Y,N,None,Y,,,,,,,male,20,
12,3,183,6,6,4,['d'],['d'],Y,Y,['space'],Y,,,,,,,male,20,
12,4,184,5,5,4,['k'],['k'],Y,N,None,Y,,,,,,,male,20,
12,5,185,2,2,4,['k'],['k'],Y,Y,['space'],Y,,,,,,,male,20,
12,6,186,1,1,4,['k'],['k'],Y,N,None,Y,,,,,,,male,20,
12,7,187,13,13,4,['k'],['k'],Y,N,None,Y,,,,,,,male,20,
12,8,188,7,7,4,['k'],['k'],Y,N,None,Y,,,,,,,male,20,
12,9,189,5,5,4,['d'],['d'],Y,Y,None,N,,,,,,,male,20,
12,10,190,0,0,4,['d'],['d'],Y,N,None,Y,,,,,,,male,20,
12,11,191,1,1,4,['d'],['d'],Y,N,None,Y,,,,,,,male,20,
12,12,192,13,13,4,['d'],['d'],Y,N,None,Y,,,,,,,male,20,
12,13,193,8,8,4,['k'],['k'],Y,N,['space'],N,,,,,,,male,20,
12,14,194,6,6,4,['k'],['k'],Y,Y,None,N,,,,,,,male,20,
13,0,195,7,7,4,['k'],['k'],Y,Y,['space'],Y,,,,,,,male,20,
13,1,196,13,13,4,['d'],['d'],Y,Y,['space'],Y,,,,,,,male,20,
13,2,197,10,10,4,['k'],['k'],Y,N,None,Y,,,,,,,male,20,
13,3,198,12,12,4,['k'],['k'],Y,Y,['space'],Y,,,,,,,male,20,
13,4,199,13,13,4,['d'],['d'],Y,N,None,Y,39,38,18,,,,male,20,
13,5,200,11,11,5,['k'],['k'],Y,,,,,,,,,,male,20,
13,6,201,11,11,5,['k'],['k'],Y,,,,,,,,,,male,20,
13,7,202,3,3,5,['d'],['d'],Y,N,None,Y,,,,,,,male,20,
13,8,203,2,2,5,['d'],['d'],Y,Y,['space'],Y,,,,,,,male,20,
13,9,204,1,1,5,['k'],['k'],Y,N,None,Y,,,,,,,male,20,
13,10,205,3,3,5,['k'],['k'],Y,Y,None,N,,,,,,,male,20,
13,11,206,2,2,5,['d'],['d'],Y,Y,['space'],Y,,,,,,,male,20,
13,12,207,13,13,5,['d'],['d'],Y,N,None,Y,,,,,,,male,20,
13,13,208,4,4,5,['k'],['k'],Y,Y,['space'],Y,,,,,,,male,20,
13,14,209,11,11,5,['d'],['d'],Y,N,None,Y,,,,,,,male,20,
14,0,210,9,9,5,['d'],['d'],Y,N,None,Y,,,,,,,male,20,
14,1,211,3,3,5,['k'],['k'],Y,N,None,Y,,,,,,,male,20,
14,2,212,0,0,5,['k'],['k'],Y,N,None,Y,,,,,,,male,20,
14,3,213,5,5,5,['k'],['k'],Y,Y,['space'],Y,,,,,,,male,20,
14,4,214,8,8,5,['k'],['k'],Y,N,None,Y,,,,,,,male,20,
14,5,215,14,14,5,['k'],['k'],Y,Y,None,N,,,,,,,male,20,
14,6,216,6,6,5,['d'],['d'],Y,N,None,Y,,,,,,,male,20,
14,7,217,14,14,5,['d'],['d'],Y,N,None,Y,,,,,,,male,20,
14,8,218,3,3,5,['k'],['k'],Y,N,None,Y,,,,,,,male,20,
14,9,219,9,9,5,['d'],['k'],N,N,None,Y,,,,,,,male,20,
14,10,220,1,1,5,['k'],['k'],Y,Y,['space'],Y,,,,,,,male,20,
14,11,221,6,6,5,['d'],['d'],Y,N,None,Y,,,,,,,male,20,
14,12,222,6,6,5,['d'],['d'],Y,N,None,Y,,,,,,,male,20,
14,13,223,7,7,5,['k'],['k'],Y,N,None,Y,,,,,,,male,20,
14,14,224,6,6,5,['k'],['d'],N,N,None,Y,,,,,,,male,20,
15,0,225,4,4,5,['k'],['k'],Y,Y,['space'],Y,,,,,,,male,20,
15,1,226,11,11,5,['d'],['d'],Y,Y,['space'],Y,,,,,,,male,20,
15,2,227,8,8,5,['k'],['k'],Y,Y,['space'],Y,,,,,,,male,20,
15,3,228,10,10,5,['d'],['d'],Y,N,None,Y,,,,,,,male,20,
15,4,229,12,12,5,['k'],['k'],Y,N,None,Y,,,,,,,male,20,
15,5,230,5,5,5,['d'],['d'],Y,N,['space'],N,,,,,,,male,20,
15,6,231,6,6,5,['k'],['k'],Y,Y,['space'],Y,,,,,,,male,20,
15,7,232,13,13,5,['d'],['d'],Y,N,None,Y,,,,,,,male,20,
15,8,233,4,4,5,['d'],['d'],Y,Y,['space'],Y,,,,,,,male,20,
15,9,234,5,5,5,['k'],['k'],Y,N,None,Y,,,,,,,male,20,
15,10,235,7,7,5,['k'],['k'],Y,N,None,Y,,,,,,,male,20,
15,11,236,3,3,5,['k'],['k'],Y,Y,['space'],Y,,,,,,,male,20,
15,12,237,7,7,5,['k'],['k'],Y,Y,['space'],Y,,,,,,,male,20,
15,13,238,1,1,5,['k'],['k'],Y,N,None,Y,,,,,,,male,20,
15,14,239,7,7,5,['d'],['d'],Y,Y,['space'],Y,,,,,,,male,20,
16,0,240,4,4,5,['d'],['d'],Y,Y,['space'],Y,,,,,,,male,20,
16,1,241,0,0,5,['k'],['k'],Y,Y,['space'],Y,,,,,,,male,20,
16,2,242,12,12,5,['k'],['k'],Y,N,None,Y,,,,,,,male,20,
16,3,243,7,7,5,['k'],['k'],Y,Y,None,N,,,,,,,male,20,
16,4,244,10,10,5,['d'],['d'],Y,N,None,Y,,,,,,,male,20,
16,5,245,3,3,5,['d'],['d'],Y,Y,['space'],Y,,,,,,,male,20,
16,6,246,4,4,5,['k'],['k'],Y,Y,['space'],Y,,,,,,,male,20,
16,7,247,1,1,5,['d'],['d'],Y,Y,['space'],Y,,,,,,,male,20,
16,8,248,8,8,5,['k'],['k'],Y,N,None,Y,,,,,,,male,20,
16,9,249,0,0,5,['k'],['k'],Y,Y,['space'],Y,48,44,22,,,,male,20,
16,10,250,7,7,6,['d'],['d'],Y,,,,,,,,,,male,20,
16,11,251,11,11,6,['d'],['d'],Y,,,,,,,,,,male,20,
16,12,252,9,9,6,['d'],['d'],Y,N,None,Y,,,,,,,male,20,
16,13,253,5,5,6,['d'],['d'],Y,Y,['space'],Y,,,,,,,male,20,
16,14,254,8,8,6,['d'],['d'],Y,Y,['space'],Y,,,,,,,male,20,
17,0,255,2,2,6,['k'],['d'],N,Y,['space'],Y,,,,,,,male,20,
17,1,256,2,2,6,['k'],['k'],Y,Y,['space'],Y,,,,,,,male,20,
17,2,257,12,12,6,['k'],['k'],Y,Y,['space'],Y,,,,,,,male,20,
17,3,258,7,7,6,['k'],['k'],Y,Y,['space'],Y,,,,,,,male,20,
17,4,259,8,8,6,['d'],['d'],Y,Y,['space'],Y,,,,,,,male,20,
17,5,260,2,2,6,None,,Timed out,N,None,Y,,,,,,,male,20,
17,6,261,2,2,6,['k'],['k'],Y,Y,['space'],Y,,,,,,,male,20,
17,7,262,8,8,6,['d'],['d'],Y,N,None,Y,,,,,,,male,20,
17,8,263,7,7,6,['d'],['d'],Y,N,None,Y,,,,,,,male,20,
17,9,264,0,0,6,['k'],['k'],Y,Y,['space'],Y,,,,,,,male,20,
17,10,265,9,9,6,['d'],['d'],Y,Y,['space'],Y,,,,,,,male,20,
17,11,266,10,10,6,['k'],['k'],Y,N,None,Y,,,,,,,male,20,
17,12,267,2,2,6,['d'],['d'],Y,Y,['space'],Y,,,,,,,male,20,
17,13,268,4,4,6,['d'],['d'],Y,N,None,Y,,,,,,,male,20,
17,14,269,0,0,6,['k'],['k'],Y,Y,['space'],Y,,,,,,,male,20,
18,0,270,2,2,6,['d'],['d'],Y,Y,['space'],Y,,,,,,,male,20,
18,1,271,10,10,6,['k'],['k'],Y,Y,['space'],Y,,,,,,,male,20,
18,2,272,13,13,6,['d'],['d'],Y,N,None,Y,,,,,,,male,20,
18,3,273,4,4,6,['d'],['d'],Y,N,None,Y,,,,,,,male,20,
18,4,274,11,11,6,['d'],['k'],N,N,None,Y,,,,,,,male,20,
18,5,275,1,1,6,['k'],['k'],Y,Y,None,N,,,,,,,male,20,
18,6,276,6,6,6,['d'],['d'],Y,N,None,Y,,,,,,,male,20,
18,7,277,1,1,6,['k'],['k'],Y,N,None,Y,,,,,,,male,20,
18,8,278,12,12,6,['d'],['d'],Y,Y,['space'],Y,,,,,,,male,20,
18,9,279,1,1,6,['d'],['d'],Y,N,None,Y,,,,,,,male,20,
18,10,280,10,10,6,['d'],['d'],Y,Y,['space'],Y,,,,,,,male,20,
18,11,281,5,5,6,['d'],['d'],Y,N,None,Y,,,,,,,male,20,
18,12,282,10,10,6,['k'],['k'],Y,N,None,Y,,,,,,,male,20,
18,13,283,10,10,6,['k'],['k'],Y,N,None,Y,,,,,,,male,20,
18,14,284,6,6,6,['k'],['k'],Y,N,None,Y,,,,,,,male,20,
19,0,285,14,14,6,['k'],['k'],Y,Y,['space'],Y,,,,,,,male,20,
19,1,286,3,3,6,['d'],['d'],Y,N,None,Y,,,,,,,male,20,
19,2,287,11,11,6,['k'],['k'],Y,Y,['space'],Y,,,,,,,male,20,
19,3,288,7,7,6,['k'],['k'],Y,N,None,Y,,,,,,,male,20,
19,4,289,13,13,6,['d'],['d'],Y,N,None,Y,,,,,,,male,20,
19,5,290,12,12,6,['k'],['k'],Y,Y,['space'],Y,,,,,,,male,20,
19,6,291,14,14,6,['d'],['d'],Y,N,None,Y,,,,,,,male,20,
19,7,292,10,10,6,['d'],['d'],Y,N,None,Y,,,,,,,male,20,
19,8,293,1,1,6,['k'],['d'],N,Y,['space'],Y,,,,,,,male,20,
19,9,294,10,10,6,['d'],['d'],Y,N,None,Y,,,,,,,male,20,
19,10,295,8,8,6,['k'],['k'],Y,Y,['space'],Y,,,,,,,male,20,
19,11,296,9,9,6,['d'],['d'],Y,Y,['space'],Y,,,,,,,male,20,
19,12,297,1,1,6,['k'],['k'],Y,N,None,Y,,,,,,,male,20,
19,13,298,0,0,6,['d'],['d'],Y,Y,['space'],Y,,,,,,,male,20,
19,14,299,5,5,6,['k'],['k'],Y,Y,['space'],Y,46,47,25,,,,male,20,
20,0,300,12,12,7,['d'],['d'],Y,,,,,,,,,,male,20,
20,1,301,5,5,7,['d'],['k'],N,,,,,,,,,,male,20,
20,2,302,5,5,7,['k'],['k'],Y,Y,['space'],Y,,,,,,,male,20,
20,3,303,12,12,7,['k'],['k'],Y,N,None,Y,,,,,,,male,20,
20,4,304,9,9,7,['k'],['k'],Y,Y,['space'],Y,,,,,,,male,20,
20,5,305,0,0,7,['k'],['k'],Y,Y,['space'],Y,,,,,,,male,20,
20,6,306,1,1,7,['d'],['k'],N,N,None,Y,,,,,,,male,20,
20,7,307,8,8,7,['d'],['d'],Y,N,None,Y,,,,,,,male,20,
20,8,308,8,8,7,['k'],['k'],Y,Y,['space'],Y,,,,,,,male,20,
20,9,309,2,2,7,['d'],['d'],Y,Y,['space'],Y,,,,,,,male,20,
20,10,310,14,14,7,['k'],['k'],Y,Y,['space'],Y,,,,,,,male,20,
20,11,311,9,9,7,['k'],['k'],Y,N,None,Y,,,,,,,male,20,
20,12,312,0,0,7,['k'],['k'],Y,N,None,Y,,,,,,,male,20,
20,13,313,14,14,7,['k'],['k'],Y,Y,['space'],Y,,,,,,,male,20,
20,14,314,8,8,7,['k'],['k'],Y,N,None,Y,,,,,,,male,20,
21,0,315,9,9,7,['d'],['d'],Y,N,None,Y,,,,,,,male,20,
21,1,316,14,14,7,['d'],['k'],N,N,None,Y,,,,,,,male,20,
21,2,317,12,12,7,['k'],['k'],Y,Y,['space'],Y,,,,,,,male,20,
21,3,318,9,9,7,['d'],['d'],Y,N,None,Y,,,,,,,male,20,
21,4,319,7,7,7,['d'],['d'],Y,N,None,Y,,,,,,,male,20,
21,5,320,5,5,7,['k'],['k'],Y,Y,['space'],Y,,,,,,,male,20,
21,6,321,14,14,7,['d'],['d'],Y,Y,['space'],Y,,,,,,,male,20,
21,7,322,1,1,7,['k'],['k'],Y,N,None,Y,,,,,,,male,20,
21,8,323,6,6,7,['d'],['d'],Y,N,None,Y,,,,,,,male,20,
21,9,324,11,11,7,['k'],['k'],Y,Y,['space'],Y,,,,,,,male,20,
21,10,325,1,1,7,['k'],['k'],Y,Y,['space'],Y,,,,,,,male,20,
21,11,326,10,10,7,['d'],['d'],Y,N,None,Y,,,,,,,male,20,
21,12,327,12,12,7,['d'],['d'],Y,Y,['space'],Y,,,,,,,male,20,
21,13,328,6,6,7,['k'],['k'],Y,Y,['space'],Y,,,,,,,male,20,
21,14,329,10,10,7,['d'],['d'],Y,N,None,Y,,,,,,,male,20,
22,0,330,2,2,7,['k'],['k'],Y,N,None,Y,,,,,,,male,20,
22,1,331,4,4,7,['d'],['d'],Y,N,None,Y,,,,,,,male,20,
22,2,332,3,3,7,['d'],['d'],Y,N,None,Y,,,,,,,male,20,
22,3,333,10,10,7,['k'],['k'],Y,N,None,Y,,,,,,,male,20,
22,4,334,0,0,7,['k'],['k'],Y,N,None,Y,,,,,,,male,20,
22,5,335,9,9,7,['k'],['d'],N,Y,['space'],Y,,,,,,,male,20,
22,6,336,12,12,7,['k'],['k'],Y,N,None,Y,,,,,,,male,20,
22,7,337,4,4,7,['d'],['d'],Y,Y,['space'],Y,,,,,,,male,20,
22,8,338,9,9,7,['d'],['d'],Y,N,None,Y,,,,,,,male,20,
22,9,339,5,5,7,['k'],['d'],N,N,None,Y,,,,,,,male,20,
22,10,340,9,9,7,['k'],['k'],Y,Y,None,N,,,,,,,male,20,
22,11,341,5,5,7,['k'],['k'],Y,N,None,Y,,,,,,,male,20,
22,12,342,3,3,7,['d'],['d'],Y,N,None,Y,,,,,,,male,20,
22,13,343,13,13,7,['k'],['k'],Y,Y,['space'],Y,,,,,,,male,20,
22,14,344,8,8,7,['d'],['d'],Y,Y,['space'],Y,,,,,,,male,20,
23,0,345,3,3,7,['d'],['d'],Y,N,None,Y,,,,,,,male,20,
23,1,346,4,4,7,['d'],['d'],Y,N,None,Y,,,,,,,male,20,
23,2,347,8,8,7,['k'],['d'],N,N,None,Y,,,,,,,male,20,
23,3,348,1,1,7,['d'],['d'],Y,N,None,Y,,,,,,,male,20,
23,4,349,13,13,7,['k'],['k'],Y,N,['space'],N,44,46,19,,,,male,20,
23,5,350,0,0,8,['k'],['k'],Y,,,,,,,,,,male,20,
23,6,351,0,0,8,['k'],['k'],Y,,,,,,,,,,male,20,
23,7,352,9,9,8,['k'],['k'],Y,N,None,Y,,,,,,,male,20,
23,8,353,10,10,8,['k'],['k'],Y,Y,['space'],Y,,,,,,,male,20,
23,9,354,0,0,8,['d'],['d'],Y,Y,['space'],Y,,,,,,,male,20,
23,10,355,12,12,8,['d'],['d'],Y,N,None,Y,,,,,,,male,20,
23,11,356,7,7,8,['d'],['d'],Y,Y,['space'],Y,,,,,,,male,20,
23,12,357,7,7,8,['k'],['k'],Y,Y,['space'],Y,,,,,,,male,20,
23,13,358,6,6,8,['k'],['k'],Y,N,None,Y,,,,,,,male,20,
23,14,359,10,10,8,['k'],['k'],Y,Y,['space'],Y,,,,,,,male,20,
24,0,360,8,8,8,['k'],['k'],Y,Y,['space'],Y,,,,,,,male,20,
24,1,361,4,4,8,['k'],['k'],Y,N,None,Y,,,,,,,male,20,
24,2,362,13,13,8,['k'],['k'],Y,Y,['space'],Y,,,,,,,male,20,
24,3,363,11,11,8,['d'],['d'],Y,Y,['space'],Y,,,,,,,male,20,
24,4,364,7,7,8,['k'],['k'],Y,Y,None,N,,,,,,,male,20,
24,5,365,7,7,8,['d'],['d'],Y,N,None,Y,,,,,,,male,20,
24,6,366,2,2,8,['k'],['k'],Y,Y,['space'],Y,,,,,,,male,20,
24,7,367,1,1,8,['d'],['d'],Y,Y,['space'],Y,,,,,,,male,20,
24,8,368,1,1,8,['d'],['d'],Y,Y,['space'],Y,,,,,,,male,20,
24,9,369,14,14,8,['d'],['d'],Y,Y,['space'],Y,,,,,,,male,20,
24,10,370,3,3,8,['k'],['k'],Y,Y,['space'],Y,,,,,,,male,20,
24,11,371,13,13,8,['d'],['d'],Y,N,None,Y,,,,,,,male,20,
24,12,372,14,14,8,['k'],['d'],N,N,None,Y,,,,,,,male,20,
24,13,373,1,1,8,['k'],['k'],Y,Y,['space'],Y,,,,,,,male,20,
24,14,374,8,8,8,['d'],['d'],Y,Y,['space'],Y,,,,,,,male,20,
25,0,375,2,2,8,['k'],['k'],Y,N,None,Y,,,,,,,male,20,
25,1,376,11,11,8,['k'],['k'],Y,N,None,Y,,,,,,,male,20,
25,2,377,5,5,8,['d'],['d'],Y,N,None,Y,,,,,,,male,20,
25,3,378,6,6,8,['d'],['d'],Y,Y,None,N,,,,,,,male,20,
25,4,379,10,10,8,['d'],['d'],Y,Y,['space'],Y,,,,,,,male,20,
25,5,380,10,10,8,['k'],['k'],Y,Y,None,N,,,,,,,male,20,
25,6,381,12,12,8,['k'],['k'],Y,Y,['space'],Y,,,,,,,male,20,
25,7,382,14,14,8,['k'],['k'],Y,Y,['space'],Y,,,,,,,male,20,
25,8,383,12,12,8,['d'],['d'],Y,Y,None,N,,,,,,,male,20,
25,9,384,10,10,8,['k'],['k'],Y,N,None,Y,,,,,,,male,20,
25,10,385,3,3,8,['d'],['d'],Y,N,None,Y,,,,,,,male,20,
25,11,386,6,6,8,['k'],['k'],Y,Y,['space'],Y,,,,,,,male,20,
25,12,387,14,14,8,['k'],['k'],Y,Y,['space'],Y,,,,,,,male,20,
25,13,388,11,11,8,['d'],['d'],Y,N,None,Y,,,,,,,male,20,
25,14,389,13,13,8,['k'],['k'],Y,N,None,Y,,,,,,,male,20,
26,0,390,4,4,8,['d'],['d'],Y,Y,['space'],Y,,,,,,,male,20,
26,1,391,3,3,8,['d'],['d'],Y,N,None,Y,,,,,,,male,20,
26,2,392,3,3,8,['k'],['k'],Y,N,None,Y,,,,,,,male,20,
26,3,393,2,2,8,['k'],['k'],Y,N,None,Y,,,,,,,male,20,
26,4,394,5,5,8,['d'],['d'],Y,N,None,Y,,,,,,,male,20,
26,5,395,12,12,8,['d'],['d'],Y,N,None,Y,,,,,,,male,20,
26,6,396,7,7,8,['k'],['k'],Y,N,None,Y,,,,,,,male,20,
26,7,397,0,0,8,['d'],['d'],Y,N,None,Y,,,,,,,male,20,
26,8,398,1,1,8,['k'],['k'],Y,N,None,Y,,,,,,,male,20,
26,9,399,11,11,8,['d'],['d'],Y,N,None,Y,49,44,25,,,,male,20,
26,10,400,14,14,9,['k'],['k'],Y,,,,,,,,,,male,20,
26,11,401,13,13,9,['k'],['k'],Y,,,,,,,,,,male,20,
26,12,402,9,9,9,['d'],['d'],Y,Y,['space'],Y,,,,,,,male,20,
26,13,403,7,7,9,['d'],['d'],Y,N,None,Y,,,,,,,male,20,
26,14,404,12,12,9,['k'],['k'],Y,Y,['space'],Y,,,,,,,male,20,
27,0,405,4,4,9,['d'],['d'],Y,N,None,Y,,,,,,,male,20,
27,1,406,5,5,9,['k'],['k'],Y,N,None,Y,,,,,,,male,20,
27,2,407,9,9,9,['k'],['k'],Y,Y,['space'],Y,,,,,,,male,20,
27,3,408,10,10,9,['d'],['d'],Y,N,None,Y,,,,,,,male,20,
27,4,409,0,0,9,['d'],['d'],Y,Y,['space'],Y,,,,,,,male,20,
27,5,410,14,14,9,['k'],['k'],Y,N,None,Y,,,,,,,male,20,
27,6,411,9,9,9,['k'],['k'],Y,Y,['space'],Y,,,,,,,male,20,
27,7,412,9,9,9,['k'],['k'],Y,Y,['space'],Y,,,,,,,male,20,
27,8,413,14,14,9,['k'],['k'],Y,N,None,Y,,,,,,,male,20,
27,9,414,12,12,9,['d'],['d'],Y,N,None,Y,,,,,,,male,20,
27,10,415,11,11,9,['k'],['k'],Y,Y,None,N,,,,,,,male,20,
27,11,416,5,5,9,['k'],['k'],Y,Y,['space'],Y,,,,,,,male,20,
27,12,417,14,14,9,['d'],['d'],Y,Y,['space'],Y,,,,,,,male,20,
27,13,418,12,12,9,['d'],['d'],Y,Y,['space'],Y,,,,,,,male,20,
27,14,419,4,4,9,['k'],['k'],Y,N,None,Y,,,,,,,male,20,
28,0,420,11,11,9,['k'],['k'],Y,Y,['space'],Y,,,,,,,male,20,
28,1,421,6,6,9,['d'],['d'],Y,Y,['space'],Y,,,,,,,male,20,
28,2,422,2,2,9,['d'],['d'],Y,Y,['space'],Y,,,,,,,male,20,
28,3,423,9,9,9,['d'],['k'],N,N,None,Y,,,,,,,male,20,
28,4,424,8,8,9,['d'],['d'],Y,Y,['space'],Y,,,,,,,male,20,
28,5,425,9,9,9,['k'],['d'],N,N,None,Y,,,,,,,male,20,
28,6,426,10,10,9,['d'],['d'],Y,N,None,Y,,,,,,,male,20,
28,7,427,7,7,9,['d'],['d'],Y,Y,['space'],Y,,,,,,,male,20,
28,8,428,13,13,9,['d'],['d'],Y,Y,['space'],Y,,,,,,,male,20,
28,9,429,9,9,9,['d'],['d'],Y,Y,['space'],Y,,,,,,,male,20,
28,10,430,4,4,9,['k'],['k'],Y,N,None,Y,,,,,,,male,20,
28,11,431,13,13,9,['d'],['d'],Y,N,None,Y,,,,,,,male,20,
28,12,432,9,9,9,['k'],['d'],N,Y,['space'],Y,,,,,,,male,20,
28,13,433,3,3,9,['k'],['k'],Y,Y,['space'],Y,,,,,,,male,20,
28,14,434,4,4,9,['d'],['d'],Y,Y,['space'],Y,,,,,,,male,20,
29,0,435,12,12,9,['d'],['d'],Y,Y,['space'],Y,,,,,,,male,20,
29,1,436,3,3,9,['d'],['d'],Y,N,None,Y,,,,,,,male,20,
29,2,437,13,13,9,['d'],['d'],Y,N,None,Y,,,,,,,male,20,
29,3,438,5,5,9,['k'],['d'],N,N,None,Y,,,,,,,male,20,
29,4,439,11,11,9,['k'],['k'],Y,N,None,Y,,,,,,,male,20,
29,5,440,14,14,9,['d'],['d'],Y,Y,['space'],Y,,,,,,,male,20,
29,6,441,4,4,9,['d'],['d'],Y,N,None,Y,,,,,,,male,20,
29,7,442,7,7,9,['k'],['k'],Y,Y,['space'],Y,,,,,,,male,20,
29,8,443,1,1,9,['d'],['d'],Y,Y,['space'],Y,,,,,,,male,20,
29,9,444,14,14,9,['d'],['d'],Y,N,None,Y,,,,,,,male,20,
29,10,445,6,6,9,['d'],['d'],Y,Y,['space'],Y,,,,,,,male,20,
29,11,446,4,4,9,['k'],['k'],Y,N,None,Y,,,,,,,male,20,
29,12,447,5,5,9,['d'],['d'],Y,N,None,Y,,,,,,,male,20,
29,13,448,8,8,9,['k'],['k'],Y,N,None,Y,,,,,,,male,20,
29,14,449,6,6,9,['k'],['k'],Y,N,None,Y,46,47,25,,,,male,20,
30,0,450,0,0,10,['d'],['d'],Y,,,,,,,,,,male,20,
30,1,451,2,2,10,['d'],['d'],Y,,,,,,,,,,male,20,
30,2,452,3,3,10,['d'],['d'],Y,N,None,Y,,,,,,,male,20,
30,3,453,2,2,10,['k'],['k'],Y,N,None,Y,,,,,,,male,20,
30,4,454,8,8,10,['k'],['k'],Y,N,None,Y,,,,,,,male,20,
30,5,455,3,3,10,['k'],['k'],Y,N,None,Y,,,,,,,male,20,
30,6,456,10,10,10,['k'],['k'],Y,Y,['space'],Y,,,,,,,male,20,
30,7,457,10,10,10,['d'],['d'],Y,Y,['space'],Y,,,,,,,male,20,
30,8,458,13,13,10,['k'],['k'],Y,N,['d'],N,,,,,,,male,20,
30,9,459,5,5,10,['d'],['d'],Y,N,None,Y,,,,,,,male,20,
30,10,460,3,3,10,['k'],['k'],Y,Y,['space'],Y,,,,,,,male,20,
30,11,461,6,6,10,['d'],['d'],Y,Y,['space'],Y,,,,,,,male,20,
30,12,462,0,0,10,['d'],['d'],Y,Y,['space'],Y,,,,,,,male,20,
30,13,463,13,13,10,['k'],['k'],Y,Y,None,N,,,,,,,male,20,
30,14,464,7,7,10,['d'],['d'],Y,Y,['space'],Y,,,,,,,male,20,
31,0,465,11,11,10,['k'],['k'],Y,Y,['space'],Y,,,,,,,male,20,
31,1,466,4,4,10,['d'],['d'],Y,N,None,Y,,,,,,,male,20,
31,2,467,11,11,10,['k'],['k'],Y,Y,['space'],Y,,,,,,,male,20,
31,3,468,3,3,10,['k'],['k'],Y,N,None,Y,,,,,,,male,20,
31,4,469,11,11,10,['k'],['k'],Y,N,None,Y,,,,,,,male,20,
31,5,470,7,7,10,['k'],['k'],Y,Y,['space'],Y,,,,,,,male,20,
31,6,471,14,14,10,['k'],['k'],Y,Y,['k'],N,,,,,,,male,20,
31,7,472,14,14,10,['k'],['k'],Y,N,None,Y,,,,,,,male,20,
31,8,473,2,2,10,['d'],['d'],Y,Y,['space'],Y,,,,,,,male,20,
31,9,474,1,1,10,['k'],['k'],Y,N,None,Y,,,,,,,male,20,
31,10,475,3,3,10,['d'],['d'],Y,Y,['space'],Y,,,,,,,male,20,
31,11,476,3,3,10,['k'],['k'],Y,Y,['space'],Y,,,,,,,male,20,
31,12,477,12,12,10,['k'],['k'],Y,N,None,Y,,,,,,,male,20,
31,13,478,7,7,10,['k'],['k'],Y,Y,['space'],Y,,,,,,,male,20,
31,14,479,7,7,10,['k'],['k'],Y,Y,['space'],Y,,,,,,,male,20,
32,0,480,2,2,10,['d'],['d'],Y,N,None,Y,,,,,,,male,20,
32,1,481,12,12,10,['d'],['d'],Y,N,None,Y,,,,,,,male,20,
32,2,482,2,2,10,['k'],['k'],Y,N,None,Y,,,,,,,male,20,
32,3,483,0,0,10,['d'],['d'],Y,N,None,Y,,,,,,,male,20,
32,4,484,12,12,10,['d'],['d'],Y,Y,['space'],Y,,,,,,,male,20,
32,5,485,6,6,10,['k'],['k'],Y,Y,['space'],Y,,,,,,,male,20,
32,6,486,8,8,10,['d'],['d'],Y,Y,['space'],Y,,,,,,,male,20,
32,7,487,10,10,10,['d'],['d'],Y,Y,['space'],Y,,,,,,,male,20,
32,8,488,13,13,10,['k'],['d'],N,Y,['space'],Y,,,,,,,male,20,
32,9,489,9,9,10,['d'],['d'],Y,N,None,Y,,,,,,,male,20,
32,10,490,10,10,10,['k'],['k'],Y,Y,['space'],Y,,,,,,,male,20,
32,11,491,2,2,10,['k'],['k'],Y,Y,['space'],Y,,,,,,,male,20,
32,12,492,0,0,10,['k'],['k'],Y,Y,None,N,,,,,,,male,20,
32,13,493,7,7,10,['d'],['d'],Y,Y,['space'],Y,,,,,,,male,20,
32,14,494,7,7,10,['k'],['k'],Y,N,None,Y,,,,,,,male,20,
33,0,495,6,6,10,['d'],['d'],Y,N,None,Y,,,,,,,male,20,
33,1,496,5,5,10,['k'],['k'],Y,N,None,Y,,,,,,,male,20,
33,2,497,8,8,10,['k'],['k'],Y,N,None,Y,,,,,,,male,20,
33,3,498,9,9,10,['k'],['k'],Y,N,None,Y,,,,,,,male,20,
33,4,499,5,5,10,['d'],['d'],Y,N,None,Y,49,44,25,,,,male,20,
33,5,500,10,10,11,['d'],['d'],N,,,,,,,Y,Y,Y,male,20,
33,6,501,2,2,11,['d'],['k'],Y,,,,,,,,Y,Y,male,20,
33,7,502,4,4,11,['k'],['d'],Y,N,None,Y,,,,,Y,Y,male,20,
33,8,503,5,5,11,['d'],['k'],Y,N,None,Y,,,,,Y,Y,male,20,
33,9,504,1,1,11,['d'],['k'],Y,Y,['space'],Y,,,,,Y,Y,male,20,
33,10,505,9,9,11,['k'],['d'],Y,Y,None,N,,,,,Y,Y,male,20,
33,11,506,8,8,11,['d'],['k'],Y,Y,['space'],Y,,,,,Y,Y,male,20,
33,12,507,7,7,11,['k'],['d'],Y,Y,['space'],Y,,,,,Y,Y,male,20,
33,13,508,3,3,11,['d'],['d'],N,Y,['space'],Y,,,,,Y,Y,male,20,
33,14,509,13,13,11,['k'],['d'],Y,Y,['space'],Y,,,,,Y,Y,male,20,
34,0,510,1,1,11,['k'],['d'],Y,Y,['space'],Y,,,,,Y,Y,male,20,
34,1,511,2,2,11,['d'],['k'],Y,N,None,Y,,,,,Y,Y,male,20,
34,2,512,14,14,11,None,,Timed out,N,None,Y,,,,,Y,Y,male,20,
34,3,513,9,9,11,['k'],['d'],Y,Y,['space'],Y,,,,,Y,Y,male,20,
34,4,514,5,5,11,['d'],['k'],Y,Y,['space'],Y,,,,,Y,Y,male,20,
34,5,515,13,13,11,['k'],['d'],Y,N,None,Y,,,,,Y,Y,male,20,
34,6,516,11,11,11,['k'],['d'],Y,Y,['space'],Y,,,,,Y,Y,male,20,
34,7,517,7,7,11,['d'],['k'],Y,Y,['space'],Y,,,,,Y,Y,male,20,
34,8,518,5,5,11,['k'],['d'],Y,Y,['space'],Y,,,,,Y,Y,male,20,
34,9,519,10,10,11,['d'],['k'],Y,Y,['space'],Y,,,,,Y,Y,male,20,
34,10,520,10,10,11,['d'],['k'],Y,Y,['space'],Y,,,,,Y,Y,male,20,
34,11,521,12,12,11,None,,Timed out,Y,['k'],N,,,,,Y,Y,male,20,
34,12,522,6,6,11,['k'],['d'],Y,Y,['space'],Y,,,,,Y,Y,male,20,
34,13,523,5,5,11,['k'],['d'],Y,Y,['space'],Y,,,,,Y,Y,male,20,
34,14,524,0,0,11,['d'],['k'],Y,Y,['space'],Y,,,,,Y,Y,male,20,
35,0,525,0,0,11,['d'],['k'],Y,Y,['space'],Y,,,,,Y,Y,male,20,
35,1,526,2,2,11,['d'],['k'],Y,N,None,Y,,,,,Y,Y,male,20,
35,2,527,5,5,11,['d'],['k'],Y,N,None,Y,,,,,Y,Y,male,20,
35,3,528,7,7,11,['k'],['k'],N,N,None,Y,,,,,Y,Y,male,20,
35,4,529,5,5,11,['k'],['d'],Y,Y,['space'],Y,,,,,Y,Y,male,20,
35,5,530,3,3,11,['d'],['k'],Y,N,None,Y,,,,,Y,Y,male,20,
35,6,531,9,9,11,['k'],['d'],Y,N,None,Y,,,,,Y,Y,male,20,
35,7,532,12,12,11,['k'],['d'],Y,N,['space'],N,,,,,Y,Y,male,20,
35,8,533,4,4,11,['k'],['d'],Y,Y,['space'],Y,,,,,Y,Y,male,20,
35,9,534,10,10,11,['d'],['k'],Y,Y,['space'],Y,,,,,Y,Y,male,20,
35,10,535,2,2,11,['k'],['d'],Y,Y,['space'],Y,,,,,Y,Y,male,20,
35,11,536,14,14,11,['d'],['k'],Y,Y,['space'],Y,,,,,Y,Y,male,20,
35,12,537,6,6,11,['k'],['d'],Y,Y,None,N,,,,,Y,Y,male,20,
35,13,538,3,3,11,['k'],['k'],N,N,['space'],N,,,,,Y,Y,male,20,
35,14,539,6,6,11,['d'],['k'],Y,N,None,Y,,,,,Y,Y,male,20,
36,0,540,13,13,11,['d'],['k'],Y,N,None,Y,,,,,Y,Y,male,20,
36,1,541,8,8,11,None,,Timed out,N,['space'],N,,,,,Y,Y,male,20,
36,2,542,11,11,11,['d'],['k'],Y,N,None,Y,,,,,Y,Y,male,20,
36,3,543,12,12,11,['k'],['d'],Y,N,None,Y,,,,,Y,Y,male,20,
36,4,544,7,7,11,['d'],['k'],Y,N,None,Y,,,,,Y,Y,male,20,
36,5,545,4,4,11,['d'],['k'],Y,N,None,Y,,,,,Y,Y,male,20,
36,6,546,2,2,11,['k'],['d'],Y,N,None,Y,,,,,Y,Y,male,20,
36,7,547,6,6,11,['d'],['k'],Y,N,None,Y,,,,,Y,Y,male,20,
36,8,548,14,14,11,['k'],['d'],Y,N,None,Y,,,,,Y,Y,male,20,
36,9,549,6,6,11,['d'],['k'],Y,N,None,Y,43,42,25,,Y,Y,male,20,
36,10,550,12,12,12,['d'],['d'],N,,,,,,,,Y,Y,male,20,
36,11,551,6,6,12,['k'],['d'],Y,,,,,,,,Y,Y,male,20,
36,12,552,8,8,12,['k'],['d'],Y,Y,['space'],Y,,,,,Y,Y,male,20,
36,13,553,6,6,12,['k'],['d'],Y,N,None,Y,,,,,Y,Y,male,20,
36,14,554,8,8,12,['d'],['k'],Y,Y,['space'],Y,,,,,Y,Y,male,20,
37,0,555,13,13,12,['k'],['d'],Y,N,None,Y,,,,,Y,Y,male,20,
37,1,556,0,0,12,['k'],['d'],Y,Y,['space'],Y,,,,,Y,Y,male,20,
37,2,557,14,14,12,['k'],['d'],Y,N,None,Y,,,,,Y,Y,male,20,
37,3,558,4,4,12,['k'],['d'],Y,Y,['space'],Y,,,,,Y,Y,male,20,
37,4,559,4,4,12,['k'],['d'],Y,Y,['space'],Y,,,,,Y,Y,male,20,
37,5,560,7,7,12,['k'],['d'],Y,Y,['space'],Y,,,,,Y,Y,male,20,
37,6,561,3,3,12,['k'],['d'],Y,Y,['space'],Y,,,,,Y,Y,male,20,
37,7,562,0,0,12,['d'],['k'],Y,Y,['space'],Y,,,,,Y,Y,male,20,
37,8,563,12,12,12,['d'],['k'],Y,Y,['space'],Y,,,,,Y,Y,male,20,
37,9,564,5,5,12,['k'],['d'],Y,Y,['space'],Y,,,,,Y,Y,male,20,
37,10,565,3,3,12,['k'],['d'],Y,Y,['space'],Y,,,,,Y,Y,male,20,
37,11,566,14,14,12,['k'],['d'],Y,N,None,Y,,,,,Y,Y,male,20,
37,12,567,13,13,12,['k'],['d'],Y,N,None,Y,,,,,Y,Y,male,20,
37,13,568,12,12,12,['k'],['d'],Y,Y,['space'],Y,,,,,Y,Y,male,20,
37,14,569,14,14,12,['d'],['d'],N,N,None,Y,,,,,Y,Y,male,20,
38,0,570,4,4,12,['k'],['d'],Y,Y,['space'],Y,,,,,Y,Y,male,20,
38,1,571,4,4,12,['d'],['k'],Y,Y,['space'],Y,,,,,Y,Y,male,20,
38,2,572,2,2,12,['d'],['k'],Y,N,None,Y,,,,,Y,Y,male,20,
38,3,573,11,11,12,['d'],['k'],Y,N,None,Y,,,,,Y,Y,male,20,
38,4,574,4,4,12,['d'],['d'],N,Y,['space'],Y,,,,,Y,Y,male,20,
38,5,575,9,9,12,['d'],['k'],Y,N,None,Y,,,,,Y,Y,male,20,
38,6,576,11,11,12,['d'],['k'],Y,N,None,Y,,,,,Y,Y,male,20,
38,7,577,1,1,12,['d'],['k'],Y,Y,['space'],Y,,,,,Y,Y,male,20,
38,8,578,0,0,12,['k'],['d'],Y,Y,None,N,,,,,Y,Y,male,20,
38,9,579,11,11,12,['k'],['k'],N,Y,None,N,,,,,Y,Y,male,20,
38,10,580,10,10,12,['d'],['k'],Y,Y,['space'],Y,,,,,Y,Y,male,20,
38,11,581,9,9,12,['k'],['d'],Y,N,None,Y,,,,,Y,Y,male,20,
38,12,582,7,7,12,['k'],['d'],Y,N,None,Y,,,,,Y,Y,male,20,
38,13,583,14,14,12,['k'],['d'],Y,N,None,Y,,,,,Y,Y,male,20,
38,14,584,12,12,12,['k'],['d'],Y,N,None,Y,,,,,Y,Y,male,20,
39,0,585,5,5,12,['d'],['k'],Y,N,None,Y,,,,,Y,Y,male,20,
39,1,586,2,2,12,['d'],['d'],N,Y,['space'],Y,,,,,Y,Y,male,20,
39,2,587,8,8,12,['d'],['k'],Y,N,None,Y,,,,,Y,Y,male,20,
39,3,588,3,3,12,['d'],['k'],Y,N,['space'],N,,,,,Y,Y,male,20,
39,4,589,1,1,12,['d'],['k'],Y,Y,['space'],Y,,,,,Y,Y,male,20,
39,5,590,9,9,12,['k'],['d'],Y,Y,['space'],Y,,,,,Y,Y,male,20,
39,6,591,8,8,12,['d'],['k'],Y,Y,['space'],Y,,,,,Y,Y,male,20,
39,7,592,2,2,12,['k'],['d'],Y,Y,['space'],Y,,,,,Y,Y,male,20,
39,8,593,4,4,12,['d'],['k'],Y,Y,['space'],Y,,,,,Y,Y,male,20,
39,9,594,13,13,12,['d'],['k'],Y,N,None,Y,,,,,Y,Y,male,20,
39,10,595,8,8,12,['d'],['k'],Y,N,None,Y,,,,,Y,Y,male,20,
39,11,596,12,12,12,['d'],['k'],Y,N,None,Y,,,,,Y,Y,male,20,
39,12,597,11,11,12,['k'],['d'],Y,N,None,Y,,,,,Y,Y,male,20,
39,13,598,9,9,12,['k'],['d'],Y,N,None,Y,,,,,Y,Y,male,20,
39,14,599,12,12,12,['k'],['k'],N,N,None,Y,44,45,25,,Y,Y,male,20,
