.thisRepN,.thisTrialN,.thisN,.thisIndex,.thisTrial,Block Number,Key pressed,Category,Correct?,Int Match?,Int Response,Int Correct?,Line Accuracy,Interference Accuracy,Matching Interferences,New instruction shown?,Buttons switched?,Fast?,gender,age,
0,0,0,2,2,1,['k'],['d'],N,,,,,,,,,,F,20,
0,1,1,12,12,1,['d'],['k'],N,,,,,,,,,,F,20,
0,2,2,10,10,1,['k'],['k'],Y,Y,['space'],Y,,,,,,,F,20,
0,3,3,14,14,1,['d'],['k'],N,Y,None,N,,,,,,,F,20,
0,4,4,10,10,1,['d'],['k'],N,Y,None,N,,,,,,,F,20,
0,5,5,4,4,1,['k'],['d'],N,N,['k'],N,,,,,,,F,20,
0,6,6,1,1,1,['d'],['d'],Y,N,None,Y,,,,,,,F,20,
0,7,7,5,5,1,['d'],['k'],N,N,None,Y,,,,,,,F,20,
0,8,8,8,8,1,['k'],['k'],Y,Y,None,N,,,,,,,F,20,
0,9,9,5,5,1,['d'],['d'],Y,N,None,Y,,,,,,,F,20,
0,10,10,12,12,1,['k'],['d'],N,Y,None,N,,,,,,,F,20,
0,11,11,7,7,1,['d'],['d'],Y,Y,['space'],Y,,,,,,,F,20,
0,12,12,3,3,1,['d'],['d'],Y,Y,['space'],Y,,,,,,,F,20,
0,13,13,11,11,1,['k'],['k'],Y,N,['space'],N,,,,,,,F,20,
0,14,14,2,2,1,['k'],['d'],N,Y,['space'],Y,,,,,,,F,20,
1,0,15,8,8,1,['d'],['d'],Y,N,['space'],N,,,,,,,F,20,
1,1,16,6,6,1,['k'],['d'],N,Y,None,N,,,,,,,F,20,
1,2,17,9,9,1,['d'],['k'],N,Y,['space'],Y,,,,,,,F,20,
1,3,18,8,8,1,['k'],['d'],N,Y,['space'],Y,,,,,,,F,20,
1,4,19,10,10,1,['d'],['d'],Y,N,['space'],N,,,,,,,F,20,
1,5,20,11,11,1,['d'],['d'],Y,Y,['space'],Y,,,,,,,F,20,
1,6,21,14,14,1,['k'],['k'],Y,Y,['space'],Y,,,,,,,F,20,
1,7,22,10,10,1,['k'],['k'],Y,N,['space'],N,,,,,,,F,20,
1,8,23,1,1,1,['d'],['d'],Y,Y,['space'],Y,,,,,,,F,20,
1,9,24,10,10,1,['k'],['k'],Y,N,None,Y,,,,,,,F,20,
1,10,25,11,11,1,['k'],['d'],N,N,None,Y,,,,,,,F,20,
1,11,26,14,14,1,['k'],['d'],N,N,['k'],N,,,,,,,F,20,
1,12,27,6,6,1,['k'],['d'],N,N,['space'],N,,,,,,,F,20,
1,13,28,12,12,1,['d'],['k'],N,Y,['space'],Y,,,,,,,F,20,
1,14,29,8,8,1,['d'],['k'],N,Y,['space'],Y,,,,,,,F,20,
2,0,30,4,4,1,['d'],['k'],N,N,['space'],N,,,,,,,F,20,
2,1,31,2,2,1,['k'],['k'],Y,N,['space'],N,,,,,,,F,20,
2,2,32,8,8,1,['k'],['d'],N,Y,['space'],Y,,,,,,,F,20,
2,3,33,12,12,1,['d'],['d'],Y,N,['space'],N,,,,,,,F,20,
2,4,34,4,4,1,['d'],['k'],N,Y,['space'],Y,,,,,,,F,20,
2,5,35,5,5,1,['k'],['d'],N,N,['space'],N,,,,,,,F,20,
2,6,36,5,5,1,['d'],['k'],N,N,['space'],N,,,,,,,F,20,
2,7,37,6,6,1,['k'],['d'],N,Y,None,N,,,,,,,F,20,
2,8,38,7,7,1,['k'],['k'],Y,Y,['space'],Y,,,,,,,F,20,
2,9,39,10,10,1,['d'],['d'],Y,Y,['space'],Y,,,,,,,F,20,
2,10,40,3,3,1,['k'],['k'],Y,N,['space'],N,,,,,,,F,20,
2,11,41,6,6,1,['k'],['k'],Y,Y,['space'],Y,,,,,,,F,20,
2,12,42,9,9,1,['d'],['k'],N,N,['space'],N,,,,,,,F,20,
2,13,43,14,14,1,['k'],['k'],Y,Y,None,N,,,,,,,F,20,
2,14,44,0,0,1,['d'],['k'],N,N,None,Y,,,,,,,F,20,
3,0,45,4,4,1,['d'],['k'],N,Y,None,N,,,,,,,F,20,
3,1,46,7,7,1,['k'],['k'],Y,Y,['space'],Y,,,,,,,F,20,
3,2,47,14,14,1,['k'],['k'],Y,N,['space'],N,,,,,,,F,20,
3,3,48,9,9,1,['d'],['k'],N,N,None,Y,,,,,,,F,20,
3,4,49,10,10,1,['k'],['d'],N,N,['space'],N,23,24,25,,,,F,20,
3,5,50,1,1,2,['d'],['d'],Y,,,,,,,,,,F,20,
3,6,51,1,1,2,['k'],['d'],N,,,,,,,,,,F,20,
3,7,52,6,6,2,['d'],['k'],N,Y,['space'],Y,,,,,,,F,20,
3,8,53,3,3,2,['k'],['k'],Y,N,['space'],N,,,,,,,F,20,
3,9,54,10,10,2,['k'],['k'],Y,Y,['space'],Y,,,,,,,F,20,
3,10,55,13,13,2,['d'],['k'],N,N,None,Y,,,,,,,F,20,
3,11,56,10,10,2,['k'],['k'],Y,Y,['space'],Y,,,,,,,F,20,
3,12,57,13,13,2,['k'],['k'],Y,N,None,Y,,,,,,,F,20,
3,13,58,8,8,2,['d'],['d'],Y,N,None,Y,,,,,,,F,20,
3,14,59,13,13,2,['k'],['k'],Y,Y,['space'],Y,,,,,,,F,20,
4,0,60,4,4,2,['k'],['d'],N,Y,['space'],Y,,,,,,,F,20,
4,1,61,4,4,2,['d'],['d'],Y,N,['space'],N,,,,,,,F,20,
4,2,62,6,6,2,['k'],['d'],N,N,None,Y,,,,,,,F,20,
4,3,63,13,13,2,['d'],['k'],N,N,None,Y,,,,,,,F,20,
4,4,64,1,1,2,['d'],['d'],Y,Y,['space'],Y,,,,,,,F,20,
4,5,65,7,7,2,['d'],['k'],N,Y,['space'],Y,,,,,,,F,20,
4,6,66,6,6,2,['k'],['d'],N,Y,['space'],Y,,,,,,,F,20,
4,7,67,10,10,2,['k'],['k'],Y,Y,['space'],Y,,,,,,,F,20,
4,8,68,6,6,2,['k'],['d'],N,Y,['space'],Y,,,,,,,F,20,
4,9,69,13,13,2,['d'],['k'],N,N,['space'],N,,,,,,,F,20,
4,10,70,5,5,2,['d'],['k'],N,N,['space'],N,,,,,,,F,20,
4,11,71,14,14,2,['d'],['k'],N,N,['space'],N,,,,,,,F,20,
4,12,72,8,8,2,['k'],['k'],Y,Y,['space'],Y,,,,,,,F,20,
4,13,73,3,3,2,['k'],['k'],Y,N,['space'],N,,,,,,,F,20,
4,14,74,11,11,2,['k'],['d'],N,Y,['space'],Y,,,,,,,F,20,
5,0,75,7,7,2,['d'],['d'],Y,Y,['space'],Y,,,,,,,F,20,
5,1,76,7,7,2,['k'],['d'],N,Y,['space'],Y,,,,,,,F,20,
5,2,77,2,2,2,['d'],['d'],Y,N,['space'],N,,,,,,,F,20,
5,3,78,8,8,2,['d'],['k'],N,Y,['space'],Y,,,,,,,F,20,
5,4,79,4,4,2,['k'],['k'],Y,Y,['space'],Y,,,,,,,F,20,
5,5,80,3,3,2,['d'],['d'],Y,N,['space'],N,,,,,,,F,20,
5,6,81,4,4,2,['k'],['k'],Y,N,['space'],N,,,,,,,F,20,
5,7,82,13,13,2,['d'],['k'],N,Y,['space'],Y,,,,,,,F,20,
5,8,83,8,8,2,['k'],['d'],N,N,['space'],N,,,,,,,F,20,
5,9,84,13,13,2,['d'],['d'],Y,Y,None,N,,,,,,,F,20,
5,10,85,0,0,2,['k'],['d'],N,N,['k'],N,,,,,,,F,20,
5,11,86,6,6,2,['d'],['d'],Y,N,None,Y,,,,,,,F,20,
5,12,87,5,5,2,['k'],['d'],N,Y,None,N,,,,,,,F,20,
5,13,88,10,10,2,['d'],['d'],Y,Y,['space'],Y,,,,,,,F,20,
5,14,89,7,7,2,['d'],['k'],N,N,None,Y,,,,,,,F,20,
6,0,90,13,13,2,['k'],['k'],Y,N,None,Y,,,,,,,F,20,
6,1,91,11,11,2,['d'],['k'],N,Y,None,N,,,,,,,F,20,
6,2,92,4,4,2,['k'],['d'],N,Y,['space'],Y,,,,,,,F,20,
6,3,93,2,2,2,['d'],['d'],Y,N,['space'],N,,,,,,,F,20,
6,4,94,8,8,2,['d'],['k'],N,N,['space'],N,,,,,,,F,20,
6,5,95,7,7,2,['k'],['d'],N,N,None,Y,,,,,,,F,20,
6,6,96,7,7,2,['d'],['k'],N,N,['d'],N,,,,,,,F,20,
6,7,97,6,6,2,['k'],['k'],Y,N,['space'],N,,,,,,,F,20,
6,8,98,4,4,2,['d'],['d'],Y,N,['space'],N,,,,,,,F,20,
6,9,99,9,9,2,['d'],['k'],N,Y,['space'],Y,24,29,23,,,,F,20,
6,10,100,7,7,3,['k'],['d'],N,,,,,,,,,,F,20,
6,11,101,11,11,3,['d'],['k'],N,,,,,,,,,,F,20,
6,12,102,1,1,3,['k'],['k'],Y,N,None,Y,,,,,,,F,20,
6,13,103,6,6,3,['k'],['k'],Y,N,None,Y,,,,,,,F,20,
6,14,104,13,13,3,['d'],['d'],Y,N,None,Y,,,,,,,F,20,
7,0,105,5,5,3,['k'],['d'],N,N,['space'],N,,,,,,,F,20,
7,1,106,4,4,3,['d'],['k'],N,N,['space'],N,,,,,,,F,20,
7,2,107,6,6,3,['k'],['k'],Y,N,['space'],N,,,,,,,F,20,
7,3,108,9,9,3,['k'],['k'],Y,N,['space'],N,,,,,,,F,20,
7,4,109,14,14,3,['k'],['d'],N,Y,['space'],Y,,,,,,,F,20,
7,5,110,7,7,3,['d'],['k'],N,N,['space'],N,,,,,,,F,20,
7,6,111,2,2,3,['k'],['d'],N,Y,['space'],Y,,,,,,,F,20,
7,7,112,10,10,3,['d'],['k'],N,Y,['space'],Y,,,,,,,F,20,
7,8,113,9,9,3,['k'],['d'],N,Y,['space'],Y,,,,,,,F,20,
7,9,114,3,3,3,['d'],['k'],N,N,['space'],N,,,,,,,F,20,
7,10,115,6,6,3,['k'],['d'],N,N,['space'],N,,,,,,,F,20,
7,11,116,14,14,3,['k'],['k'],Y,N,['space'],N,,,,,,,F,20,
7,12,117,3,3,3,['k'],['d'],N,Y,['space'],Y,,,,,,,F,20,
7,13,118,5,5,3,['k'],['d'],N,N,['space'],N,,,,,,,F,20,
7,14,119,14,14,3,['k'],['d'],N,Y,['space'],Y,,,,,,,F,20,
8,0,120,11,11,3,['k'],['k'],Y,N,['space'],N,,,,,,,F,20,
8,1,121,3,3,3,['k'],['d'],N,Y,['space'],Y,,,,,,,F,20,
8,2,122,12,12,3,['d'],['d'],Y,Y,None,N,,,,,,,F,20,
8,3,123,0,0,3,['d'],['d'],Y,Y,['space'],Y,,,,,,,F,20,
8,4,124,2,2,3,['d'],['k'],N,N,['space'],N,,,,,,,F,20,
8,5,125,13,13,3,['k'],['k'],Y,Y,['space'],Y,,,,,,,F,20,
8,6,126,10,10,3,['d'],['k'],N,N,['d'],N,,,,,,,F,20,
8,7,127,7,7,3,['k'],['d'],N,Y,None,N,,,,,,,F,20,
8,8,128,12,12,3,['d'],['d'],Y,Y,['space'],Y,,,,,,,F,20,
8,9,129,10,10,3,['k'],['d'],N,Y,['space'],Y,,,,,,,F,20,
8,10,130,10,10,3,['d'],['k'],N,N,['space'],N,,,,,,,F,20,
8,11,131,6,6,3,['k'],['d'],N,Y,['space'],Y,,,,,,,F,20,
8,12,132,2,2,3,['d'],['k'],N,N,['space'],N,,,,,,,F,20,
8,13,133,7,7,3,['k'],['d'],N,Y,['space'],Y,,,,,,,F,20,
8,14,134,3,3,3,['k'],['k'],Y,Y,['space'],Y,,,,,,,F,20,
9,0,135,2,2,3,['k'],['k'],Y,N,['space'],N,,,,,,,F,20,
9,1,136,8,8,3,['d'],['k'],N,N,['space'],N,,,,,,,F,20,
9,2,137,11,11,3,['k'],['k'],Y,Y,['space'],Y,,,,,,,F,20,
9,3,138,0,0,3,['k'],['k'],Y,Y,['space'],Y,,,,,,,F,20,
9,4,139,2,2,3,['k'],['d'],N,Y,['space'],Y,,,,,,,F,20,
9,5,140,13,13,3,['d'],['k'],N,N,['space'],N,,,,,,,F,20,
9,6,141,2,2,3,['k'],['d'],N,N,['space'],N,,,,,,,F,20,
9,7,142,4,4,3,['d'],['k'],N,N,['space'],N,,,,,,,F,20,
9,8,143,9,9,3,['d'],['k'],N,Y,['space'],Y,,,,,,,F,20,
9,9,144,3,3,3,['k'],['k'],Y,N,['space'],N,,,,,,,F,20,
9,10,145,4,4,3,['k'],['d'],N,N,['space'],N,,,,,,,F,20,
9,11,146,14,14,3,['d'],['d'],Y,Y,['space'],Y,,,,,,,F,20,
9,12,147,11,11,3,['d'],['k'],N,Y,['space'],Y,,,,,,,F,20,
9,13,148,2,2,3,['d'],['d'],Y,Y,['space'],Y,,,,,,,F,20,
9,14,149,12,12,3,['k'],['k'],Y,Y,['space'],Y,19,25,24,,,,F,20,
10,0,150,0,0,4,['d'],['d'],Y,,,,,,,,,,F,20,
10,1,151,6,6,4,['d'],['k'],N,,,,,,,,,,F,20,
10,2,152,12,12,4,['k'],['k'],Y,Y,['k'],N,,,,,,,F,20,
10,3,153,1,1,4,['k'],['d'],N,N,None,Y,,,,,,,F,20,
10,4,154,1,1,4,['k'],['k'],Y,Y,None,N,,,,,,,F,20,
10,5,155,11,11,4,['d'],['k'],N,Y,None,N,,,,,,,F,20,
10,6,156,5,5,4,['k'],['k'],Y,Y,['space'],Y,,,,,,,F,20,
10,7,157,6,6,4,['k'],['k'],Y,N,['space'],N,,,,,,,F,20,
10,8,158,1,1,4,['k'],['k'],Y,Y,['space'],Y,,,,,,,F,20,
10,9,159,0,0,4,['k'],['k'],Y,N,['space'],N,,,,,,,F,20,
10,10,160,12,12,4,['d'],['k'],N,N,['space'],N,,,,,,,F,20,
10,11,161,8,8,4,['k'],['d'],N,N,['space'],N,,,,,,,F,20,
10,12,162,5,5,4,['d'],['d'],Y,N,None,Y,,,,,,,F,20,
10,13,163,8,8,4,['d'],['d'],Y,Y,['space'],Y,,,,,,,F,20,
10,14,164,7,7,4,['k'],['k'],Y,N,['space'],N,,,,,,,F,20,
11,0,165,3,3,4,['d'],['d'],Y,N,['space'],N,,,,,,,F,20,
11,1,166,3,3,4,['k'],['d'],N,Y,['k'],N,,,,,,,F,20,
11,2,167,4,4,4,['d'],['k'],N,N,['space'],N,,,,,,,F,20,
11,3,168,9,9,4,['k'],['d'],N,N,['space'],N,,,,,,,F,20,
11,4,169,13,13,4,['d'],['k'],N,N,['space'],N,,,,,,,F,20,
11,5,170,10,10,4,['k'],['d'],N,Y,['space'],Y,,,,,,,F,20,
11,6,171,8,8,4,['d'],['k'],N,N,['space'],N,,,,,,,F,20,
11,7,172,1,1,4,['d'],['d'],Y,N,['space'],N,,,,,,,F,20,
11,8,173,14,14,4,['d'],['k'],N,N,None,Y,,,,,,,F,20,
11,9,174,11,11,4,['k'],['k'],Y,N,['space'],N,,,,,,,F,20,
11,10,175,1,1,4,['k'],['d'],N,N,['space'],N,,,,,,,F,20,
11,11,176,3,3,4,['d'],['k'],N,Y,['space'],Y,,,,,,,F,20,
11,12,177,4,4,4,['k'],['k'],Y,Y,['space'],Y,,,,,,,F,20,
11,13,178,11,11,4,['k'],['k'],Y,N,['space'],N,,,,,,,F,20,
11,14,179,5,5,4,['d'],['d'],Y,Y,['space'],Y,,,,,,,F,20,
12,0,180,5,5,4,['k'],['d'],N,N,['space'],N,,,,,,,F,20,
12,1,181,6,6,4,['d'],['k'],N,Y,['space'],Y,,,,,,,F,20,
12,2,182,2,2,4,['k'],['d'],N,N,['space'],N,,,,,,,F,20,
12,3,183,5,5,4,['d'],['k'],N,N,None,Y,,,,,,,F,20,
12,4,184,5,5,4,['k'],['k'],Y,Y,['space'],Y,,,,,,,F,20,
12,5,185,13,13,4,['d'],['d'],Y,Y,None,N,,,,,,,F,20,
12,6,186,13,13,4,['k'],['k'],Y,Y,['space'],Y,,,,,,,F,20,
12,7,187,13,13,4,['k'],['k'],Y,Y,['space'],Y,,,,,,,F,20,
12,8,188,10,10,4,['k'],['k'],Y,Y,['space'],Y,,,,,,,F,20,
12,9,189,6,6,4,['d'],['k'],N,N,['space'],N,,,,,,,F,20,
12,10,190,5,5,4,['k'],['k'],Y,Y,['space'],Y,,,,,,,F,20,
12,11,191,2,2,4,['k'],['d'],N,N,['space'],N,,,,,,,F,20,
12,12,192,7,7,4,['d'],['d'],Y,N,['space'],N,,,,,,,F,20,
12,13,193,2,2,4,['d'],['d'],Y,N,['space'],N,,,,,,,F,20,
12,14,194,10,10,4,['d'],['d'],Y,Y,['space'],Y,,,,,,,F,20,
13,0,195,11,11,4,['k'],['d'],N,N,['space'],N,,,,,,,F,20,
13,1,196,0,0,4,['d'],['k'],N,Y,['space'],Y,,,,,,,F,20,
13,2,197,9,9,4,['d'],['d'],Y,Y,['space'],Y,,,,,,,F,20,
13,3,198,5,5,4,['k'],['d'],N,N,None,Y,,,,,,,F,20,
13,4,199,7,7,4,['d'],['d'],Y,Y,['space'],Y,27,22,22,,,,F,20,
13,5,200,8,8,5,['k'],['d'],N,,,,,,,,,,F,20,
13,6,201,8,8,5,['k'],['d'],N,,,,,,,,,,F,20,
13,7,202,3,3,5,['d'],['d'],Y,N,None,Y,,,,,,,F,20,
13,8,203,12,12,5,['k'],['d'],N,N,['k'],N,,,,,,,F,20,
13,9,204,0,0,5,['d'],['k'],N,N,None,Y,,,,,,,F,20,
13,10,205,4,4,5,['k'],['k'],Y,N,['k'],N,,,,,,,F,20,
13,11,206,6,6,5,['d'],['k'],N,N,['space'],N,,,,,,,F,20,
13,12,207,2,2,5,['k'],['k'],Y,N,['space'],N,,,,,,,F,20,
13,13,208,2,2,5,['k'],['d'],N,Y,['space'],Y,,,,,,,F,20,
13,14,209,4,4,5,['d'],['k'],N,N,['space'],N,,,,,,,F,20,
14,0,210,8,8,5,['k'],['k'],Y,Y,['space'],Y,,,,,,,F,20,
14,1,211,6,6,5,['k'],['d'],N,N,['space'],N,,,,,,,F,20,
14,2,212,14,14,5,['d'],['k'],N,N,['d'],N,,,,,,,F,20,
14,3,213,1,1,5,['k'],['k'],Y,Y,['space'],Y,,,,,,,F,20,
14,4,214,8,8,5,['d'],['k'],N,N,['space'],N,,,,,,,F,20,
14,5,215,1,1,5,['k'],['k'],Y,N,['space'],N,,,,,,,F,20,
14,6,216,7,7,5,['k'],['k'],Y,N,['space'],N,,,,,,,F,20,
14,7,217,1,1,5,['d'],['d'],Y,Y,['space'],Y,,,,,,,F,20,
14,8,218,14,14,5,['k'],['k'],Y,Y,['space'],Y,,,,,,,F,20,
14,9,219,3,3,5,['d'],['k'],N,N,['space'],N,,,,,,,F,20,
14,10,220,7,7,5,['k'],['k'],Y,Y,['space'],Y,,,,,,,F,20,
14,11,221,1,1,5,['k'],['k'],Y,N,['space'],N,,,,,,,F,20,
14,12,222,9,9,5,['d'],['d'],Y,Y,['space'],Y,,,,,,,F,20,
14,13,223,2,2,5,['k'],['d'],N,N,['space'],N,,,,,,,F,20,
14,14,224,0,0,5,['d'],['d'],Y,Y,['space'],Y,,,,,,,F,20,
15,0,225,1,1,5,['d'],['d'],Y,N,['space'],N,,,,,,,F,20,
15,1,226,11,11,5,['d'],['d'],Y,Y,['space'],Y,,,,,,,F,20,
15,2,227,12,12,5,['k'],['k'],Y,N,['space'],N,,,,,,,F,20,
15,3,228,7,7,5,['k'],['d'],N,N,['space'],N,,,,,,,F,20,
15,4,229,13,13,5,['d'],['d'],Y,N,['space'],N,,,,,,,F,20,
15,5,230,14,14,5,['k'],['d'],N,N,['space'],N,,,,,,,F,20,
15,6,231,10,10,5,['d'],['d'],Y,N,['space'],N,,,,,,,F,20,
15,7,232,4,4,5,['d'],['d'],Y,Y,['space'],Y,,,,,,,F,20,
15,8,233,13,13,5,['d'],['k'],N,N,['space'],N,,,,,,,F,20,
15,9,234,12,12,5,['k'],['d'],N,Y,['space'],Y,,,,,,,F,20,
15,10,235,6,6,5,['d'],['k'],N,N,['space'],N,,,,,,,F,20,
15,11,236,5,5,5,['d'],['k'],N,Y,['space'],Y,,,,,,,F,20,
15,12,237,12,12,5,['d'],['k'],N,N,['space'],N,,,,,,,F,20,
15,13,238,10,10,5,['k'],['d'],N,N,['space'],N,,,,,,,F,20,
15,14,239,14,14,5,['d'],['d'],Y,Y,['space'],Y,,,,,,,F,20,
16,0,240,2,2,5,['d'],['d'],Y,Y,['space'],Y,,,,,,,F,20,
16,1,241,8,8,5,['k'],['k'],Y,Y,['space'],Y,,,,,,,F,20,
16,2,242,6,6,5,['d'],['k'],N,Y,['space'],Y,,,,,,,F,20,
16,3,243,14,14,5,['k'],['k'],Y,N,['k'],N,,,,,,,F,20,
16,4,244,8,8,5,['d'],['k'],N,Y,['space'],Y,,,,,,,F,20,
16,5,245,14,14,5,['k'],['k'],Y,Y,None,N,,,,,,,F,20,
16,6,246,9,9,5,['k'],['k'],Y,N,None,Y,,,,,,,F,20,
16,7,247,13,13,5,['k'],['k'],Y,N,['k'],N,,,,,,,F,20,
16,8,248,7,7,5,['d'],['k'],N,N,None,Y,,,,,,,F,20,
16,9,249,13,13,5,['k'],['d'],N,Y,['k'],N,26,21,19,,,,F,20,
16,10,250,1,1,6,['d'],['d'],Y,,,,,,,,,,F,20,
16,11,251,13,13,6,['k'],['k'],Y,,,,,,,,,,F,20,
16,12,252,6,6,6,['d'],['k'],N,N,None,Y,,,,,,,F,20,
16,13,253,12,12,6,['k'],['k'],Y,N,None,Y,,,,,,,F,20,
16,14,254,4,4,6,['k'],['k'],Y,N,None,Y,,,,,,,F,20,
17,0,255,14,14,6,['d'],['k'],N,Y,None,N,,,,,,,F,20,
17,1,256,3,3,6,['k'],['d'],N,N,['k'],N,,,,,,,F,20,
17,2,257,8,8,6,['d'],['d'],Y,Y,['d'],N,,,,,,,F,20,
17,3,258,9,9,6,['k'],['k'],Y,N,['space'],N,,,,,,,F,20,
17,4,259,3,3,6,['d'],['d'],Y,N,['space'],N,,,,,,,F,20,
17,5,260,13,13,6,['k'],['d'],N,N,['space'],N,,,,,,,F,20,
17,6,261,2,2,6,['d'],['d'],Y,Y,['space'],Y,,,,,,,F,20,
17,7,262,14,14,6,['d'],['k'],N,Y,['space'],Y,,,,,,,F,20,
17,8,263,0,0,6,['k'],['k'],Y,N,['space'],N,,,,,,,F,20,
17,9,264,5,5,6,['d'],['d'],Y,N,['d'],N,,,,,,,F,20,
17,10,265,12,12,6,['k'],['d'],N,Y,['space'],Y,,,,,,,F,20,
17,11,266,8,8,6,['k'],['k'],Y,N,['space'],N,,,,,,,F,20,
17,12,267,7,7,6,['d'],['d'],Y,Y,['space'],Y,,,,,,,F,20,
17,13,268,4,4,6,['k'],['d'],N,N,['space'],N,,,,,,,F,20,
17,14,269,5,5,6,['d'],['d'],Y,N,['space'],N,,,,,,,F,20,
18,0,270,8,8,6,['k'],['d'],N,N,['space'],N,,,,,,,F,20,
18,1,271,9,9,6,['d'],['d'],Y,N,['space'],N,,,,,,,F,20,
18,2,272,8,8,6,['d'],['k'],N,Y,['space'],Y,,,,,,,F,20,
18,3,273,13,13,6,['k'],['d'],N,Y,['space'],Y,,,,,,,F,20,
18,4,274,12,12,6,['d'],['d'],Y,N,None,Y,,,,,,,F,20,
18,5,275,13,13,6,['d'],['d'],Y,N,None,Y,,,,,,,F,20,
18,6,276,14,14,6,['k'],['k'],Y,N,None,Y,,,,,,,F,20,
18,7,277,3,3,6,['d'],['d'],Y,Y,None,N,,,,,,,F,20,
18,8,278,10,10,6,['k'],['d'],N,N,None,Y,,,,,,,F,20,
18,9,279,0,0,6,['d'],['d'],Y,N,None,Y,,,,,,,F,20,
18,10,280,14,14,6,['k'],['d'],N,Y,None,N,,,,,,,F,20,
18,11,281,2,2,6,['d'],['d'],Y,N,None,Y,,,,,,,F,20,
18,12,282,4,4,6,['k'],['d'],N,N,None,Y,,,,,,,F,20,
18,13,283,11,11,6,['d'],['d'],Y,Y,None,N,,,,,,,F,20,
18,14,284,0,0,6,['k'],['d'],N,N,['space'],N,,,,,,,F,20,
19,0,285,11,11,6,['d'],['k'],N,N,['space'],N,,,,,,,F,20,
19,1,286,12,12,6,['k'],['d'],N,N,['space'],N,,,,,,,F,20,
19,2,287,13,13,6,['d'],['k'],N,Y,['space'],Y,,,,,,,F,20,
19,3,288,13,13,6,['k'],['k'],Y,Y,['space'],Y,,,,,,,F,20,
19,4,289,4,4,6,['k'],['d'],N,N,['k'],N,,,,,,,F,20,
19,5,290,3,3,6,['d'],['d'],Y,Y,['space'],Y,,,,,,,F,20,
19,6,291,9,9,6,['k'],['d'],N,Y,['space'],Y,,,,,,,F,20,
19,7,292,2,2,6,['d'],['d'],Y,N,['space'],N,,,,,,,F,20,
19,8,293,9,9,6,['k'],['d'],N,Y,['space'],Y,,,,,,,F,20,
19,9,294,1,1,6,['d'],['k'],N,Y,['space'],Y,,,,,,,F,20,
19,10,295,11,11,6,['k'],['k'],Y,Y,['space'],Y,,,,,,,F,20,
19,11,296,1,1,6,['d'],['k'],N,N,['space'],N,,,,,,,F,20,
19,12,297,11,11,6,['k'],['k'],Y,N,['space'],N,,,,,,,F,20,
19,13,298,14,14,6,['k'],['d'],N,N,['space'],N,,,,,,,F,20,
19,14,299,12,12,6,['d'],['k'],N,N,['space'],N,26,23,18,,,,F,20,
20,0,300,3,3,7,['k'],['d'],N,,,,,,,,,,F,20,
20,1,301,6,6,7,['k'],['k'],Y,,,,,,,,,,F,20,
20,2,302,10,10,7,['d'],['d'],Y,N,None,Y,,,,,,,F,20,
20,3,303,1,1,7,['k'],['d'],N,Y,['space'],Y,,,,,,,F,20,
20,4,304,10,10,7,['d'],['k'],N,Y,['space'],Y,,,,,,,F,20,
20,5,305,5,5,7,['k'],['d'],N,N,None,Y,,,,,,,F,20,
20,6,306,2,2,7,['d'],['k'],N,Y,['space'],Y,,,,,,,F,20,
20,7,307,1,1,7,['k'],['d'],N,N,['space'],N,,,,,,,F,20,
20,8,308,11,11,7,['d'],['k'],N,Y,['space'],Y,,,,,,,F,20,
20,9,309,2,2,7,['d'],['d'],Y,Y,['space'],Y,,,,,,,F,20,
20,10,310,2,2,7,['d'],['k'],N,Y,['space'],Y,,,,,,,F,20,
20,11,311,0,0,7,['k'],['d'],N,N,['space'],N,,,,,,,F,20,
20,12,312,12,12,7,['d'],['k'],N,N,['space'],N,,,,,,,F,20,
20,13,313,7,7,7,['k'],['k'],Y,N,['space'],N,,,,,,,F,20,
20,14,314,3,3,7,['k'],['d'],N,Y,['k'],N,,,,,,,F,20,
21,0,315,2,2,7,['d'],['d'],Y,N,None,Y,,,,,,,F,20,
21,1,316,1,1,7,['d'],['k'],N,Y,['space'],Y,,,,,,,F,20,
21,2,317,2,2,7,['k'],['k'],Y,N,None,Y,,,,,,,F,20,
21,3,318,1,1,7,['d'],['d'],Y,Y,['space'],Y,,,,,,,F,20,
21,4,319,6,6,7,['k'],['k'],Y,Y,['space'],Y,,,,,,,F,20,
21,5,320,11,11,7,['d'],['k'],N,Y,['space'],Y,,,,,,,F,20,
21,6,321,13,13,7,['k'],['k'],Y,N,['space'],N,,,,,,,F,20,
21,7,322,9,9,7,['d'],['k'],N,N,['space'],N,,,,,,,F,20,
21,8,323,3,3,7,['k'],['d'],N,N,None,Y,,,,,,,F,20,
21,9,324,8,8,7,['d'],['k'],N,N,None,Y,,,,,,,F,20,
21,10,325,10,10,7,['k'],['d'],N,N,['space'],N,,,,,,,F,20,
21,11,326,6,6,7,['d'],['k'],N,N,['space'],N,,,,,,,F,20,
21,12,327,4,4,7,['k'],['k'],Y,Y,['space'],Y,,,,,,,F,20,
21,13,328,0,0,7,['k'],['k'],Y,N,['space'],N,,,,,,,F,20,
21,14,329,7,7,7,['k'],['d'],N,N,['space'],N,,,,,,,F,20,
22,0,330,3,3,7,['d'],['k'],N,N,['space'],N,,,,,,,F,20,
22,1,331,9,9,7,['k'],['k'],Y,N,['space'],N,,,,,,,F,20,
22,2,332,10,10,7,['d'],['d'],Y,Y,['space'],Y,,,,,,,F,20,
22,3,333,12,12,7,['k'],['d'],N,Y,['space'],Y,,,,,,,F,20,
22,4,334,1,1,7,['d'],['d'],Y,N,['space'],N,,,,,,,F,20,
22,5,335,6,6,7,['d'],['d'],Y,N,['space'],N,,,,,,,F,20,
22,6,336,0,0,7,['k'],['d'],N,N,['space'],N,,,,,,,F,20,
22,7,337,13,13,7,['d'],['d'],Y,N,['space'],N,,,,,,,F,20,
22,8,338,11,11,7,['k'],['d'],N,Y,['space'],Y,,,,,,,F,20,
22,9,339,14,14,7,['d'],['k'],N,N,['space'],N,,,,,,,F,20,
22,10,340,2,2,7,['k'],['d'],N,N,['space'],N,,,,,,,F,20,
22,11,341,11,11,7,['d'],['k'],N,N,['space'],N,,,,,,,F,20,
22,12,342,11,11,7,['d'],['d'],Y,N,['space'],N,,,,,,,F,20,
22,13,343,8,8,7,['d'],['d'],Y,Y,['space'],Y,,,,,,,F,20,
22,14,344,3,3,7,['d'],['k'],N,Y,['space'],Y,,,,,,,F,20,
23,0,345,12,12,7,['k'],['k'],Y,Y,['space'],Y,,,,,,,F,20,
23,1,346,9,9,7,['k'],['k'],Y,Y,['space'],Y,,,,,,,F,20,
23,2,347,12,12,7,['d'],['k'],N,Y,['space'],Y,,,,,,,F,20,
23,3,348,4,4,7,['k'],['d'],N,N,None,Y,,,,,,,F,20,
23,4,349,0,0,7,['d'],['d'],Y,Y,None,N,21,26,21,,,,F,20,
23,5,350,2,2,8,['d'],['d'],Y,,,,,,,,,,F,20,
23,6,351,14,14,8,['k'],['k'],Y,,,,,,,,,,F,20,
23,7,352,1,1,8,['d'],['k'],N,Y,['space'],Y,,,,,,,F,20,
23,8,353,6,6,8,['k'],['d'],N,N,None,Y,,,,,,,F,20,
23,9,354,9,9,8,['d'],['d'],Y,N,None,Y,,,,,,,F,20,
23,10,355,5,5,8,['d'],['d'],Y,Y,['space'],Y,,,,,,,F,20,
23,11,356,5,5,8,['k'],['d'],N,N,None,Y,,,,,,,F,20,
23,12,357,10,10,8,['d'],['d'],Y,Y,['space'],Y,,,,,,,F,20,
23,13,358,4,4,8,['d'],['k'],N,N,['space'],N,,,,,,,F,20,
23,14,359,6,6,8,['k'],['d'],N,N,['space'],N,,,,,,,F,20,
24,0,360,12,12,8,['d'],['d'],Y,N,['space'],N,,,,,,,F,20,
24,1,361,0,0,8,['k'],['k'],Y,Y,['space'],Y,,,,,,,F,20,
24,2,362,0,0,8,['d'],['d'],Y,Y,['k'],N,,,,,,,F,20,
24,3,363,11,11,8,['d'],['k'],N,Y,['space'],Y,,,,,,,F,20,
24,4,364,14,14,8,['k'],['k'],Y,Y,['space'],Y,,,,,,,F,20,
24,5,365,13,13,8,['d'],['k'],N,N,['space'],N,,,,,,,F,20,
24,6,366,3,3,8,['k'],['d'],N,Y,None,N,,,,,,,F,20,
24,7,367,1,1,8,['d'],['d'],Y,N,['space'],N,,,,,,,F,20,
24,8,368,7,7,8,['k'],['d'],N,N,['space'],N,,,,,,,F,20,
24,9,369,6,6,8,['d'],['k'],N,Y,['space'],Y,,,,,,,F,20,
24,10,370,11,11,8,['k'],['d'],N,Y,['k'],N,,,,,,,F,20,
24,11,371,13,13,8,['d'],['d'],Y,Y,['space'],Y,,,,,,,F,20,
24,12,372,12,12,8,['d'],['d'],Y,Y,['space'],Y,,,,,,,F,20,
24,13,373,0,0,8,['k'],['k'],Y,N,['space'],N,,,,,,,F,20,
24,14,374,0,0,8,['d'],['k'],N,Y,['space'],Y,,,,,,,F,20,
25,0,375,0,0,8,['k'],['k'],Y,Y,['space'],Y,,,,,,,F,20,
25,1,376,0,0,8,['d'],['d'],Y,Y,['space'],Y,,,,,,,F,20,
25,2,377,3,3,8,['k'],['d'],N,N,['space'],N,,,,,,,F,20,
25,3,378,13,13,8,['d'],['d'],Y,Y,['space'],Y,,,,,,,F,20,
25,4,379,9,9,8,['d'],['d'],Y,Y,['space'],Y,,,,,,,F,20,
25,5,380,2,2,8,['k'],['k'],Y,Y,['space'],Y,,,,,,,F,20,
25,6,381,11,11,8,['k'],['d'],N,Y,['space'],Y,,,,,,,F,20,
25,7,382,11,11,8,['d'],['d'],Y,Y,['space'],Y,,,,,,,F,20,
25,8,383,12,12,8,['k'],['k'],Y,Y,['space'],Y,,,,,,,F,20,
25,9,384,4,4,8,['d'],['k'],N,N,['k'],N,,,,,,,F,20,
25,10,385,14,14,8,['k'],['k'],Y,N,['space'],N,,,,,,,F,20,
25,11,386,7,7,8,['d'],['k'],N,Y,['space'],Y,,,,,,,F,20,
25,12,387,10,10,8,['k'],['k'],Y,Y,['space'],Y,,,,,,,F,20,
25,13,388,9,9,8,['d'],['d'],Y,N,None,Y,,,,,,,F,20,
25,14,389,12,12,8,['k'],['d'],N,Y,None,N,,,,,,,F,20,
26,0,390,9,9,8,['d'],['k'],N,Y,['space'],Y,,,,,,,F,20,
26,1,391,5,5,8,['k'],['d'],N,N,['space'],N,,,,,,,F,20,
26,2,392,13,13,8,['d'],['d'],Y,N,['d'],N,,,,,,,F,20,
26,3,393,12,12,8,['d'],['d'],Y,N,['space'],N,,,,,,,F,20,
26,4,394,4,4,8,['k'],['d'],N,N,['space'],N,,,,,,,F,20,
26,5,395,14,14,8,['d'],['k'],N,N,['space'],N,,,,,,,F,20,
26,6,396,8,8,8,['d'],['k'],N,N,['k'],N,,,,,,,F,20,
26,7,397,12,12,8,['k'],['d'],N,N,['k'],N,,,,,,,F,20,
26,8,398,1,1,8,['k'],['d'],N,N,['space'],N,,,,,,,F,20,
26,9,399,12,12,8,['k'],['d'],N,N,['space'],N,25,25,25,,,,F,20,
26,10,400,8,8,9,['d'],['k'],N,,,,,,,,,,F,20,
26,11,401,3,3,9,['d'],['k'],N,,,,,,,,,,F,20,
26,12,402,7,7,9,['k'],['k'],Y,Y,['k'],N,,,,,,,F,20,
26,13,403,5,5,9,['k'],['k'],Y,Y,None,N,,,,,,,F,20,
26,14,404,12,12,9,['d'],['k'],N,N,['k'],N,,,,,,,F,20,
27,0,405,5,5,9,['d'],['d'],Y,Y,['k'],N,,,,,,,F,20,
27,1,406,0,0,9,['k'],['k'],Y,N,['space'],N,,,,,,,F,20,
27,2,407,8,8,9,['d'],['k'],N,Y,['space'],Y,,,,,,,F,20,
27,3,408,5,5,9,['k'],['k'],Y,N,None,Y,,,,,,,F,20,
27,4,409,14,14,9,['d'],['k'],N,N,['space'],N,,,,,,,F,20,
27,5,410,11,11,9,['k'],['k'],Y,N,['space'],N,,,,,,,F,20,
27,6,411,1,1,9,['d'],['d'],Y,Y,['space'],Y,,,,,,,F,20,
27,7,412,8,8,9,['k'],['k'],Y,N,['k'],N,,,,,,,F,20,
27,8,413,9,9,9,['d'],['d'],Y,N,['k'],N,,,,,,,F,20,
27,9,414,4,4,9,['k'],['k'],Y,N,['space'],N,,,,,,,F,20,
27,10,415,14,14,9,['k'],['k'],Y,N,['space'],N,,,,,,,F,20,
27,11,416,7,7,9,['k'],['d'],N,Y,['space'],Y,,,,,,,F,20,
27,12,417,9,9,9,['d'],['d'],Y,N,['space'],N,,,,,,,F,20,
27,13,418,0,0,9,['d'],['d'],Y,Y,['space'],Y,,,,,,,F,20,
27,14,419,11,11,9,['k'],['k'],Y,Y,['space'],Y,,,,,,,F,20,
28,0,420,3,3,9,['k'],['d'],N,Y,['d'],N,,,,,,,F,20,
28,1,421,4,4,9,['d'],['k'],N,Y,['space'],Y,,,,,,,F,20,
28,2,422,11,11,9,['k'],['k'],Y,Y,['k'],N,,,,,,,F,20,
28,3,423,10,10,9,['d'],['d'],Y,Y,['space'],Y,,,,,,,F,20,
28,4,424,9,9,9,['d'],['d'],Y,Y,['space'],Y,,,,,,,F,20,
28,5,425,1,1,9,['k'],['k'],Y,Y,['space'],Y,,,,,,,F,20,
28,6,426,0,0,9,['d'],['k'],N,N,['space'],N,,,,,,,F,20,
28,7,427,9,9,9,['k'],['k'],Y,Y,['space'],Y,,,,,,,F,20,
28,8,428,8,8,9,['d'],['k'],N,Y,['space'],Y,,,,,,,F,20,
28,9,429,7,7,9,['k'],['k'],Y,N,['space'],N,,,,,,,F,20,
28,10,430,3,3,9,['k'],['d'],N,Y,['space'],Y,,,,,,,F,20,
28,11,431,14,14,9,['d'],['k'],N,Y,['space'],Y,,,,,,,F,20,
28,12,432,10,10,9,['k'],['k'],Y,Y,['space'],Y,,,,,,,F,20,
28,13,433,4,4,9,['d'],['d'],Y,N,['space'],N,,,,,,,F,20,
28,14,434,4,4,9,['k'],['d'],N,N,['space'],N,,,,,,,F,20,
29,0,435,3,3,9,['d'],['k'],N,Y,['space'],Y,,,,,,,F,20,
29,1,436,4,4,9,['d'],['k'],N,Y,['space'],Y,,,,,,,F,20,
29,2,437,10,10,9,['k'],['d'],N,N,['space'],N,,,,,,,F,20,
29,3,438,2,2,9,['d'],['k'],N,Y,None,N,,,,,,,F,20,
29,4,439,1,1,9,['d'],['d'],Y,N,['space'],N,,,,,,,F,20,
29,5,440,4,4,9,['d'],['d'],Y,Y,['space'],Y,,,,,,,F,20,
29,6,441,9,9,9,['d'],['k'],N,N,['space'],N,,,,,,,F,20,
29,7,442,1,1,9,['k'],['k'],Y,Y,['space'],Y,,,,,,,F,20,
29,8,443,2,2,9,['k'],['k'],Y,Y,['space'],Y,,,,,,,F,20,
29,9,444,7,7,9,['d'],['d'],Y,N,['space'],N,,,,,,,F,20,
29,10,445,9,9,9,['k'],['k'],Y,N,['space'],N,,,,,,,F,20,
29,11,446,2,2,9,['d'],['k'],N,N,['space'],N,,,,,,,F,20,
29,12,447,12,12,9,['k'],['k'],Y,N,['space'],N,,,,,,,F,20,
29,13,448,9,9,9,['d'],['d'],Y,N,['space'],N,,,,,,,F,20,
29,14,449,5,5,9,['k'],['d'],N,N,['k'],N,30,20,25,,,,F,20,
30,0,450,7,7,10,['d'],['d'],Y,,,,,,,,,,F,20,
30,1,451,5,5,10,['k'],['d'],N,,,,,,,,,,F,20,
30,2,452,14,14,10,['k'],['d'],N,N,['d'],N,,,,,,,F,20,
30,3,453,3,3,10,['d'],['k'],N,N,['d'],N,,,,,,,F,20,
30,4,454,2,2,10,['k'],['d'],N,Y,None,N,,,,,,,F,20,
30,5,455,7,7,10,['d'],['d'],Y,Y,None,N,,,,,,,F,20,
30,6,456,6,6,10,['d'],['d'],Y,N,None,Y,,,,,,,F,20,
30,7,457,7,7,10,['d'],['k'],N,Y,None,N,,,,,,,F,20,
30,8,458,12,12,10,['d'],['d'],Y,N,['k'],N,,,,,,,F,20,
30,9,459,0,0,10,['k'],['k'],Y,N,['space'],N,,,,,,,F,20,
30,10,460,14,14,10,['d'],['k'],N,Y,['space'],Y,,,,,,,F,20,
30,11,461,1,1,10,['k'],['d'],N,N,['space'],N,,,,,,,F,20,
30,12,462,0,0,10,['d'],['d'],Y,Y,['space'],Y,,,,,,,F,20,
30,13,463,9,9,10,['d'],['k'],N,Y,['space'],Y,,,,,,,F,20,
30,14,464,11,11,10,['k'],['d'],N,N,['space'],N,,,,,,,F,20,
31,0,465,8,8,10,['d'],['k'],N,N,None,Y,,,,,,,F,20,
31,1,466,3,3,10,['k'],['d'],N,N,None,Y,,,,,,,F,20,
31,2,467,4,4,10,['d'],['k'],N,N,None,Y,,,,,,,F,20,
31,3,468,10,10,10,['d'],['k'],N,N,None,Y,,,,,,,F,20,
31,4,469,11,11,10,['d'],['d'],Y,Y,['space'],Y,,,,,,,F,20,
31,5,470,0,0,10,['d'],['d'],Y,Y,['space'],Y,,,,,,,F,20,
31,6,471,12,12,10,['d'],['d'],Y,N,['space'],N,,,,,,,F,20,
31,7,472,2,2,10,['k'],['k'],Y,N,['space'],N,,,,,,,F,20,
31,8,473,11,11,10,['k'],['d'],N,Y,['space'],Y,,,,,,,F,20,
31,9,474,1,1,10,['d'],['d'],Y,N,['space'],N,,,,,,,F,20,
31,10,475,10,10,10,['d'],['d'],Y,Y,['space'],Y,,,,,,,F,20,
31,11,476,7,7,10,['d'],['k'],N,Y,['space'],Y,,,,,,,F,20,
31,12,477,7,7,10,['k'],['d'],N,Y,['space'],Y,,,,,,,F,20,
31,13,478,13,13,10,['d'],['d'],Y,N,['space'],N,,,,,,,F,20,
31,14,479,5,5,10,['k'],['d'],N,Y,['space'],Y,,,,,,,F,20,
32,0,480,0,0,10,['d'],['d'],Y,Y,['space'],Y,,,,,,,F,20,
32,1,481,12,12,10,['k'],['d'],N,N,['space'],N,,,,,,,F,20,
32,2,482,8,8,10,['d'],['k'],N,N,['space'],N,,,,,,,F,20,
32,3,483,1,1,10,['k'],['k'],Y,Y,None,N,,,,,,,F,20,
32,4,484,8,8,10,['d'],['d'],Y,N,['space'],N,,,,,,,F,20,
32,5,485,3,3,10,['d'],['k'],N,N,['space'],N,,,,,,,F,20,
32,6,486,9,9,10,['k'],['d'],N,N,['space'],N,,,,,,,F,20,
32,7,487,4,4,10,['d'],['d'],Y,Y,['d'],N,,,,,,,F,20,
32,8,488,13,13,10,['k'],['d'],N,Y,['space'],Y,,,,,,,F,20,
32,9,489,0,0,10,['k'],['k'],Y,N,['space'],N,,,,,,,F,20,
32,10,490,3,3,10,['d'],['d'],Y,N,['space'],N,,,,,,,F,20,
32,11,491,13,13,10,['d'],['k'],N,N,['space'],N,,,,,,,F,20,
32,12,492,10,10,10,['k'],['k'],Y,N,['space'],N,,,,,,,F,20,
32,13,493,0,0,10,['d'],['d'],Y,Y,['space'],Y,,,,,,,F,20,
32,14,494,10,10,10,['d'],['d'],Y,N,['space'],N,,,,,,,F,20,
33,0,495,3,3,10,['k'],['k'],Y,N,['space'],N,,,,,,,F,20,
33,1,496,2,2,10,['d'],['k'],N,N,['space'],N,,,,,,,F,20,
33,2,497,14,14,10,['k'],['k'],Y,N,['space'],N,,,,,,,F,20,
33,3,498,3,3,10,['k'],['d'],N,Y,['space'],Y,,,,,,,F,20,
33,4,499,8,8,10,['d'],['d'],Y,Y,['space'],Y,25,20,20,,,,F,20,
33,5,500,11,11,11,['k'],['d'],Y,,,,,,,Y,Y,Y,F,20,
33,6,501,6,6,11,['d'],['d'],N,,,,,,,,Y,Y,F,20,
33,7,502,14,14,11,['k'],['k'],N,N,['space'],N,,,,,Y,Y,F,20,
33,8,503,5,5,11,['d'],['d'],N,Y,['space'],Y,,,,,Y,Y,F,20,
33,9,504,4,4,11,['d'],['d'],N,Y,['space'],Y,,,,,Y,Y,F,20,
33,10,505,8,8,11,['k'],['d'],Y,N,None,Y,,,,,Y,Y,F,20,
33,11,506,3,3,11,['d'],['d'],N,Y,None,N,,,,,Y,Y,F,20,
33,12,507,2,2,11,['k'],['k'],N,N,['space'],N,,,,,Y,Y,F,20,
33,13,508,6,6,11,['d'],['k'],Y,Y,None,N,,,,,Y,Y,F,20,
33,14,509,6,6,11,['k'],['k'],N,N,None,Y,,,,,Y,Y,F,20,
34,0,510,1,1,11,['d'],['d'],N,Y,None,N,,,,,Y,Y,F,20,
34,1,511,8,8,11,['k'],['d'],Y,N,['space'],N,,,,,Y,Y,F,20,
34,2,512,12,12,11,['k'],['d'],Y,N,['space'],N,,,,,Y,Y,F,20,
34,3,513,6,6,11,['d'],['d'],N,N,['space'],N,,,,,Y,Y,F,20,
34,4,514,7,7,11,['k'],['k'],N,N,['space'],N,,,,,Y,Y,F,20,
34,5,515,12,12,11,['d'],['d'],N,N,['space'],N,,,,,Y,Y,F,20,
34,6,516,13,13,11,['d'],['k'],Y,Y,['space'],Y,,,,,Y,Y,F,20,
34,7,517,5,5,11,['k'],['k'],N,Y,['space'],Y,,,,,Y,Y,F,20,
34,8,518,0,0,11,['d'],['d'],N,N,['space'],N,,,,,Y,Y,F,20,
34,9,519,2,2,11,['k'],['k'],N,N,['space'],N,,,,,Y,Y,F,20,
34,10,520,11,11,11,['k'],['d'],Y,N,['space'],N,,,,,Y,Y,F,20,
34,11,521,0,0,11,['k'],['d'],Y,N,['space'],N,,,,,Y,Y,F,20,
34,12,522,7,7,11,['d'],['k'],Y,N,['space'],N,,,,,Y,Y,F,20,
34,13,523,5,5,11,['k'],['k'],N,Y,['space'],Y,,,,,Y,Y,F,20,
34,14,524,13,13,11,['d'],['d'],N,N,['space'],N,,,,,Y,Y,F,20,
35,0,525,14,14,11,['k'],['d'],Y,Y,['space'],Y,,,,,Y,Y,F,20,
35,1,526,9,9,11,['k'],['d'],Y,Y,['space'],Y,,,,,Y,Y,F,20,
35,2,527,0,0,11,['d'],['d'],N,N,['space'],N,,,,,Y,Y,F,20,
35,3,528,9,9,11,['k'],['d'],Y,N,['space'],N,,,,,Y,Y,F,20,
35,4,529,10,10,11,['d'],['d'],N,N,['space'],N,,,,,Y,Y,F,20,
35,5,530,5,5,11,['k'],['d'],Y,N,['space'],N,,,,,Y,Y,F,20,
35,6,531,14,14,11,['d'],['d'],N,Y,['space'],Y,,,,,Y,Y,F,20,
35,7,532,9,9,11,['k'],['k'],N,N,['space'],N,,,,,Y,Y,F,20,
35,8,533,12,12,11,['d'],['k'],Y,N,None,Y,,,,,Y,Y,F,20,
35,9,534,0,0,11,['d'],['d'],N,Y,['space'],Y,,,,,Y,Y,F,20,
35,10,535,1,1,11,['k'],['k'],N,Y,['space'],Y,,,,,Y,Y,F,20,
35,11,536,0,0,11,['k'],['k'],N,Y,['space'],Y,,,,,Y,Y,F,20,
35,12,537,9,9,11,['d'],['k'],Y,Y,['space'],Y,,,,,Y,Y,F,20,
35,13,538,9,9,11,['d'],['k'],Y,Y,['space'],Y,,,,,Y,Y,F,20,
35,14,539,4,4,11,['k'],['d'],Y,Y,['space'],Y,,,,,Y,Y,F,20,
36,0,540,11,11,11,['d'],['d'],N,N,['d'],N,,,,,Y,Y,F,20,
36,1,541,12,12,11,['k'],['k'],N,N,['space'],N,,,,,Y,Y,F,20,
36,2,542,3,3,11,['d'],['k'],Y,N,['space'],N,,,,,Y,Y,F,20,
36,3,543,10,10,11,['k'],['d'],Y,N,['space'],N,,,,,Y,Y,F,20,
36,4,544,14,14,11,['k'],['k'],N,Y,['d'],N,,,,,Y,Y,F,20,
36,5,545,6,6,11,['d'],['k'],Y,Y,['space'],Y,,,,,Y,Y,F,20,
36,6,546,8,8,11,['k'],['k'],N,N,['space'],N,,,,,Y,Y,F,20,
36,7,547,7,7,11,['k'],['d'],Y,N,['space'],N,,,,,Y,Y,F,20,
36,8,548,4,4,11,['k'],['k'],N,Y,['space'],Y,,,,,Y,Y,F,20,
36,9,549,4,4,11,['d'],['k'],Y,Y,['space'],Y,22,20,21,,Y,Y,F,20,
36,10,550,5,5,12,['k'],['k'],N,,,,,,,,Y,Y,F,20,
36,11,551,1,1,12,['d'],['d'],N,,,,,,,,Y,Y,F,20,
36,12,552,10,10,12,['k'],['d'],Y,Y,None,N,,,,,Y,Y,F,20,
36,13,553,6,6,12,['k'],['d'],Y,N,None,Y,,,,,Y,Y,F,20,
36,14,554,6,6,12,['k'],['d'],Y,N,['space'],N,,,,,Y,Y,F,20,
37,0,555,13,13,12,['k'],['d'],Y,Y,['space'],Y,,,,,Y,Y,F,20,
37,1,556,7,7,12,['d'],['k'],Y,Y,['space'],Y,,,,,Y,Y,F,20,
37,2,557,11,11,12,['d'],['d'],N,Y,['space'],Y,,,,,Y,Y,F,20,
37,3,558,9,9,12,['k'],['d'],Y,N,['space'],N,,,,,Y,Y,F,20,
37,4,559,11,11,12,['k'],['d'],Y,Y,['space'],Y,,,,,Y,Y,F,20,
37,5,560,8,8,12,['k'],['k'],N,Y,['space'],Y,,,,,Y,Y,F,20,
37,6,561,11,11,12,['d'],['k'],Y,Y,['space'],Y,,,,,Y,Y,F,20,
37,7,562,8,8,12,['d'],['k'],Y,Y,['space'],Y,,,,,Y,Y,F,20,
37,8,563,9,9,12,['d'],['k'],Y,N,['space'],N,,,,,Y,Y,F,20,
37,9,564,7,7,12,['k'],['d'],Y,N,['space'],N,,,,,Y,Y,F,20,
37,10,565,5,5,12,['d'],['k'],Y,N,None,Y,,,,,Y,Y,F,20,
37,11,566,3,3,12,['d'],['k'],Y,N,None,Y,,,,,Y,Y,F,20,
37,12,567,10,10,12,['k'],['d'],Y,Y,['k'],N,,,,,Y,Y,F,20,
37,13,568,5,5,12,['d'],['d'],N,Y,None,N,,,,,Y,Y,F,20,
37,14,569,14,14,12,['k'],['k'],N,Y,None,N,,,,,Y,Y,F,20,
38,0,570,1,1,12,['d'],['k'],Y,N,['space'],N,,,,,Y,Y,F,20,
38,1,571,14,14,12,['k'],['k'],N,N,['space'],N,,,,,Y,Y,F,20,
38,2,572,13,13,12,['d'],['k'],Y,N,['space'],N,,,,,Y,Y,F,20,
38,3,573,12,12,12,['k'],['d'],Y,Y,None,N,,,,,Y,Y,F,20,
38,4,574,0,0,12,['d'],['k'],Y,Y,['d'],N,,,,,Y,Y,F,20,
38,5,575,10,10,12,['k'],['d'],Y,N,None,Y,,,,,Y,Y,F,20,
38,6,576,12,12,12,['d'],['k'],Y,Y,None,N,,,,,Y,Y,F,20,
38,7,577,14,14,12,['k'],['d'],Y,N,None,Y,,,,,Y,Y,F,20,
38,8,578,0,0,12,['d'],['d'],N,Y,None,N,,,,,Y,Y,F,20,
38,9,579,5,5,12,['k'],['k'],N,Y,['k'],N,,,,,Y,Y,F,20,
38,10,580,2,2,12,None,,Timed out,N,None,Y,,,,,Y,Y,F,20,
38,11,581,9,9,12,None,,Timed out,Y,['d'],N,,,,,Y,Y,F,20,
38,12,582,3,3,12,['k'],['d'],Y,Y,['space'],Y,,,,,Y,Y,F,20,
38,13,583,9,9,12,['d'],['k'],Y,N,['space'],N,,,,,Y,Y,F,20,
38,14,584,5,5,12,['k'],['k'],N,N,None,Y,,,,,Y,Y,F,20,
39,0,585,2,2,12,['k'],['k'],N,N,None,Y,,,,,Y,Y,F,20,
39,1,586,10,10,12,['d'],['k'],Y,Y,['space'],Y,,,,,Y,Y,F,20,
39,2,587,11,11,12,['d'],['d'],N,N,['space'],N,,,,,Y,Y,F,20,
39,3,588,5,5,12,['k'],['k'],N,N,['space'],N,,,,,Y,Y,F,20,
39,4,589,6,6,12,['k'],['d'],Y,Y,['space'],Y,,,,,Y,Y,F,20,
39,5,590,1,1,12,['d'],['d'],N,Y,['space'],Y,,,,,Y,Y,F,20,
39,6,591,6,6,12,['k'],['k'],N,N,['space'],N,,,,,Y,Y,F,20,
39,7,592,7,7,12,['d'],['k'],Y,N,['space'],N,,,,,Y,Y,F,20,
39,8,593,13,13,12,['d'],['d'],N,Y,['space'],Y,,,,,Y,Y,F,20,
39,9,594,13,13,12,['k'],['k'],N,Y,['space'],Y,,,,,Y,Y,F,20,
39,10,595,5,5,12,['d'],['k'],Y,N,['space'],N,,,,,Y,Y,F,20,
39,11,596,0,0,12,['d'],['k'],Y,Y,['space'],Y,,,,,Y,Y,F,20,
39,12,597,4,4,12,['d'],['d'],N,N,['space'],N,,,,,Y,Y,F,20,
39,13,598,0,0,12,['k'],['k'],N,Y,['space'],Y,,,,,Y,Y,F,20,
39,14,599,1,1,12,['d'],['d'],N,N,None,Y,28,24,25,,Y,Y,F,20,
