.thisRepN,.thisTrialN,.thisN,.thisIndex,.thisTrial,Block Number,Key pressed,Correct?,Category,Int Match?,Int Response,Int Correct?,Line Accuracy,Interference Accuracy,Matching Interferences,New instruction shown?,Buttons switched?,Fast?,gender,age,
0,0,0,0,0,1,None,Timed out,,,,,,,,,,,female,20,
0,1,1,4,4,1,['d'],N,['k'],,,,,,,,,,female,20,
0,2,2,11,11,1,['k'],Y,['k'],N,None,Y,,,,,,,female,20,
0,3,3,4,4,1,['k'],Y,['k'],N,None,Y,,,,,,,female,20,
0,4,4,1,1,1,['k'],N,['d'],N,None,Y,,,,,,,female,20,
0,5,5,2,2,1,['d'],Y,['d'],Y,None,N,,,,,,,female,20,
0,6,6,6,6,1,['k'],Y,['k'],N,None,Y,,,,,,,female,20,
0,7,7,5,5,1,['d'],Y,['d'],N,None,Y,,,,,,,female,20,
0,8,8,10,10,1,['k'],Y,['k'],N,None,Y,,,,,,,female,20,
0,9,9,2,2,1,['d'],Y,['d'],Y,None,N,,,,,,,female,20,
0,10,10,7,7,1,['d'],Y,['d'],Y,None,N,,,,,,,female,20,
0,11,11,7,7,1,['k'],Y,['k'],N,None,Y,,,,,,,female,20,
0,12,12,10,10,1,['d'],Y,['d'],Y,['space'],Y,,,,,,,female,20,
0,13,13,12,12,1,['k'],Y,['k'],N,None,Y,,,,,,,female,20,
0,14,14,9,9,1,['d'],Y,['d'],N,None,Y,,,,,,,female,20,
1,0,15,5,5,1,['k'],Y,['k'],N,None,Y,,,,,,,female,20,
1,1,16,8,8,1,['d'],Y,['d'],Y,None,N,,,,,,,female,20,
1,2,17,0,0,1,['k'],Y,['k'],Y,None,N,,,,,,,female,20,
1,3,18,6,6,1,['d'],Y,['d'],Y,['space'],Y,,,,,,,female,20,
1,4,19,12,12,1,['k'],Y,['k'],Y,['space'],Y,,,,,,,female,20,
1,5,20,8,8,1,['k'],Y,['k'],Y,['space'],Y,,,,,,,female,20,
1,6,21,0,0,1,['d'],Y,['d'],N,None,Y,,,,,,,female,20,
1,7,22,2,2,1,['d'],Y,['d'],Y,['space'],Y,,,,,,,female,20,
1,8,23,0,0,1,['k'],Y,['k'],Y,None,N,,,,,,,female,20,
1,9,24,4,4,1,['d'],Y,['d'],N,None,Y,,,,,,,female,20,
1,10,25,6,6,1,['k'],Y,['k'],N,None,Y,,,,,,,female,20,
1,11,26,3,3,1,['k'],Y,['k'],N,None,Y,,,,,,,female,20,
1,12,27,4,4,1,['d'],Y,['d'],N,['space'],N,,,,,,,female,20,
1,13,28,6,6,1,['d'],Y,['d'],Y,None,N,,,,,,,female,20,
1,14,29,11,11,1,['d'],Y,['d'],Y,['space'],Y,,,,,,,female,20,
2,0,30,9,9,1,['k'],Y,['k'],N,None,Y,,,,,,,female,20,
2,1,31,5,5,1,['d'],Y,['d'],Y,None,N,,,,,,,female,20,
2,2,32,4,4,1,['k'],Y,['k'],N,None,Y,,,,,,,female,20,
2,3,33,8,8,1,['k'],Y,['k'],N,None,Y,,,,,,,female,20,
2,4,34,2,2,1,['d'],Y,['d'],N,None,Y,,,,,,,female,20,
2,5,35,14,14,1,['k'],Y,['k'],N,None,Y,,,,,,,female,20,
2,6,36,5,5,1,['d'],Y,['d'],N,None,Y,,,,,,,female,20,
2,7,37,5,5,1,['k'],Y,['k'],Y,None,N,,,,,,,female,20,
2,8,38,9,9,1,['d'],Y,['d'],Y,None,N,,,,,,,female,20,
2,9,39,13,13,1,['k'],Y,['k'],N,['space'],N,,,,,,,female,20,
2,10,40,11,11,1,['d'],Y,['d'],Y,None,N,,,,,,,female,20,
2,11,41,11,11,1,['k'],Y,['k'],N,None,Y,,,,,,,female,20,
2,12,42,4,4,1,['d'],Y,['d'],Y,['space'],Y,,,,,,,female,20,
2,13,43,7,7,1,['d'],Y,['d'],N,None,Y,,,,,,,female,20,
2,14,44,5,5,1,['k'],Y,['k'],Y,None,N,,,,,,,female,20,
3,0,45,2,2,1,['d'],Y,['d'],Y,['space'],Y,,,,,,,female,20,
3,1,46,8,8,1,['d'],Y,['d'],Y,None,N,,,,,,,female,20,
3,2,47,2,2,1,['d'],Y,['d'],N,['space'],N,,,,,,,female,20,
3,3,48,8,8,1,['k'],Y,['k'],Y,None,N,,,,,,,female,20,
3,4,49,4,4,1,['d'],Y,['d'],Y,['space'],Y,47,31,23,,,,female,20,
3,5,50,9,9,2,['k'],Y,['k'],,,,,,,,,,female,20,
3,6,51,12,12,2,['d'],Y,['d'],,,,,,,,,,female,20,
3,7,52,2,2,2,['k'],Y,['k'],Y,['space'],Y,,,,,,,female,20,
3,8,53,9,9,2,['d'],Y,['d'],Y,['space'],Y,,,,,,,female,20,
3,9,54,7,7,2,['k'],Y,['k'],Y,['space'],Y,,,,,,,female,20,
3,10,55,12,12,2,['d'],Y,['d'],Y,['space'],Y,,,,,,,female,20,
3,11,56,2,2,2,['d'],Y,['d'],N,None,Y,,,,,,,female,20,
3,12,57,14,14,2,['k'],Y,['k'],N,None,Y,,,,,,,female,20,
3,13,58,10,10,2,['d'],Y,['d'],N,None,Y,,,,,,,female,20,
3,14,59,12,12,2,['k'],Y,['k'],N,None,Y,,,,,,,female,20,
4,0,60,5,5,2,['k'],Y,['k'],Y,None,N,,,,,,,female,20,
4,1,61,3,3,2,['d'],Y,['d'],N,None,Y,,,,,,,female,20,
4,2,62,7,7,2,['k'],Y,['k'],Y,['space'],Y,,,,,,,female,20,
4,3,63,12,12,2,['d'],Y,['d'],N,None,Y,,,,,,,female,20,
4,4,64,5,5,2,['k'],Y,['k'],N,None,Y,,,,,,,female,20,
4,5,65,8,8,2,['d'],Y,['d'],Y,None,N,,,,,,,female,20,
4,6,66,14,14,2,['d'],Y,['d'],N,None,Y,,,,,,,female,20,
4,7,67,6,6,2,['k'],Y,['k'],N,None,Y,,,,,,,female,20,
4,8,68,10,10,2,['k'],Y,['k'],N,None,Y,,,,,,,female,20,
4,9,69,1,1,2,['d'],Y,['d'],N,None,Y,,,,,,,female,20,
4,10,70,10,10,2,['d'],Y,['d'],N,None,Y,,,,,,,female,20,
4,11,71,7,7,2,['d'],Y,['d'],N,None,Y,,,,,,,female,20,
4,12,72,13,13,2,['k'],Y,['k'],N,None,Y,,,,,,,female,20,
4,13,73,1,1,2,['k'],Y,['k'],Y,None,N,,,,,,,female,20,
4,14,74,6,6,2,['d'],Y,['d'],Y,None,N,,,,,,,female,20,
5,0,75,9,9,2,['d'],Y,['d'],Y,None,N,,,,,,,female,20,
5,1,76,11,11,2,['d'],Y,['d'],Y,None,N,,,,,,,female,20,
5,2,77,5,5,2,['k'],Y,['k'],Y,['space'],Y,,,,,,,female,20,
5,3,78,8,8,2,['k'],Y,['k'],N,None,Y,,,,,,,female,20,
5,4,79,13,13,2,['k'],Y,['k'],N,None,Y,,,,,,,female,20,
5,5,80,4,4,2,['k'],Y,['k'],Y,['space'],Y,,,,,,,female,20,
5,6,81,2,2,2,['k'],Y,['k'],N,None,Y,,,,,,,female,20,
5,7,82,11,11,2,['k'],Y,['k'],Y,None,N,,,,,,,female,20,
5,8,83,6,6,2,['d'],Y,['d'],N,None,Y,,,,,,,female,20,
5,9,84,1,1,2,['d'],Y,['d'],N,None,Y,,,,,,,female,20,
5,10,85,13,13,2,['d'],Y,['d'],Y,['space'],Y,,,,,,,female,20,
5,11,86,10,10,2,['k'],Y,['k'],N,None,Y,,,,,,,female,20,
5,12,87,2,2,2,['k'],Y,['k'],Y,['space'],Y,,,,,,,female,20,
5,13,88,12,12,2,['d'],Y,['d'],Y,None,N,,,,,,,female,20,
5,14,89,2,2,2,['k'],Y,['k'],Y,None,N,,,,,,,female,20,
6,0,90,2,2,2,['d'],Y,['d'],N,None,Y,,,,,,,female,20,
6,1,91,10,10,2,['d'],Y,['d'],Y,None,N,,,,,,,female,20,
6,2,92,6,6,2,['k'],Y,['k'],N,['space'],N,,,,,,,female,20,
6,3,93,1,1,2,['k'],Y,['k'],N,None,Y,,,,,,,female,20,
6,4,94,9,9,2,['k'],Y,['k'],Y,None,N,,,,,,,female,20,
6,5,95,1,1,2,['k'],Y,['k'],N,None,Y,,,,,,,female,20,
6,6,96,1,1,2,['k'],Y,['k'],N,None,Y,,,,,,,female,20,
6,7,97,14,14,2,['d'],Y,['d'],N,None,Y,,,,,,,female,20,
6,8,98,11,11,2,['d'],Y,['d'],N,None,Y,,,,,,,female,20,
6,9,99,10,10,2,['d'],Y,['d'],Y,None,N,50,35,21,,,,female,20,
6,10,100,5,5,3,['k'],Y,['k'],,,,,,,,,,female,20,
6,11,101,14,14,3,['d'],Y,['d'],,,,,,,,,,female,20,
6,12,102,3,3,3,['d'],Y,['d'],N,None,Y,,,,,,,female,20,
6,13,103,14,14,3,['d'],Y,['d'],Y,['space'],Y,,,,,,,female,20,
6,14,104,4,4,3,['k'],N,['d'],Y,None,N,,,,,,,female,20,
7,0,105,7,7,3,['d'],Y,['d'],Y,None,N,,,,,,,female,20,
7,1,106,9,9,3,['d'],Y,['d'],N,None,Y,,,,,,,female,20,
7,2,107,3,3,3,['d'],Y,['d'],Y,None,N,,,,,,,female,20,
7,3,108,2,2,3,['d'],Y,['d'],Y,['space'],Y,,,,,,,female,20,
7,4,109,11,11,3,['k'],Y,['k'],N,None,Y,,,,,,,female,20,
7,5,110,2,2,3,['d'],Y,['d'],Y,None,N,,,,,,,female,20,
7,6,111,4,4,3,['k'],Y,['k'],Y,['space'],Y,,,,,,,female,20,
7,7,112,13,13,3,['k'],Y,['k'],Y,None,N,,,,,,,female,20,
7,8,113,12,12,3,['d'],Y,['d'],N,None,Y,,,,,,,female,20,
7,9,114,9,9,3,['d'],Y,['d'],N,None,Y,,,,,,,female,20,
7,10,115,1,1,3,['d'],Y,['d'],N,None,Y,,,,,,,female,20,
7,11,116,0,0,3,['k'],Y,['k'],Y,['space'],Y,,,,,,,female,20,
7,12,117,9,9,3,['d'],Y,['d'],N,None,Y,,,,,,,female,20,
7,13,118,2,2,3,['k'],Y,['k'],N,None,Y,,,,,,,female,20,
7,14,119,0,0,3,['d'],Y,['d'],Y,None,N,,,,,,,female,20,
8,0,120,12,12,3,['k'],Y,['k'],N,None,Y,,,,,,,female,20,
8,1,121,7,7,3,['k'],Y,['k'],Y,['space'],Y,,,,,,,female,20,
8,2,122,1,1,3,['k'],Y,['k'],Y,None,N,,,,,,,female,20,
8,3,123,13,13,3,['d'],Y,['d'],N,None,Y,,,,,,,female,20,
8,4,124,10,10,3,['k'],Y,['k'],Y,['space'],Y,,,,,,,female,20,
8,5,125,8,8,3,['d'],Y,['d'],N,None,Y,,,,,,,female,20,
8,6,126,4,4,3,['k'],Y,['k'],Y,None,N,,,,,,,female,20,
8,7,127,13,13,3,['d'],Y,['d'],Y,['space'],Y,,,,,,,female,20,
8,8,128,13,13,3,['d'],Y,['d'],Y,['space'],Y,,,,,,,female,20,
8,9,129,13,13,3,['k'],Y,['k'],Y,None,N,,,,,,,female,20,
8,10,130,4,4,3,['d'],Y,['d'],Y,None,N,,,,,,,female,20,
8,11,131,1,1,3,['k'],Y,['k'],N,None,Y,,,,,,,female,20,
8,12,132,10,10,3,['k'],Y,['k'],N,None,Y,,,,,,,female,20,
8,13,133,8,8,3,['k'],Y,['k'],N,None,Y,,,,,,,female,20,
8,14,134,13,13,3,['k'],Y,['k'],Y,None,N,,,,,,,female,20,
9,0,135,0,0,3,['d'],Y,['d'],Y,['space'],Y,,,,,,,female,20,
9,1,136,12,12,3,['d'],Y,['d'],N,None,Y,,,,,,,female,20,
9,2,137,0,0,3,['k'],Y,['k'],Y,None,N,,,,,,,female,20,
9,3,138,0,0,3,['d'],Y,['d'],Y,['space'],Y,,,,,,,female,20,
9,4,139,8,8,3,['k'],Y,['k'],Y,None,N,,,,,,,female,20,
9,5,140,0,0,3,['d'],Y,['d'],Y,['space'],Y,,,,,,,female,20,
9,6,141,8,8,3,['k'],Y,['k'],N,None,Y,,,,,,,female,20,
9,7,142,0,0,3,['k'],Y,['k'],N,None,Y,,,,,,,female,20,
9,8,143,10,10,3,['k'],Y,['k'],Y,None,N,,,,,,,female,20,
9,9,144,4,4,3,['d'],Y,['d'],N,None,Y,,,,,,,female,20,
9,10,145,7,7,3,['k'],Y,['k'],N,None,Y,,,,,,,female,20,
9,11,146,1,1,3,['k'],Y,['k'],N,None,Y,,,,,,,female,20,
9,12,147,13,13,3,['k'],Y,['k'],N,None,Y,,,,,,,female,20,
9,13,148,5,5,3,['k'],Y,['k'],N,None,Y,,,,,,,female,20,
9,14,149,7,7,3,['d'],Y,['d'],N,None,Y,49,34,25,,,,female,20,
10,0,150,5,5,4,['k'],Y,['k'],,,,,,,,,,female,20,
10,1,151,3,3,4,['k'],Y,['k'],,,,,,,,,,female,20,
10,2,152,11,11,4,['k'],Y,['k'],Y,None,N,,,,,,,female,20,
10,3,153,11,11,4,['d'],Y,['d'],N,None,Y,,,,,,,female,20,
10,4,154,2,2,4,['k'],Y,['k'],Y,None,N,,,,,,,female,20,
10,5,155,3,3,4,['d'],Y,['d'],N,None,Y,,,,,,,female,20,
10,6,156,9,9,4,['d'],Y,['d'],Y,None,N,,,,,,,female,20,
10,7,157,10,10,4,['k'],Y,['k'],N,None,Y,,,,,,,female,20,
10,8,158,6,6,4,['k'],Y,['k'],Y,None,N,,,,,,,female,20,
10,9,159,9,9,4,['d'],Y,['d'],Y,['space'],Y,,,,,,,female,20,
10,10,160,9,9,4,['k'],Y,['k'],N,None,Y,,,,,,,female,20,
10,11,161,1,1,4,['d'],Y,['d'],Y,None,N,,,,,,,female,20,
10,12,162,10,10,4,['k'],Y,['k'],N,['space'],N,,,,,,,female,20,
10,13,163,2,2,4,['d'],Y,['d'],Y,None,N,,,,,,,female,20,
10,14,164,6,6,4,['k'],Y,['k'],N,None,Y,,,,,,,female,20,
11,0,165,6,6,4,['k'],Y,['k'],N,None,Y,,,,,,,female,20,
11,1,166,14,14,4,['d'],Y,['d'],Y,['space'],Y,,,,,,,female,20,
11,2,167,0,0,4,['d'],Y,['d'],N,None,Y,,,,,,,female,20,
11,3,168,7,7,4,['k'],Y,['k'],Y,None,N,,,,,,,female,20,
11,4,169,6,6,4,['d'],Y,['d'],Y,['space'],Y,,,,,,,female,20,
11,5,170,7,7,4,['d'],Y,['d'],N,None,Y,,,,,,,female,20,
11,6,171,6,6,4,['d'],Y,['d'],Y,None,N,,,,,,,female,20,
11,7,172,1,1,4,['k'],Y,['k'],N,['space'],N,,,,,,,female,20,
11,8,173,8,8,4,['d'],Y,['d'],N,None,Y,,,,,,,female,20,
11,9,174,8,8,4,['k'],Y,['k'],N,None,Y,,,,,,,female,20,
11,10,175,0,0,4,['k'],Y,['k'],Y,None,N,,,,,,,female,20,
11,11,176,14,14,4,['d'],Y,['d'],N,None,Y,,,,,,,female,20,
11,12,177,14,14,4,['k'],Y,['k'],Y,['space'],Y,,,,,,,female,20,
11,13,178,2,2,4,['k'],Y,['k'],Y,None,N,,,,,,,female,20,
11,14,179,4,4,4,['k'],Y,['k'],N,None,Y,,,,,,,female,20,
12,0,180,5,5,4,['d'],N,['k'],Y,None,N,,,,,,,female,20,
12,1,181,12,12,4,['k'],Y,['k'],N,None,Y,,,,,,,female,20,
12,2,182,6,6,4,['k'],Y,['k'],N,None,Y,,,,,,,female,20,
12,3,183,3,3,4,['k'],Y,['k'],Y,None,N,,,,,,,female,20,
12,4,184,14,14,4,['k'],Y,['k'],N,None,Y,,,,,,,female,20,
12,5,185,13,13,4,['k'],Y,['k'],N,None,Y,,,,,,,female,20,
12,6,186,4,4,4,['d'],Y,['d'],N,None,Y,,,,,,,female,20,
12,7,187,12,12,4,['k'],Y,['k'],Y,None,N,,,,,,,female,20,
12,8,188,11,11,4,['k'],Y,['k'],Y,None,N,,,,,,,female,20,
12,9,189,1,1,4,['d'],N,['k'],Y,None,N,,,,,,,female,20,
12,10,190,10,10,4,['k'],Y,['k'],N,None,Y,,,,,,,female,20,
12,11,191,3,3,4,['k'],Y,['k'],Y,['space'],Y,,,,,,,female,20,
12,12,192,14,14,4,['k'],Y,['k'],N,None,Y,,,,,,,female,20,
12,13,193,1,1,4,['d'],Y,['d'],N,None,Y,,,,,,,female,20,
12,14,194,8,8,4,['k'],Y,['k'],N,None,Y,,,,,,,female,20,
13,0,195,8,8,4,['k'],Y,['k'],Y,['space'],Y,,,,,,,female,20,
13,1,196,13,13,4,['d'],Y,['d'],N,None,Y,,,,,,,female,20,
13,2,197,9,9,4,['k'],Y,['k'],N,['space'],N,,,,,,,female,20,
13,3,198,3,3,4,['d'],Y,['d'],Y,None,N,,,,,,,female,20,
13,4,199,9,9,4,['k'],Y,['k'],Y,['space'],Y,48,29,23,,,,female,20,
13,5,200,13,13,5,['k'],Y,['k'],,,,,,,,,,female,20,
13,6,201,7,7,5,['d'],Y,['d'],,,,,,,,,,female,20,
13,7,202,4,4,5,['d'],Y,['d'],Y,None,N,,,,,,,female,20,
13,8,203,7,7,5,['k'],Y,['k'],Y,['space'],Y,,,,,,,female,20,
13,9,204,13,13,5,['d'],Y,['d'],Y,['space'],Y,,,,,,,female,20,
13,10,205,4,4,5,['d'],Y,['d'],N,None,Y,,,,,,,female,20,
13,11,206,9,9,5,['d'],Y,['d'],N,None,Y,,,,,,,female,20,
13,12,207,14,14,5,['d'],Y,['d'],Y,['space'],Y,,,,,,,female,20,
13,13,208,10,10,5,['d'],Y,['d'],N,None,Y,,,,,,,female,20,
13,14,209,0,0,5,['d'],Y,['d'],N,None,Y,,,,,,,female,20,
14,0,210,3,3,5,['d'],Y,['d'],N,None,Y,,,,,,,female,20,
14,1,211,7,7,5,['d'],Y,['d'],N,None,Y,,,,,,,female,20,
14,2,212,5,5,5,['k'],N,['d'],Y,['space'],Y,,,,,,,female,20,
14,3,213,1,1,5,['d'],Y,['d'],Y,None,N,,,,,,,female,20,
14,4,214,2,2,5,['d'],Y,['d'],Y,None,N,,,,,,,female,20,
14,5,215,0,0,5,['d'],Y,['d'],N,None,Y,,,,,,,female,20,
14,6,216,6,6,5,['d'],Y,['d'],Y,['space'],Y,,,,,,,female,20,
14,7,217,10,10,5,['d'],Y,['d'],Y,None,N,,,,,,,female,20,
14,8,218,12,12,5,['d'],Y,['d'],N,None,Y,,,,,,,female,20,
14,9,219,7,7,5,['k'],Y,['k'],Y,['space'],Y,,,,,,,female,20,
14,10,220,6,6,5,['d'],Y,['d'],Y,None,N,,,,,,,female,20,
14,11,221,13,13,5,['k'],Y,['k'],Y,None,N,,,,,,,female,20,
14,12,222,10,10,5,['k'],Y,['k'],N,None,Y,,,,,,,female,20,
14,13,223,14,14,5,['k'],Y,['k'],N,None,Y,,,,,,,female,20,
14,14,224,5,5,5,['d'],Y,['d'],N,None,Y,,,,,,,female,20,
15,0,225,8,8,5,['d'],Y,['d'],Y,None,N,,,,,,,female,20,
15,1,226,11,11,5,['d'],Y,['d'],N,None,Y,,,,,,,female,20,
15,2,227,6,6,5,['d'],Y,['d'],Y,None,N,,,,,,,female,20,
15,3,228,11,11,5,['k'],Y,['k'],Y,['space'],Y,,,,,,,female,20,
15,4,229,3,3,5,['d'],Y,['d'],Y,['space'],Y,,,,,,,female,20,
15,5,230,8,8,5,['d'],Y,['d'],N,None,Y,,,,,,,female,20,
15,6,231,12,12,5,['d'],N,['k'],Y,None,N,,,,,,,female,20,
15,7,232,9,9,5,['d'],Y,['d'],Y,['space'],Y,,,,,,,female,20,
15,8,233,11,11,5,['k'],Y,['k'],Y,['space'],Y,,,,,,,female,20,
15,9,234,13,13,5,['k'],Y,['k'],Y,['space'],Y,,,,,,,female,20,
15,10,235,11,11,5,['d'],Y,['d'],N,None,Y,,,,,,,female,20,
15,11,236,11,11,5,['d'],Y,['d'],N,None,Y,,,,,,,female,20,
15,12,237,7,7,5,['d'],Y,['d'],Y,['space'],Y,,,,,,,female,20,
15,13,238,6,6,5,['k'],Y,['k'],Y,['space'],Y,,,,,,,female,20,
15,14,239,8,8,5,['k'],Y,['k'],N,None,Y,,,,,,,female,20,
16,0,240,7,7,5,['k'],Y,['k'],N,None,Y,,,,,,,female,20,
16,1,241,12,12,5,['d'],Y,['d'],Y,['space'],Y,,,,,,,female,20,
16,2,242,0,0,5,['k'],Y,['k'],Y,['space'],Y,,,,,,,female,20,
16,3,243,10,10,5,['d'],Y,['d'],N,None,Y,,,,,,,female,20,
16,4,244,4,4,5,['k'],Y,['k'],Y,['space'],Y,,,,,,,female,20,
16,5,245,3,3,5,['d'],Y,['d'],N,None,Y,,,,,,,female,20,
16,6,246,12,12,5,['d'],Y,['d'],N,None,Y,,,,,,,female,20,
16,7,247,3,3,5,['d'],Y,['d'],N,None,Y,,,,,,,female,20,
16,8,248,4,4,5,['k'],Y,['k'],N,['space'],N,,,,,,,female,20,
16,9,249,0,0,5,['d'],Y,['d'],N,None,Y,48,38,25,,,,female,20,
16,10,250,2,2,6,['d'],Y,['d'],,,,,,,,,,female,20,
16,11,251,13,13,6,['k'],Y,['k'],,,,,,,,,,female,20,
16,12,252,10,10,6,['k'],Y,['k'],Y,['space'],Y,,,,,,,female,20,
16,13,253,13,13,6,['d'],Y,['d'],N,None,Y,,,,,,,female,20,
16,14,254,10,10,6,['d'],Y,['d'],N,None,Y,,,,,,,female,20,
17,0,255,10,10,6,['d'],Y,['d'],Y,['space'],Y,,,,,,,female,20,
17,1,256,10,10,6,['d'],Y,['d'],N,None,Y,,,,,,,female,20,
17,2,257,11,11,6,['k'],Y,['k'],N,None,Y,,,,,,,female,20,
17,3,258,2,2,6,['k'],Y,['k'],Y,None,N,,,,,,,female,20,
17,4,259,14,14,6,['k'],Y,['k'],Y,['space'],Y,,,,,,,female,20,
17,5,260,12,12,6,['d'],Y,['d'],N,None,Y,,,,,,,female,20,
17,6,261,13,13,6,['d'],Y,['d'],Y,['space'],Y,,,,,,,female,20,
17,7,262,12,12,6,['d'],Y,['d'],N,['space'],N,,,,,,,female,20,
17,8,263,7,7,6,['k'],Y,['k'],N,['space'],N,,,,,,,female,20,
17,9,264,4,4,6,['k'],Y,['k'],Y,['space'],Y,,,,,,,female,20,
17,10,265,8,8,6,['k'],Y,['k'],N,None,Y,,,,,,,female,20,
17,11,266,10,10,6,['k'],Y,['k'],N,None,Y,,,,,,,female,20,
17,12,267,14,14,6,['d'],Y,['d'],Y,['space'],Y,,,,,,,female,20,
17,13,268,7,7,6,['k'],Y,['k'],Y,None,N,,,,,,,female,20,
17,14,269,6,6,6,['k'],Y,['k'],Y,['space'],Y,,,,,,,female,20,
18,0,270,12,12,6,['d'],Y,['d'],N,None,Y,,,,,,,female,20,
18,1,271,0,0,6,['d'],Y,['d'],N,None,Y,,,,,,,female,20,
18,2,272,0,0,6,['d'],Y,['d'],Y,None,N,,,,,,,female,20,
18,3,273,10,10,6,['d'],Y,['d'],N,None,Y,,,,,,,female,20,
18,4,274,5,5,6,['k'],Y,['k'],Y,None,N,,,,,,,female,20,
18,5,275,1,1,6,['d'],Y,['d'],N,None,Y,,,,,,,female,20,
18,6,276,12,12,6,['d'],Y,['d'],N,None,Y,,,,,,,female,20,
18,7,277,5,5,6,['k'],Y,['k'],N,None,Y,,,,,,,female,20,
18,8,278,0,0,6,['d'],Y,['d'],Y,None,N,,,,,,,female,20,
18,9,279,14,14,6,['k'],Y,['k'],N,None,Y,,,,,,,female,20,
18,10,280,4,4,6,['d'],Y,['d'],Y,None,N,,,,,,,female,20,
18,11,281,11,11,6,['d'],Y,['d'],N,None,Y,,,,,,,female,20,
18,12,282,5,5,6,['d'],Y,['d'],N,None,Y,,,,,,,female,20,
18,13,283,1,1,6,['d'],Y,['d'],Y,None,N,,,,,,,female,20,
18,14,284,8,8,6,['d'],Y,['d'],N,None,Y,,,,,,,female,20,
19,0,285,11,11,6,['d'],Y,['d'],N,None,Y,,,,,,,female,20,
19,1,286,1,1,6,['d'],N,['k'],Y,None,N,,,,,,,female,20,
19,2,287,6,6,6,['d'],Y,['d'],Y,None,N,,,,,,,female,20,
19,3,288,3,3,6,['k'],Y,['k'],Y,None,N,,,,,,,female,20,
19,4,289,3,3,6,['d'],Y,['d'],N,None,Y,,,,,,,female,20,
19,5,290,1,1,6,['k'],Y,['k'],N,None,Y,,,,,,,female,20,
19,6,291,9,9,6,['k'],Y,['k'],N,['space'],N,,,,,,,female,20,
19,7,292,9,9,6,['k'],Y,['k'],N,['k'],N,,,,,,,female,20,
19,8,293,1,1,6,['d'],Y,['d'],Y,['space'],Y,,,,,,,female,20,
19,9,294,1,1,6,['d'],Y,['d'],Y,['space'],Y,,,,,,,female,20,
19,10,295,14,14,6,['d'],N,['k'],N,None,Y,,,,,,,female,20,
19,11,296,13,13,6,['d'],Y,['d'],N,None,Y,,,,,,,female,20,
19,12,297,7,7,6,['k'],Y,['k'],Y,None,N,,,,,,,female,20,
19,13,298,13,13,6,['k'],Y,['k'],N,None,Y,,,,,,,female,20,
19,14,299,10,10,6,['k'],Y,['k'],N,None,Y,48,33,20,,,,female,20,
20,0,300,5,5,7,['k'],Y,['k'],,,,,,,,,,female,20,
20,1,301,6,6,7,['k'],Y,['k'],,,,,,,,,,female,20,
20,2,302,3,3,7,['k'],Y,['k'],N,None,Y,,,,,,,female,20,
20,3,303,3,3,7,['k'],Y,['k'],N,None,Y,,,,,,,female,20,
20,4,304,1,1,7,['k'],Y,['k'],Y,['space'],Y,,,,,,,female,20,
20,5,305,3,3,7,['k'],Y,['k'],N,None,Y,,,,,,,female,20,
20,6,306,11,11,7,['k'],Y,['k'],N,None,Y,,,,,,,female,20,
20,7,307,8,8,7,['k'],Y,['k'],N,['space'],N,,,,,,,female,20,
20,8,308,8,8,7,['d'],Y,['d'],N,None,Y,,,,,,,female,20,
20,9,309,0,0,7,['k'],Y,['k'],N,None,Y,,,,,,,female,20,
20,10,310,12,12,7,['d'],Y,['d'],Y,None,N,,,,,,,female,20,
20,11,311,9,9,7,['k'],Y,['k'],N,None,Y,,,,,,,female,20,
20,12,312,1,1,7,['d'],Y,['d'],Y,None,N,,,,,,,female,20,
20,13,313,3,3,7,['d'],Y,['d'],N,None,Y,,,,,,,female,20,
20,14,314,12,12,7,['d'],Y,['d'],N,None,Y,,,,,,,female,20,
21,0,315,1,1,7,['d'],Y,['d'],Y,['space'],Y,,,,,,,female,20,
21,1,316,5,5,7,['k'],Y,['k'],N,None,Y,,,,,,,female,20,
21,2,317,11,11,7,['d'],Y,['d'],N,None,Y,,,,,,,female,20,
21,3,318,10,10,7,['d'],Y,['d'],N,None,Y,,,,,,,female,20,
21,4,319,9,9,7,['d'],Y,['d'],N,None,Y,,,,,,,female,20,
21,5,320,9,9,7,['d'],Y,['d'],Y,None,N,,,,,,,female,20,
21,6,321,5,5,7,['k'],Y,['k'],N,None,Y,,,,,,,female,20,
21,7,322,11,11,7,['d'],Y,['d'],Y,None,N,,,,,,,female,20,
21,8,323,9,9,7,['k'],Y,['k'],Y,None,N,,,,,,,female,20,
21,9,324,4,4,7,['d'],Y,['d'],Y,None,N,,,,,,,female,20,
21,10,325,11,11,7,['k'],Y,['k'],N,None,Y,,,,,,,female,20,
21,11,326,11,11,7,['k'],Y,['k'],N,None,Y,,,,,,,female,20,
21,12,327,4,4,7,['d'],Y,['d'],N,None,Y,,,,,,,female,20,
21,13,328,13,13,7,['d'],Y,['d'],Y,None,N,,,,,,,female,20,
21,14,329,14,14,7,['d'],Y,['d'],N,None,Y,,,,,,,female,20,
22,0,330,3,3,7,['k'],Y,['k'],Y,None,N,,,,,,,female,20,
22,1,331,9,9,7,['d'],Y,['d'],N,None,Y,,,,,,,female,20,
22,2,332,1,1,7,['k'],Y,['k'],N,None,Y,,,,,,,female,20,
22,3,333,14,14,7,['k'],Y,['k'],Y,['space'],Y,,,,,,,female,20,
22,4,334,11,11,7,['d'],Y,['d'],Y,None,N,,,,,,,female,20,
22,5,335,10,10,7,['d'],Y,['d'],N,None,Y,,,,,,,female,20,
22,6,336,13,13,7,['k'],Y,['k'],N,None,Y,,,,,,,female,20,
22,7,337,12,12,7,['d'],Y,['d'],N,None,Y,,,,,,,female,20,
22,8,338,5,5,7,['d'],Y,['d'],N,None,Y,,,,,,,female,20,
22,9,339,8,8,7,['k'],Y,['k'],Y,None,N,,,,,,,female,20,
22,10,340,5,5,7,['d'],Y,['d'],Y,None,N,,,,,,,female,20,
22,11,341,12,12,7,['d'],Y,['d'],N,None,Y,,,,,,,female,20,
22,12,342,13,13,7,['d'],Y,['d'],N,None,Y,,,,,,,female,20,
22,13,343,8,8,7,['d'],Y,['d'],N,None,Y,,,,,,,female,20,
22,14,344,6,6,7,['d'],Y,['d'],N,None,Y,,,,,,,female,20,
23,0,345,7,7,7,['d'],Y,['d'],Y,['space'],Y,,,,,,,female,20,
23,1,346,0,0,7,['k'],Y,['k'],N,None,Y,,,,,,,female,20,
23,2,347,5,5,7,['k'],Y,['k'],N,None,Y,,,,,,,female,20,
23,3,348,9,9,7,['d'],Y,['d'],N,None,Y,,,,,,,female,20,
23,4,349,3,3,7,['k'],Y,['k'],Y,None,N,50,35,16,,,,female,20,
23,5,350,9,9,8,['k'],Y,['k'],,,,,,,,,,female,20,
23,6,351,12,12,8,['d'],Y,['d'],,,,,,,,,,female,20,
23,7,352,6,6,8,['d'],Y,['d'],Y,None,N,,,,,,,female,20,
23,8,353,0,0,8,['k'],Y,['k'],N,None,Y,,,,,,,female,20,
23,9,354,1,1,8,['d'],Y,['d'],N,None,Y,,,,,,,female,20,
23,10,355,14,14,8,['k'],Y,['k'],Y,None,N,,,,,,,female,20,
23,11,356,10,10,8,['d'],Y,['d'],Y,None,N,,,,,,,female,20,
23,12,357,0,0,8,['d'],Y,['d'],Y,None,N,,,,,,,female,20,
23,13,358,12,12,8,['k'],Y,['k'],Y,None,N,,,,,,,female,20,
23,14,359,10,10,8,['d'],Y,['d'],N,None,Y,,,,,,,female,20,
24,0,360,2,2,8,['k'],Y,['k'],N,None,Y,,,,,,,female,20,
24,1,361,9,9,8,['d'],Y,['d'],N,None,Y,,,,,,,female,20,
24,2,362,11,11,8,['k'],Y,['k'],N,None,Y,,,,,,,female,20,
24,3,363,2,2,8,['d'],Y,['d'],Y,['space'],Y,,,,,,,female,20,
24,4,364,6,6,8,['k'],Y,['k'],Y,None,N,,,,,,,female,20,
24,5,365,12,12,8,['k'],Y,['k'],N,None,Y,,,,,,,female,20,
24,6,366,6,6,8,['k'],Y,['k'],Y,['space'],Y,,,,,,,female,20,
24,7,367,5,5,8,['k'],Y,['k'],Y,None,N,,,,,,,female,20,
24,8,368,9,9,8,['k'],Y,['k'],N,None,Y,,,,,,,female,20,
24,9,369,9,9,8,['k'],Y,['k'],N,['space'],N,,,,,,,female,20,
24,10,370,1,1,8,['k'],Y,['k'],Y,None,N,,,,,,,female,20,
24,11,371,8,8,8,['d'],Y,['d'],Y,None,N,,,,,,,female,20,
24,12,372,4,4,8,['d'],Y,['d'],Y,['space'],Y,,,,,,,female,20,
24,13,373,14,14,8,['k'],Y,['k'],N,None,Y,,,,,,,female,20,
24,14,374,8,8,8,['d'],Y,['d'],N,None,Y,,,,,,,female,20,
25,0,375,14,14,8,['d'],Y,['d'],N,['space'],N,,,,,,,female,20,
25,1,376,12,12,8,['k'],Y,['k'],N,None,Y,,,,,,,female,20,
25,2,377,5,5,8,['k'],Y,['k'],Y,None,N,,,,,,,female,20,
25,3,378,10,10,8,['d'],Y,['d'],Y,None,N,,,,,,,female,20,
25,4,379,11,11,8,['d'],Y,['d'],Y,None,N,,,,,,,female,20,
25,5,380,2,2,8,['k'],Y,['k'],N,None,Y,,,,,,,female,20,
25,6,381,6,6,8,['k'],Y,['k'],Y,None,N,,,,,,,female,20,
25,7,382,0,0,8,['k'],Y,['k'],N,None,Y,,,,,,,female,20,
25,8,383,14,14,8,['d'],Y,['d'],Y,None,N,,,,,,,female,20,
25,9,384,8,8,8,['d'],Y,['d'],N,None,Y,,,,,,,female,20,
25,10,385,13,13,8,['d'],Y,['d'],Y,None,N,,,,,,,female,20,
25,11,386,13,13,8,['d'],Y,['d'],Y,None,N,,,,,,,female,20,
25,12,387,3,3,8,['k'],Y,['k'],N,None,Y,,,,,,,female,20,
25,13,388,8,8,8,['d'],Y,['d'],Y,None,N,,,,,,,female,20,
25,14,389,14,14,8,['k'],Y,['k'],Y,None,N,,,,,,,female,20,
26,0,390,9,9,8,['d'],Y,['d'],Y,None,N,,,,,,,female,20,
26,1,391,13,13,8,['k'],N,['d'],Y,None,N,,,,,,,female,20,
26,2,392,9,9,8,['d'],Y,['d'],Y,['space'],Y,,,,,,,female,20,
26,3,393,12,12,8,['k'],Y,['k'],N,None,Y,,,,,,,female,20,
26,4,394,2,2,8,['d'],Y,['d'],N,None,Y,,,,,,,female,20,
26,5,395,7,7,8,['k'],Y,['k'],Y,None,N,,,,,,,female,20,
26,6,396,4,4,8,['k'],Y,['k'],N,None,Y,,,,,,,female,20,
26,7,397,8,8,8,['k'],Y,['k'],N,None,Y,,,,,,,female,20,
26,8,398,14,14,8,['k'],Y,['k'],N,None,Y,,,,,,,female,20,
26,9,399,13,13,8,['d'],Y,['d'],N,None,Y,49,25,25,,,,female,20,
26,10,400,14,14,9,['d'],N,['k'],,,,,,,,,,female,20,
26,11,401,3,3,9,['d'],Y,['d'],,,,,,,,,,female,20,
26,12,402,13,13,9,['k'],Y,['k'],Y,None,N,,,,,,,female,20,
26,13,403,0,0,9,['k'],Y,['k'],N,None,Y,,,,,,,female,20,
26,14,404,0,0,9,['d'],N,['k'],N,None,Y,,,,,,,female,20,
27,0,405,2,2,9,['k'],Y,['k'],N,None,Y,,,,,,,female,20,
27,1,406,3,3,9,['d'],N,['k'],N,None,Y,,,,,,,female,20,
27,2,407,0,0,9,['k'],N,['d'],Y,None,N,,,,,,,female,20,
27,3,408,4,4,9,['d'],Y,['d'],N,None,Y,,,,,,,female,20,
27,4,409,8,8,9,['k'],Y,['k'],Y,None,N,,,,,,,female,20,
27,5,410,6,6,9,['k'],Y,['k'],N,None,Y,,,,,,,female,20,
27,6,411,12,12,9,['d'],Y,['d'],Y,['space'],Y,,,,,,,female,20,
27,7,412,11,11,9,['k'],Y,['k'],N,None,Y,,,,,,,female,20,
27,8,413,14,14,9,['k'],Y,['k'],N,None,Y,,,,,,,female,20,
27,9,414,3,3,9,['d'],Y,['d'],Y,None,N,,,,,,,female,20,
27,10,415,5,5,9,['d'],Y,['d'],N,None,Y,,,,,,,female,20,
27,11,416,12,12,9,['k'],Y,['k'],Y,None,N,,,,,,,female,20,
27,12,417,3,3,9,['d'],Y,['d'],N,None,Y,,,,,,,female,20,
27,13,418,0,0,9,['k'],Y,['k'],N,None,Y,,,,,,,female,20,
27,14,419,8,8,9,['k'],Y,['k'],Y,None,N,,,,,,,female,20,
28,0,420,12,12,9,['d'],Y,['d'],Y,None,N,,,,,,,female,20,
28,1,421,0,0,9,['k'],Y,['k'],Y,['space'],Y,,,,,,,female,20,
28,2,422,3,3,9,['k'],Y,['k'],Y,None,N,,,,,,,female,20,
28,3,423,2,2,9,['k'],Y,['k'],N,None,Y,,,,,,,female,20,
28,4,424,11,11,9,['d'],Y,['d'],Y,None,N,,,,,,,female,20,
28,5,425,4,4,9,['d'],Y,['d'],Y,None,N,,,,,,,female,20,
28,6,426,8,8,9,['d'],Y,['d'],N,None,Y,,,,,,,female,20,
28,7,427,1,1,9,['k'],Y,['k'],Y,None,N,,,,,,,female,20,
28,8,428,8,8,9,['k'],Y,['k'],Y,['space'],Y,,,,,,,female,20,
28,9,429,3,3,9,['k'],Y,['k'],N,None,Y,,,,,,,female,20,
28,10,430,2,2,9,['k'],N,['d'],N,None,Y,,,,,,,female,20,
28,11,431,14,14,9,['k'],Y,['k'],Y,['space'],Y,,,,,,,female,20,
28,12,432,4,4,9,['k'],Y,['k'],Y,None,N,,,,,,,female,20,
28,13,433,0,0,9,['k'],Y,['k'],N,None,Y,,,,,,,female,20,
28,14,434,6,6,9,['d'],Y,['d'],Y,None,N,,,,,,,female,20,
29,0,435,13,13,9,['d'],Y,['d'],N,None,Y,,,,,,,female,20,
29,1,436,6,6,9,['k'],Y,['k'],N,None,Y,,,,,,,female,20,
29,2,437,10,10,9,['k'],Y,['k'],N,None,Y,,,,,,,female,20,
29,3,438,3,3,9,['k'],Y,['k'],N,None,Y,,,,,,,female,20,
29,4,439,4,4,9,['k'],Y,['k'],Y,None,N,,,,,,,female,20,
29,5,440,14,14,9,['d'],Y,['d'],N,None,Y,,,,,,,female,20,
29,6,441,1,1,9,['k'],Y,['k'],N,None,Y,,,,,,,female,20,
29,7,442,11,11,9,['d'],Y,['d'],Y,None,N,,,,,,,female,20,
29,8,443,8,8,9,['k'],Y,['k'],N,None,Y,,,,,,,female,20,
29,9,444,9,9,9,['d'],Y,['d'],N,None,Y,,,,,,,female,20,
29,10,445,3,3,9,['k'],Y,['k'],Y,None,N,,,,,,,female,20,
29,11,446,10,10,9,['k'],Y,['k'],Y,None,N,,,,,,,female,20,
29,12,447,1,1,9,['d'],Y,['d'],N,None,Y,,,,,,,female,20,
29,13,448,13,13,9,['d'],Y,['d'],N,None,Y,,,,,,,female,20,
29,14,449,11,11,9,['k'],Y,['k'],Y,None,N,45,30,22,,,,female,20,
30,0,450,5,5,10,['k'],Y,['k'],,,,,,,,,,female,20,
30,1,451,13,13,10,['d'],Y,['d'],,,,,,,,,,female,20,
30,2,452,6,6,10,['k'],Y,['k'],Y,['space'],Y,,,,,,,female,20,
30,3,453,9,9,10,['d'],Y,['d'],Y,['space'],Y,,,,,,,female,20,
30,4,454,3,3,10,['d'],N,['k'],Y,['space'],Y,,,,,,,female,20,
30,5,455,1,1,10,['k'],Y,['k'],N,None,Y,,,,,,,female,20,
30,6,456,3,3,10,['d'],Y,['d'],N,None,Y,,,,,,,female,20,
30,7,457,5,5,10,['d'],Y,['d'],N,None,Y,,,,,,,female,20,
30,8,458,4,4,10,['d'],Y,['d'],Y,None,N,,,,,,,female,20,
30,9,459,7,7,10,['d'],Y,['d'],N,None,Y,,,,,,,female,20,
30,10,460,13,13,10,['d'],Y,['d'],N,None,Y,,,,,,,female,20,
30,11,461,12,12,10,['d'],N,['k'],N,None,Y,,,,,,,female,20,
30,12,462,3,3,10,['d'],Y,['d'],N,None,Y,,,,,,,female,20,
30,13,463,0,0,10,['k'],Y,['k'],Y,None,N,,,,,,,female,20,
30,14,464,5,5,10,['k'],Y,['k'],Y,None,N,,,,,,,female,20,
31,0,465,8,8,10,['d'],Y,['d'],N,None,Y,,,,,,,female,20,
31,1,466,7,7,10,['k'],Y,['k'],N,None,Y,,,,,,,female,20,
31,2,467,0,0,10,['d'],Y,['d'],Y,['space'],Y,,,,,,,female,20,
31,3,468,10,10,10,['k'],Y,['k'],N,None,Y,,,,,,,female,20,
31,4,469,2,2,10,['d'],Y,['d'],N,None,Y,,,,,,,female,20,
31,5,470,7,7,10,['d'],Y,['d'],Y,None,N,,,,,,,female,20,
31,6,471,11,11,10,['d'],Y,['d'],N,None,Y,,,,,,,female,20,
31,7,472,0,0,10,['k'],Y,['k'],N,None,Y,,,,,,,female,20,
31,8,473,12,12,10,['k'],Y,['k'],Y,None,N,,,,,,,female,20,
31,9,474,12,12,10,['k'],Y,['k'],Y,None,N,,,,,,,female,20,
31,10,475,7,7,10,['d'],Y,['d'],Y,['space'],Y,,,,,,,female,20,
31,11,476,14,14,10,['k'],Y,['k'],Y,['space'],Y,,,,,,,female,20,
31,12,477,7,7,10,['d'],Y,['d'],N,None,Y,,,,,,,female,20,
31,13,478,6,6,10,['k'],Y,['k'],Y,['space'],Y,,,,,,,female,20,
31,14,479,5,5,10,['d'],Y,['d'],N,None,Y,,,,,,,female,20,
32,0,480,0,0,10,['k'],Y,['k'],Y,['space'],Y,,,,,,,female,20,
32,1,481,11,11,10,['d'],Y,['d'],N,None,Y,,,,,,,female,20,
32,2,482,9,9,10,['k'],Y,['k'],Y,None,N,,,,,,,female,20,
32,3,483,1,1,10,['d'],Y,['d'],N,None,Y,,,,,,,female,20,
32,4,484,7,7,10,['k'],Y,['k'],N,None,Y,,,,,,,female,20,
32,5,485,11,11,10,['k'],Y,['k'],N,None,Y,,,,,,,female,20,
32,6,486,6,6,10,['d'],Y,['d'],N,None,Y,,,,,,,female,20,
32,7,487,4,4,10,['k'],Y,['k'],N,None,Y,,,,,,,female,20,
32,8,488,12,12,10,['k'],Y,['k'],Y,None,N,,,,,,,female,20,
32,9,489,7,7,10,['d'],Y,['d'],Y,None,N,,,,,,,female,20,
32,10,490,14,14,10,['k'],Y,['k'],Y,None,N,,,,,,,female,20,
32,11,491,12,12,10,['k'],Y,['k'],N,None,Y,,,,,,,female,20,
32,12,492,4,4,10,['d'],N,['k'],Y,None,N,,,,,,,female,20,
32,13,493,2,2,10,['d'],Y,['d'],N,None,Y,,,,,,,female,20,
32,14,494,1,1,10,['k'],Y,['k'],Y,None,N,,,,,,,female,20,
33,0,495,10,10,10,['d'],Y,['d'],Y,None,N,,,,,,,female,20,
33,1,496,1,1,10,['d'],Y,['d'],Y,None,N,,,,,,,female,20,
33,2,497,2,2,10,['k'],Y,['k'],N,None,Y,,,,,,,female,20,
33,3,498,13,13,10,['d'],Y,['d'],N,None,Y,,,,,,,female,20,
33,4,499,2,2,10,['k'],Y,['k'],N,None,Y,47,34,22,,,,female,20,
33,5,500,10,10,11,['d'],Y,['k'],,,,,,,Y,Y,Y,female,20,
33,6,501,7,7,11,['k'],Y,['d'],,,,,,,,Y,Y,female,20,
33,7,502,5,5,11,['k'],Y,['d'],Y,None,N,,,,,Y,Y,female,20,
33,8,503,1,1,11,None,Timed out,,Y,None,N,,,,,Y,Y,female,20,
33,9,504,5,5,11,['d'],Y,['k'],Y,['k'],N,,,,,Y,Y,female,20,
33,10,505,7,7,11,['d'],Y,['k'],Y,['space'],Y,,,,,Y,Y,female,20,
33,11,506,7,7,11,['k'],Y,['d'],Y,['space'],Y,,,,,Y,Y,female,20,
33,12,507,3,3,11,['k'],Y,['d'],N,None,Y,,,,,Y,Y,female,20,
33,13,508,14,14,11,['k'],Y,['d'],Y,None,N,,,,,Y,Y,female,20,
33,14,509,9,9,11,['k'],Y,['d'],N,None,Y,,,,,Y,Y,female,20,
34,0,510,5,5,11,['d'],Y,['k'],N,None,Y,,,,,Y,Y,female,20,
34,1,511,11,11,11,['k'],Y,['d'],N,None,Y,,,,,Y,Y,female,20,
34,2,512,4,4,11,['k'],Y,['d'],Y,None,N,,,,,Y,Y,female,20,
34,3,513,6,6,11,['k'],Y,['d'],N,None,Y,,,,,Y,Y,female,20,
34,4,514,14,14,11,['d'],Y,['k'],N,None,Y,,,,,Y,Y,female,20,
34,5,515,12,12,11,['d'],Y,['k'],N,None,Y,,,,,Y,Y,female,20,
34,6,516,14,14,11,['d'],Y,['k'],Y,None,N,,,,,Y,Y,female,20,
34,7,517,1,1,11,['k'],Y,['d'],N,None,Y,,,,,Y,Y,female,20,
34,8,518,5,5,11,['k'],Y,['d'],Y,None,N,,,,,Y,Y,female,20,
34,9,519,5,5,11,['d'],Y,['k'],Y,['space'],Y,,,,,Y,Y,female,20,
34,10,520,3,3,11,['d'],Y,['k'],N,None,Y,,,,,Y,Y,female,20,
34,11,521,4,4,11,['d'],Y,['k'],N,None,Y,,,,,Y,Y,female,20,
34,12,522,4,4,11,['d'],Y,['k'],Y,None,N,,,,,Y,Y,female,20,
34,13,523,13,13,11,['d'],Y,['k'],Y,None,N,,,,,Y,Y,female,20,
34,14,524,1,1,11,['d'],Y,['k'],Y,None,N,,,,,Y,Y,female,20,
35,0,525,14,14,11,['d'],Y,['k'],N,None,Y,,,,,Y,Y,female,20,
35,1,526,8,8,11,None,Timed out,,Y,None,N,,,,,Y,Y,female,20,
35,2,527,4,4,11,['k'],Y,['d'],N,None,Y,,,,,Y,Y,female,20,
35,3,528,7,7,11,['k'],Y,['d'],Y,None,N,,,,,Y,Y,female,20,
35,4,529,11,11,11,['k'],Y,['d'],N,None,Y,,,,,Y,Y,female,20,
35,5,530,8,8,11,['d'],Y,['k'],N,None,Y,,,,,Y,Y,female,20,
35,6,531,3,3,11,['d'],Y,['k'],N,None,Y,,,,,Y,Y,female,20,
35,7,532,1,1,11,['d'],Y,['k'],N,None,Y,,,,,Y,Y,female,20,
35,8,533,13,13,11,['d'],Y,['k'],N,None,Y,,,,,Y,Y,female,20,
35,9,534,9,9,11,['k'],Y,['d'],Y,None,N,,,,,Y,Y,female,20,
35,10,535,12,12,11,['k'],Y,['d'],N,None,Y,,,,,Y,Y,female,20,
35,11,536,2,2,11,['d'],Y,['k'],Y,None,N,,,,,Y,Y,female,20,
35,12,537,3,3,11,['d'],Y,['k'],Y,None,N,,,,,Y,Y,female,20,
35,13,538,10,10,11,['k'],Y,['d'],N,None,Y,,,,,Y,Y,female,20,
35,14,539,0,0,11,['k'],Y,['d'],N,None,Y,,,,,Y,Y,female,20,
36,0,540,6,6,11,['k'],Y,['d'],N,None,Y,,,,,Y,Y,female,20,
36,1,541,9,9,11,['d'],Y,['k'],Y,None,N,,,,,Y,Y,female,20,
36,2,542,6,6,11,['k'],N,['k'],Y,None,N,,,,,Y,Y,female,20,
36,3,543,9,9,11,['k'],Y,['d'],N,None,Y,,,,,Y,Y,female,20,
36,4,544,5,5,11,['d'],Y,['k'],Y,None,N,,,,,Y,Y,female,20,
36,5,545,7,7,11,['k'],Y,['d'],N,None,Y,,,,,Y,Y,female,20,
36,6,546,13,13,11,['k'],Y,['d'],N,None,Y,,,,,Y,Y,female,20,
36,7,547,2,2,11,['d'],Y,['k'],N,None,Y,,,,,Y,Y,female,20,
36,8,548,8,8,11,['k'],Y,['d'],N,None,Y,,,,,Y,Y,female,20,
36,9,549,3,3,11,['k'],Y,['d'],Y,None,N,47,29,22,,Y,Y,female,20,
36,10,550,7,7,12,['k'],Y,['d'],,,,,,,,Y,Y,female,20,
36,11,551,5,5,12,['k'],Y,['d'],,,,,,,,Y,Y,female,20,
36,12,552,10,10,12,['k'],Y,['d'],Y,['space'],Y,,,,,Y,Y,female,20,
36,13,553,6,6,12,['k'],Y,['d'],N,None,Y,,,,,Y,Y,female,20,
36,14,554,7,7,12,['k'],Y,['d'],Y,None,N,,,,,Y,Y,female,20,
37,0,555,13,13,12,['k'],Y,['d'],Y,['space'],Y,,,,,Y,Y,female,20,
37,1,556,6,6,12,['d'],Y,['k'],N,['space'],N,,,,,Y,Y,female,20,
37,2,557,8,8,12,['d'],Y,['k'],N,None,Y,,,,,Y,Y,female,20,
37,3,558,7,7,12,['d'],Y,['k'],Y,['space'],Y,,,,,Y,Y,female,20,
37,4,559,11,11,12,['k'],Y,['d'],Y,['space'],Y,,,,,Y,Y,female,20,
37,5,560,14,14,12,['d'],Y,['k'],N,None,Y,,,,,Y,Y,female,20,
37,6,561,11,11,12,['d'],Y,['k'],Y,None,N,,,,,Y,Y,female,20,
37,7,562,3,3,12,['k'],Y,['d'],N,None,Y,,,,,Y,Y,female,20,
37,8,563,9,9,12,['d'],Y,['k'],N,None,Y,,,,,Y,Y,female,20,
37,9,564,14,14,12,['d'],N,['d'],Y,None,N,,,,,Y,Y,female,20,
37,10,565,0,0,12,['k'],Y,['d'],Y,['space'],Y,,,,,Y,Y,female,20,
37,11,566,2,2,12,['d'],Y,['k'],N,None,Y,,,,,Y,Y,female,20,
37,12,567,4,4,12,['k'],Y,['d'],N,None,Y,,,,,Y,Y,female,20,
37,13,568,4,4,12,['k'],Y,['d'],Y,['space'],Y,,,,,Y,Y,female,20,
37,14,569,12,12,12,['d'],Y,['k'],Y,None,N,,,,,Y,Y,female,20,
38,0,570,2,2,12,['k'],Y,['d'],N,['space'],N,,,,,Y,Y,female,20,
38,1,571,4,4,12,['d'],Y,['k'],N,['space'],N,,,,,Y,Y,female,20,
38,2,572,10,10,12,['k'],Y,['d'],Y,None,N,,,,,Y,Y,female,20,
38,3,573,9,9,12,['k'],Y,['d'],N,None,Y,,,,,Y,Y,female,20,
38,4,574,14,14,12,['d'],Y,['k'],Y,['space'],Y,,,,,Y,Y,female,20,
38,5,575,2,2,12,['k'],Y,['d'],N,None,Y,,,,,Y,Y,female,20,
38,6,576,13,13,12,['k'],N,['k'],Y,None,N,,,,,Y,Y,female,20,
38,7,577,2,2,12,['k'],Y,['d'],N,None,Y,,,,,Y,Y,female,20,
38,8,578,1,1,12,['d'],Y,['k'],Y,None,N,,,,,Y,Y,female,20,
38,9,579,4,4,12,['d'],Y,['k'],Y,None,N,,,,,Y,Y,female,20,
38,10,580,6,6,12,None,Timed out,,Y,['space'],Y,,,,,Y,Y,female,20,
38,11,581,7,7,12,['k'],Y,['d'],Y,None,N,,,,,Y,Y,female,20,
38,12,582,11,11,12,['k'],Y,['d'],N,None,Y,,,,,Y,Y,female,20,
38,13,583,14,14,12,['d'],Y,['k'],N,None,Y,,,,,Y,Y,female,20,
38,14,584,7,7,12,['k'],N,['k'],N,None,Y,,,,,Y,Y,female,20,
39,0,585,2,2,12,['k'],Y,['d'],N,None,Y,,,,,Y,Y,female,20,
39,1,586,2,2,12,['d'],Y,['k'],N,None,Y,,,,,Y,Y,female,20,
39,2,587,14,14,12,['k'],Y,['d'],Y,['space'],Y,,,,,Y,Y,female,20,
39,3,588,5,5,12,['d'],Y,['k'],Y,['space'],Y,,,,,Y,Y,female,20,
39,4,589,10,10,12,['k'],N,['k'],N,None,Y,,,,,Y,Y,female,20,
39,5,590,11,11,12,['d'],Y,['k'],Y,None,N,,,,,Y,Y,female,20,
39,6,591,10,10,12,['k'],Y,['d'],Y,None,N,,,,,Y,Y,female,20,
39,7,592,0,0,12,None,Timed out,,Y,['space'],Y,,,,,Y,Y,female,20,
39,8,593,5,5,12,['d'],Y,['k'],Y,None,N,,,,,Y,Y,female,20,
39,9,594,0,0,12,['k'],N,['k'],N,None,Y,,,,,Y,Y,female,20,
39,10,595,3,3,12,['k'],Y,['d'],Y,['space'],Y,,,,,Y,Y,female,20,
39,11,596,8,8,12,['k'],Y,['d'],Y,None,N,,,,,Y,Y,female,20,
39,12,597,6,6,12,['d'],N,['d'],N,None,Y,,,,,Y,Y,female,20,
39,13,598,6,6,12,['k'],Y,['d'],N,None,Y,,,,,Y,Y,female,20,
39,14,599,0,0,12,['d'],Y,['k'],N,['space'],N,42,31,25,,Y,Y,female,20,
