.thisRepN,.thisTrialN,.thisN,.thisIndex,.thisTrial,Block Number,Key pressed,Correct?,Category,Int Match?,Int Response,Int Correct?,Line Accuracy,Interference Accuracy,Matching Interferences,New instruction shown?,Buttons switched?,Fast?,gender,age,
0,0,0,3,3,1,None,Timed out,,,,,,,,,,,female,20,
0,1,1,4,4,1,['d'],N,['k'],,,,,,,,,,female,20,
0,2,2,9,9,1,['d'],N,['k'],Y,None,N,,,,,,,female,20,
0,3,3,14,14,1,['k'],Y,['k'],N,None,Y,,,,,,,female,20,
0,4,4,7,7,1,['k'],N,['d'],Y,None,N,,,,,,,female,20,
0,5,5,9,9,1,['k'],N,['d'],N,None,Y,,,,,,,female,20,
0,6,6,5,5,1,['d'],N,['k'],N,None,Y,,,,,,,female,20,
0,7,7,0,0,1,['k'],N,['d'],Y,None,N,,,,,,,female,20,
0,8,8,3,3,1,['k'],Y,['k'],Y,None,N,,,,,,,female,20,
0,9,9,1,1,1,['d'],N,['k'],N,None,Y,,,,,,,female,20,
0,10,10,14,14,1,['k'],Y,['k'],Y,None,N,,,,,,,female,20,
0,11,11,11,11,1,['k'],Y,['k'],Y,None,N,,,,,,,female,20,
0,12,12,0,0,1,['k'],Y,['k'],Y,None,N,,,,,,,female,20,
0,13,13,7,7,1,['d'],N,['k'],N,None,Y,,,,,,,female,20,
0,14,14,0,0,1,['k'],N,['d'],Y,None,N,,,,,,,female,20,
1,0,15,5,5,1,['k'],Y,['k'],N,None,Y,,,,,,,female,20,
1,1,16,5,5,1,['d'],Y,['d'],N,None,Y,,,,,,,female,20,
1,2,17,8,8,1,['k'],Y,['k'],N,None,Y,,,,,,,female,20,
1,3,18,0,0,1,['k'],N,['d'],Y,None,N,,,,,,,female,20,
1,4,19,1,1,1,['k'],Y,['k'],Y,None,N,,,,,,,female,20,
1,5,20,6,6,1,['d'],N,['k'],N,None,Y,,,,,,,female,20,
1,6,21,4,4,1,['d'],Y,['d'],N,None,Y,,,,,,,female,20,
1,7,22,1,1,1,['k'],Y,['k'],N,None,Y,,,,,,,female,20,
1,8,23,3,3,1,['k'],N,['d'],Y,None,N,,,,,,,female,20,
1,9,24,4,4,1,['k'],Y,['k'],N,None,Y,,,,,,,female,20,
1,10,25,14,14,1,['k'],Y,['k'],Y,None,N,,,,,,,female,20,
1,11,26,3,3,1,['d'],Y,['d'],N,None,Y,,,,,,,female,20,
1,12,27,12,12,1,['k'],Y,['k'],N,None,Y,,,,,,,female,20,
1,13,28,7,7,1,['d'],Y,['d'],N,None,Y,,,,,,,female,20,
1,14,29,4,4,1,['k'],N,['d'],N,None,Y,,,,,,,female,20,
2,0,30,4,4,1,['d'],N,['k'],N,None,Y,,,,,,,female,20,
2,1,31,0,0,1,['k'],N,['d'],N,None,Y,,,,,,,female,20,
2,2,32,9,9,1,['k'],Y,['k'],Y,None,N,,,,,,,female,20,
2,3,33,1,1,1,['k'],N,['d'],Y,None,N,,,,,,,female,20,
2,4,34,10,10,1,['d'],N,['k'],N,None,Y,,,,,,,female,20,
2,5,35,6,6,1,['k'],N,['d'],Y,None,N,,,,,,,female,20,
2,6,36,0,0,1,['k'],Y,['k'],N,None,Y,,,,,,,female,20,
2,7,37,7,7,1,['d'],N,['k'],Y,None,N,,,,,,,female,20,
2,8,38,12,12,1,['k'],N,['d'],Y,None,N,,,,,,,female,20,
2,9,39,10,10,1,['d'],Y,['d'],N,None,Y,,,,,,,female,20,
2,10,40,13,13,1,['k'],N,['d'],Y,None,N,,,,,,,female,20,
2,11,41,2,2,1,['k'],Y,['k'],N,None,Y,,,,,,,female,20,
2,12,42,5,5,1,['k'],Y,['k'],N,None,Y,,,,,,,female,20,
2,13,43,12,12,1,['k'],N,['d'],N,None,Y,,,,,,,female,20,
2,14,44,14,14,1,['d'],Y,['d'],N,None,Y,,,,,,,female,20,
3,0,45,6,6,1,['k'],Y,['k'],N,None,Y,,,,,,,female,20,
3,1,46,2,2,1,['d'],N,['k'],Y,None,N,,,,,,,female,20,
3,2,47,4,4,1,['k'],Y,['k'],N,None,Y,,,,,,,female,20,
3,3,48,14,14,1,['k'],N,['d'],Y,None,N,,,,,,,female,20,
3,4,49,2,2,1,['k'],N,['d'],Y,None,N,24,27,21,,,,female,20,
3,5,50,5,5,2,['k'],N,['d'],,,,,,,,,,female,20,
3,6,51,12,12,2,['k'],Y,['k'],,,,,,,,,,female,20,
3,7,52,6,6,2,['d'],Y,['d'],Y,None,N,,,,,,,female,20,
3,8,53,8,8,2,['d'],Y,['d'],N,None,Y,,,,,,,female,20,
3,9,54,14,14,2,['k'],Y,['k'],Y,None,N,,,,,,,female,20,
3,10,55,3,3,2,['d'],Y,['d'],N,None,Y,,,,,,,female,20,
3,11,56,0,0,2,['k'],N,['d'],Y,None,N,,,,,,,female,20,
3,12,57,0,0,2,['d'],Y,['d'],Y,None,N,,,,,,,female,20,
3,13,58,2,2,2,['k'],Y,['k'],Y,None,N,,,,,,,female,20,
3,14,59,14,14,2,['d'],N,['k'],Y,None,N,,,,,,,female,20,
4,0,60,4,4,2,['k'],Y,['k'],Y,None,N,,,,,,,female,20,
4,1,61,13,13,2,['d'],N,['k'],N,None,Y,,,,,,,female,20,
4,2,62,6,6,2,['k'],Y,['k'],N,None,Y,,,,,,,female,20,
4,3,63,6,6,2,['d'],Y,['d'],N,None,Y,,,,,,,female,20,
4,4,64,0,0,2,['k'],Y,['k'],N,None,Y,,,,,,,female,20,
4,5,65,11,11,2,['k'],N,['d'],N,None,Y,,,,,,,female,20,
4,6,66,0,0,2,['d'],N,['k'],Y,['space'],Y,,,,,,,female,20,
4,7,67,11,11,2,['k'],N,['d'],Y,['space'],Y,,,,,,,female,20,
4,8,68,3,3,2,['d'],Y,['d'],N,None,Y,,,,,,,female,20,
4,9,69,14,14,2,['k'],N,['d'],N,None,Y,,,,,,,female,20,
4,10,70,14,14,2,['k'],Y,['k'],Y,['space'],Y,,,,,,,female,20,
4,11,71,11,11,2,['d'],Y,['d'],N,None,Y,,,,,,,female,20,
4,12,72,8,8,2,['k'],N,['d'],N,None,Y,,,,,,,female,20,
4,13,73,12,12,2,['d'],N,['k'],Y,None,N,,,,,,,female,20,
4,14,74,5,5,2,['d'],N,['k'],Y,['space'],Y,,,,,,,female,20,
5,0,75,5,5,2,['k'],N,['d'],Y,['space'],Y,,,,,,,female,20,
5,1,76,9,9,2,['d'],N,['k'],N,['space'],N,,,,,,,female,20,
5,2,77,8,8,2,['k'],N,['d'],N,None,Y,,,,,,,female,20,
5,3,78,14,14,2,['k'],Y,['k'],N,None,Y,,,,,,,female,20,
5,4,79,0,0,2,['k'],N,['d'],Y,['space'],Y,,,,,,,female,20,
5,5,80,10,10,2,['d'],N,['k'],N,None,Y,,,,,,,female,20,
5,6,81,13,13,2,['k'],N,['d'],N,None,Y,,,,,,,female,20,
5,7,82,12,12,2,['d'],Y,['d'],N,None,Y,,,,,,,female,20,
5,8,83,0,0,2,['k'],Y,['k'],Y,None,N,,,,,,,female,20,
5,9,84,1,1,2,['k'],Y,['k'],N,None,Y,,,,,,,female,20,
5,10,85,12,12,2,['d'],Y,['d'],N,['space'],N,,,,,,,female,20,
5,11,86,10,10,2,['d'],N,['k'],Y,['space'],Y,,,,,,,female,20,
5,12,87,2,2,2,['k'],Y,['k'],Y,None,N,,,,,,,female,20,
5,13,88,5,5,2,['k'],Y,['k'],Y,['space'],Y,,,,,,,female,20,
5,14,89,2,2,2,['d'],Y,['d'],N,None,Y,,,,,,,female,20,
6,0,90,14,14,2,['k'],N,['d'],Y,['space'],Y,,,,,,,female,20,
6,1,91,3,3,2,['d'],N,['k'],Y,['space'],Y,,,,,,,female,20,
6,2,92,3,3,2,['k'],Y,['k'],N,None,Y,,,,,,,female,20,
6,3,93,1,1,2,['k'],N,['d'],N,['space'],N,,,,,,,female,20,
6,4,94,1,1,2,['d'],N,['k'],Y,None,N,,,,,,,female,20,
6,5,95,14,14,2,['k'],N,['d'],Y,None,N,,,,,,,female,20,
6,6,96,6,6,2,['k'],N,['d'],Y,['space'],Y,,,,,,,female,20,
6,7,97,12,12,2,['d'],N,['k'],N,None,Y,,,,,,,female,20,
6,8,98,11,11,2,['k'],Y,['k'],N,None,Y,,,,,,,female,20,
6,9,99,9,9,2,['k'],Y,['k'],N,None,Y,25,33,23,,,,female,20,
6,10,100,2,2,3,['d'],Y,['d'],,,,,,,,,,female,20,
6,11,101,1,1,3,['d'],N,['k'],,,,,,,,,,female,20,
6,12,102,14,14,3,['k'],Y,['k'],Y,['space'],Y,,,,,,,female,20,
6,13,103,13,13,3,['k'],N,['d'],N,None,Y,,,,,,,female,20,
6,14,104,8,8,3,['k'],Y,['k'],N,None,Y,,,,,,,female,20,
7,0,105,4,4,3,['d'],N,['k'],N,None,Y,,,,,,,female,20,
7,1,106,13,13,3,['k'],Y,['k'],Y,['space'],Y,,,,,,,female,20,
7,2,107,0,0,3,['d'],N,['k'],N,None,Y,,,,,,,female,20,
7,3,108,12,12,3,['k'],Y,['k'],Y,None,N,,,,,,,female,20,
7,4,109,8,8,3,['d'],Y,['d'],N,None,Y,,,,,,,female,20,
7,5,110,13,13,3,['k'],N,['d'],N,None,Y,,,,,,,female,20,
7,6,111,1,1,3,['k'],Y,['k'],Y,['space'],Y,,,,,,,female,20,
7,7,112,0,0,3,['d'],N,['k'],Y,None,N,,,,,,,female,20,
7,8,113,10,10,3,['k'],Y,['k'],N,None,Y,,,,,,,female,20,
7,9,114,10,10,3,['k'],Y,['k'],Y,['space'],Y,,,,,,,female,20,
7,10,115,7,7,3,['d'],Y,['d'],N,None,Y,,,,,,,female,20,
7,11,116,11,11,3,['k'],N,['d'],N,None,Y,,,,,,,female,20,
7,12,117,13,13,3,['k'],Y,['k'],Y,['space'],Y,,,,,,,female,20,
7,13,118,13,13,3,['k'],N,['d'],Y,['space'],Y,,,,,,,female,20,
7,14,119,14,14,3,['k'],Y,['k'],N,['space'],N,,,,,,,female,20,
8,0,120,0,0,3,['d'],N,['k'],Y,None,N,,,,,,,female,20,
8,1,121,6,6,3,['k'],Y,['k'],Y,None,N,,,,,,,female,20,
8,2,122,13,13,3,['d'],N,['k'],Y,None,N,,,,,,,female,20,
8,3,123,1,1,3,['k'],N,['d'],N,None,Y,,,,,,,female,20,
8,4,124,8,8,3,['k'],Y,['k'],Y,None,N,,,,,,,female,20,
8,5,125,6,6,3,['d'],N,['k'],N,['space'],N,,,,,,,female,20,
8,6,126,1,1,3,['k'],N,['d'],N,None,Y,,,,,,,female,20,
8,7,127,10,10,3,['d'],Y,['d'],N,None,Y,,,,,,,female,20,
8,8,128,8,8,3,['k'],Y,['k'],Y,None,N,,,,,,,female,20,
8,9,129,1,1,3,['k'],Y,['k'],Y,['space'],Y,,,,,,,female,20,
8,10,130,12,12,3,['k'],N,['d'],Y,['space'],Y,,,,,,,female,20,
8,11,131,1,1,3,['k'],N,['d'],Y,None,N,,,,,,,female,20,
8,12,132,5,5,3,['d'],Y,['d'],Y,None,N,,,,,,,female,20,
8,13,133,5,5,3,['k'],Y,['k'],N,None,Y,,,,,,,female,20,
8,14,134,9,9,3,['k'],Y,['k'],Y,['space'],Y,,,,,,,female,20,
9,0,135,1,1,3,['d'],Y,['d'],N,None,Y,,,,,,,female,20,
9,1,136,10,10,3,['k'],Y,['k'],N,None,Y,,,,,,,female,20,
9,2,137,8,8,3,['d'],Y,['d'],Y,['space'],Y,,,,,,,female,20,
9,3,138,5,5,3,['k'],Y,['k'],N,None,Y,,,,,,,female,20,
9,4,139,9,9,3,['d'],Y,['d'],Y,['space'],Y,,,,,,,female,20,
9,5,140,11,11,3,['d'],Y,['d'],Y,None,N,,,,,,,female,20,
9,6,141,0,0,3,['d'],Y,['d'],N,None,Y,,,,,,,female,20,
9,7,142,0,0,3,['d'],N,['k'],Y,['space'],Y,,,,,,,female,20,
9,8,143,9,9,3,['k'],N,['d'],N,None,Y,,,,,,,female,20,
9,9,144,3,3,3,['d'],Y,['d'],Y,['space'],Y,,,,,,,female,20,
9,10,145,0,0,3,['k'],N,['d'],N,None,Y,,,,,,,female,20,
9,11,146,6,6,3,['d'],N,['k'],N,['space'],N,,,,,,,female,20,
9,12,147,11,11,3,['k'],N,['d'],N,None,Y,,,,,,,female,20,
9,13,148,10,10,3,['d'],Y,['d'],N,None,Y,,,,,,,female,20,
9,14,149,6,6,3,['d'],N,['k'],Y,['space'],Y,29,35,24,,,,female,20,
10,0,150,4,4,4,['k'],N,['d'],,,,,,,,,,female,20,
10,1,151,12,12,4,['d'],N,['k'],,,,,,,,,,female,20,
10,2,152,14,14,4,['k'],Y,['k'],N,None,Y,,,,,,,female,20,
10,3,153,7,7,4,['k'],N,['d'],N,None,Y,,,,,,,female,20,
10,4,154,3,3,4,['d'],Y,['d'],N,None,Y,,,,,,,female,20,
10,5,155,14,14,4,['k'],N,['d'],N,None,Y,,,,,,,female,20,
10,6,156,5,5,4,['k'],N,['d'],Y,['space'],Y,,,,,,,female,20,
10,7,157,7,7,4,['d'],Y,['d'],Y,None,N,,,,,,,female,20,
10,8,158,4,4,4,['k'],N,['d'],N,None,Y,,,,,,,female,20,
10,9,159,13,13,4,['k'],Y,['k'],N,None,Y,,,,,,,female,20,
10,10,160,5,5,4,['d'],Y,['d'],Y,['space'],Y,,,,,,,female,20,
10,11,161,6,6,4,['k'],N,['d'],Y,['space'],Y,,,,,,,female,20,
10,12,162,14,14,4,['k'],N,['d'],N,None,Y,,,,,,,female,20,
10,13,163,6,6,4,['d'],Y,['d'],Y,None,N,,,,,,,female,20,
10,14,164,9,9,4,['k'],N,['d'],Y,['space'],Y,,,,,,,female,20,
11,0,165,7,7,4,['k'],N,['d'],Y,['space'],Y,,,,,,,female,20,
11,1,166,0,0,4,['d'],N,['k'],N,None,Y,,,,,,,female,20,
11,2,167,7,7,4,['d'],Y,['d'],N,None,Y,,,,,,,female,20,
11,3,168,3,3,4,['d'],Y,['d'],N,None,Y,,,,,,,female,20,
11,4,169,1,1,4,['k'],Y,['k'],N,None,Y,,,,,,,female,20,
11,5,170,5,5,4,['k'],N,['d'],Y,None,N,,,,,,,female,20,
11,6,171,3,3,4,['k'],Y,['k'],Y,None,N,,,,,,,female,20,
11,7,172,9,9,4,['k'],Y,['k'],N,['space'],N,,,,,,,female,20,
11,8,173,4,4,4,['d'],N,['k'],Y,['space'],Y,,,,,,,female,20,
11,9,174,6,6,4,['k'],Y,['k'],N,None,Y,,,,,,,female,20,
11,10,175,2,2,4,['k'],Y,['k'],Y,None,N,,,,,,,female,20,
11,11,176,7,7,4,['k'],N,['d'],Y,['space'],Y,,,,,,,female,20,
11,12,177,5,5,4,['d'],N,['k'],Y,['space'],Y,,,,,,,female,20,
11,13,178,7,7,4,['k'],N,['d'],N,None,Y,,,,,,,female,20,
11,14,179,14,14,4,['d'],N,['k'],Y,None,N,,,,,,,female,20,
12,0,180,11,11,4,['k'],N,['d'],Y,None,N,,,,,,,female,20,
12,1,181,7,7,4,['d'],Y,['d'],Y,None,N,,,,,,,female,20,
12,2,182,10,10,4,['k'],N,['d'],Y,['space'],Y,,,,,,,female,20,
12,3,183,12,12,4,['k'],N,['d'],Y,None,N,,,,,,,female,20,
12,4,184,0,0,4,['d'],Y,['d'],N,None,Y,,,,,,,female,20,
12,5,185,10,10,4,['d'],N,['k'],N,None,Y,,,,,,,female,20,
12,6,186,4,4,4,['k'],N,['d'],N,None,Y,,,,,,,female,20,
12,7,187,0,0,4,['k'],Y,['k'],Y,['space'],Y,,,,,,,female,20,
12,8,188,2,2,4,['k'],Y,['k'],N,None,Y,,,,,,,female,20,
12,9,189,3,3,4,['d'],Y,['d'],Y,['space'],Y,,,,,,,female,20,
12,10,190,11,11,4,['k'],Y,['k'],N,None,Y,,,,,,,female,20,
12,11,191,5,5,4,['k'],Y,['k'],Y,['space'],Y,,,,,,,female,20,
12,12,192,1,1,4,['k'],N,['d'],Y,None,N,,,,,,,female,20,
12,13,193,12,12,4,['d'],Y,['d'],N,None,Y,,,,,,,female,20,
12,14,194,8,8,4,['d'],Y,['d'],N,None,Y,,,,,,,female,20,
13,0,195,1,1,4,['k'],Y,['k'],Y,None,N,,,,,,,female,20,
13,1,196,2,2,4,['d'],N,['k'],Y,None,N,,,,,,,female,20,
13,2,197,12,12,4,['k'],N,['d'],Y,['space'],Y,,,,,,,female,20,
13,3,198,13,13,4,['k'],Y,['k'],N,None,Y,,,,,,,female,20,
13,4,199,2,2,4,['d'],Y,['d'],N,None,Y,25,35,25,,,,female,20,
13,5,200,8,8,5,['k'],N,['d'],,,,,,,,,,female,20,
13,6,201,3,3,5,['d'],Y,['d'],,,,,,,,,,female,20,
13,7,202,8,8,5,['d'],Y,['d'],N,None,Y,,,,,,,female,20,
13,8,203,6,6,5,['d'],Y,['d'],Y,None,N,,,,,,,female,20,
13,9,204,12,12,5,['d'],Y,['d'],Y,None,N,,,,,,,female,20,
13,10,205,14,14,5,['k'],N,['d'],N,None,Y,,,,,,,female,20,
13,11,206,3,3,5,['d'],N,['k'],N,None,Y,,,,,,,female,20,
13,12,207,14,14,5,['k'],N,['d'],Y,None,N,,,,,,,female,20,
13,13,208,5,5,5,['k'],N,['d'],Y,['space'],Y,,,,,,,female,20,
13,14,209,6,6,5,['d'],N,['k'],N,None,Y,,,,,,,female,20,
14,0,210,14,14,5,['d'],N,['k'],N,None,Y,,,,,,,female,20,
14,1,211,9,9,5,['k'],N,['d'],N,None,Y,,,,,,,female,20,
14,2,212,9,9,5,['k'],Y,['k'],Y,['space'],Y,,,,,,,female,20,
14,3,213,8,8,5,['k'],Y,['k'],N,None,Y,,,,,,,female,20,
14,4,214,7,7,5,['k'],N,['d'],N,None,Y,,,,,,,female,20,
14,5,215,0,0,5,['k'],N,['d'],Y,['space'],Y,,,,,,,female,20,
14,6,216,0,0,5,['k'],Y,['k'],Y,None,N,,,,,,,female,20,
14,7,217,3,3,5,['d'],Y,['d'],Y,None,N,,,,,,,female,20,
14,8,218,9,9,5,['k'],Y,['k'],N,None,Y,,,,,,,female,20,
14,9,219,14,14,5,['k'],N,['d'],N,None,Y,,,,,,,female,20,
14,10,220,8,8,5,['d'],N,['k'],N,None,Y,,,,,,,female,20,
14,11,221,10,10,5,['k'],N,['d'],N,None,Y,,,,,,,female,20,
14,12,222,14,14,5,['k'],N,['d'],N,None,Y,,,,,,,female,20,
14,13,223,7,7,5,['d'],N,['k'],Y,['space'],Y,,,,,,,female,20,
14,14,224,7,7,5,['k'],N,['d'],Y,['space'],Y,,,,,,,female,20,
15,0,225,4,4,5,['k'],Y,['k'],N,None,Y,,,,,,,female,20,
15,1,226,10,10,5,['d'],N,['k'],N,None,Y,,,,,,,female,20,
15,2,227,10,10,5,['d'],Y,['d'],Y,['space'],Y,,,,,,,female,20,
15,3,228,6,6,5,['d'],N,['k'],Y,['space'],Y,,,,,,,female,20,
15,4,229,0,0,5,['k'],N,['d'],N,None,Y,,,,,,,female,20,
15,5,230,0,0,5,['d'],Y,['d'],N,None,Y,,,,,,,female,20,
15,6,231,2,2,5,['k'],Y,['k'],Y,['space'],Y,,,,,,,female,20,
15,7,232,11,11,5,['d'],N,['k'],N,None,Y,,,,,,,female,20,
15,8,233,3,3,5,['k'],N,['d'],N,None,Y,,,,,,,female,20,
15,9,234,10,10,5,['d'],Y,['d'],Y,['space'],Y,,,,,,,female,20,
15,10,235,5,5,5,['k'],N,['d'],N,None,Y,,,,,,,female,20,
15,11,236,2,2,5,['k'],Y,['k'],Y,['space'],Y,,,,,,,female,20,
15,12,237,8,8,5,['d'],Y,['d'],Y,None,N,,,,,,,female,20,
15,13,238,5,5,5,['d'],Y,['d'],N,None,Y,,,,,,,female,20,
15,14,239,4,4,5,['d'],Y,['d'],N,None,Y,,,,,,,female,20,
16,0,240,9,9,5,['d'],Y,['d'],Y,None,N,,,,,,,female,20,
16,1,241,12,12,5,['d'],Y,['d'],N,['space'],N,,,,,,,female,20,
16,2,242,7,7,5,['k'],Y,['k'],Y,['space'],Y,,,,,,,female,20,
16,3,243,6,6,5,['k'],Y,['k'],Y,None,N,,,,,,,female,20,
16,4,244,4,4,5,['k'],N,['d'],N,None,Y,,,,,,,female,20,
16,5,245,7,7,5,['d'],N,['k'],Y,None,N,,,,,,,female,20,
16,6,246,4,4,5,['d'],N,['k'],Y,None,N,,,,,,,female,20,
16,7,247,4,4,5,['d'],Y,['d'],Y,None,N,,,,,,,female,20,
16,8,248,13,13,5,['k'],N,['d'],Y,None,N,,,,,,,female,20,
16,9,249,11,11,5,['d'],N,['k'],Y,None,N,23,34,24,,,,female,20,
16,10,250,6,6,6,['k'],N,['d'],,,,,,,,,,female,20,
16,11,251,3,3,6,['d'],Y,['d'],,,,,,,,,,female,20,
16,12,252,5,5,6,['k'],N,['d'],Y,None,N,,,,,,,female,20,
16,13,253,12,12,6,['k'],Y,['k'],N,None,Y,,,,,,,female,20,
16,14,254,12,12,6,['k'],N,['d'],N,['space'],N,,,,,,,female,20,
17,0,255,5,5,6,['k'],Y,['k'],N,None,Y,,,,,,,female,20,
17,1,256,6,6,6,['k'],N,['d'],Y,None,N,,,,,,,female,20,
17,2,257,10,10,6,['d'],Y,['d'],Y,None,N,,,,,,,female,20,
17,3,258,9,9,6,['k'],N,['d'],Y,None,N,,,,,,,female,20,
17,4,259,0,0,6,['k'],N,['d'],Y,None,N,,,,,,,female,20,
17,5,260,3,3,6,['k'],N,['d'],N,None,Y,,,,,,,female,20,
17,6,261,10,10,6,['k'],N,['d'],Y,None,N,,,,,,,female,20,
17,7,262,10,10,6,['k'],Y,['k'],N,None,Y,,,,,,,female,20,
17,8,263,1,1,6,['k'],N,['d'],Y,['space'],Y,,,,,,,female,20,
17,9,264,5,5,6,['k'],N,['d'],N,['space'],N,,,,,,,female,20,
17,10,265,1,1,6,['d'],Y,['d'],N,None,Y,,,,,,,female,20,
17,11,266,8,8,6,['d'],Y,['d'],Y,None,N,,,,,,,female,20,
17,12,267,12,12,6,['d'],N,['k'],N,None,Y,,,,,,,female,20,
17,13,268,9,9,6,['d'],N,['k'],Y,None,N,,,,,,,female,20,
17,14,269,4,4,6,['d'],Y,['d'],Y,None,N,,,,,,,female,20,
18,0,270,9,9,6,['d'],Y,['d'],Y,['space'],Y,,,,,,,female,20,
18,1,271,7,7,6,['d'],N,['k'],Y,['space'],Y,,,,,,,female,20,
18,2,272,8,8,6,None,Timed out,,N,None,Y,,,,,,,female,20,
18,3,273,0,0,6,['k'],Y,['k'],Y,None,N,,,,,,,female,20,
18,4,274,13,13,6,['d'],N,['k'],Y,None,N,,,,,,,female,20,
18,5,275,13,13,6,['k'],Y,['k'],N,None,Y,,,,,,,female,20,
18,6,276,3,3,6,['d'],N,['k'],N,None,Y,,,,,,,female,20,
18,7,277,2,2,6,['k'],N,['d'],Y,None,N,,,,,,,female,20,
18,8,278,11,11,6,['d'],N,['k'],Y,['space'],Y,,,,,,,female,20,
18,9,279,7,7,6,['k'],N,['d'],N,None,Y,,,,,,,female,20,
18,10,280,14,14,6,['d'],Y,['d'],N,None,Y,,,,,,,female,20,
18,11,281,10,10,6,['k'],Y,['k'],Y,['space'],Y,,,,,,,female,20,
18,12,282,3,3,6,['k'],Y,['k'],N,None,Y,,,,,,,female,20,
18,13,283,7,7,6,['d'],N,['k'],N,None,Y,,,,,,,female,20,
18,14,284,3,3,6,['d'],N,['k'],Y,['space'],Y,,,,,,,female,20,
19,0,285,8,8,6,['k'],N,['d'],Y,['space'],Y,,,,,,,female,20,
19,1,286,11,11,6,['d'],N,['k'],Y,['space'],Y,,,,,,,female,20,
19,2,287,7,7,6,['k'],Y,['k'],N,['space'],N,,,,,,,female,20,
19,3,288,2,2,6,['k'],Y,['k'],Y,['space'],Y,,,,,,,female,20,
19,4,289,2,2,6,['d'],N,['k'],Y,['space'],Y,,,,,,,female,20,
19,5,290,5,5,6,['k'],Y,['k'],Y,None,N,,,,,,,female,20,
19,6,291,6,6,6,['k'],N,['d'],N,None,Y,,,,,,,female,20,
19,7,292,12,12,6,['d'],Y,['d'],Y,['space'],Y,,,,,,,female,20,
19,8,293,8,8,6,['k'],N,['d'],Y,['space'],Y,,,,,,,female,20,
19,9,294,9,9,6,['d'],Y,['d'],N,None,Y,,,,,,,female,20,
19,10,295,9,9,6,['k'],N,['d'],N,None,Y,,,,,,,female,20,
19,11,296,10,10,6,['k'],Y,['k'],N,None,Y,,,,,,,female,20,
19,12,297,13,13,6,['k'],Y,['k'],N,None,Y,,,,,,,female,20,
19,13,298,4,4,6,['k'],N,['d'],N,None,Y,,,,,,,female,20,
19,14,299,1,1,6,['k'],Y,['k'],N,None,Y,22,32,25,,,,female,20,
20,0,300,1,1,7,['d'],N,['k'],,,,,,,,,,female,20,
20,1,301,10,10,7,['d'],Y,['d'],,,,,,,,,,female,20,
20,2,302,5,5,7,['k'],N,['d'],N,None,Y,,,,,,,female,20,
20,3,303,2,2,7,['d'],Y,['d'],N,None,Y,,,,,,,female,20,
20,4,304,9,9,7,['d'],N,['k'],Y,None,N,,,,,,,female,20,
20,5,305,2,2,7,['k'],N,['d'],N,None,Y,,,,,,,female,20,
20,6,306,6,6,7,['d'],N,['k'],N,None,Y,,,,,,,female,20,
20,7,307,0,0,7,['d'],N,['k'],Y,None,N,,,,,,,female,20,
20,8,308,12,12,7,['d'],N,['k'],Y,None,N,,,,,,,female,20,
20,9,309,1,1,7,['k'],N,['d'],N,None,Y,,,,,,,female,20,
20,10,310,7,7,7,['k'],N,['d'],Y,None,N,,,,,,,female,20,
20,11,311,5,5,7,['d'],N,['k'],N,None,Y,,,,,,,female,20,
20,12,312,0,0,7,['k'],Y,['k'],N,None,Y,,,,,,,female,20,
20,13,313,0,0,7,['k'],Y,['k'],Y,None,N,,,,,,,female,20,
20,14,314,4,4,7,['d'],Y,['d'],N,None,Y,,,,,,,female,20,
21,0,315,14,14,7,['k'],Y,['k'],Y,None,N,,,,,,,female,20,
21,1,316,0,0,7,['d'],Y,['d'],N,None,Y,,,,,,,female,20,
21,2,317,14,14,7,['k'],N,['d'],N,None,Y,,,,,,,female,20,
21,3,318,4,4,7,['d'],Y,['d'],N,None,Y,,,,,,,female,20,
21,4,319,13,13,7,['k'],N,['d'],Y,['space'],Y,,,,,,,female,20,
21,5,320,8,8,7,['k'],N,['d'],N,None,Y,,,,,,,female,20,
21,6,321,2,2,7,['d'],N,['k'],Y,None,N,,,,,,,female,20,
21,7,322,9,9,7,['k'],Y,['k'],N,None,Y,,,,,,,female,20,
21,8,323,6,6,7,['k'],Y,['k'],N,None,Y,,,,,,,female,20,
21,9,324,9,9,7,['d'],Y,['d'],N,None,Y,,,,,,,female,20,
21,10,325,8,8,7,['k'],N,['d'],Y,None,N,,,,,,,female,20,
21,11,326,13,13,7,['k'],N,['d'],N,None,Y,,,,,,,female,20,
21,12,327,7,7,7,['d'],Y,['d'],N,None,Y,,,,,,,female,20,
21,13,328,7,7,7,['d'],Y,['d'],Y,None,N,,,,,,,female,20,
21,14,329,10,10,7,['d'],Y,['d'],N,None,Y,,,,,,,female,20,
22,0,330,14,14,7,['k'],N,['d'],N,['space'],N,,,,,,,female,20,
22,1,331,13,13,7,['k'],Y,['k'],Y,['space'],Y,,,,,,,female,20,
22,2,332,1,1,7,['k'],Y,['k'],N,None,Y,,,,,,,female,20,
22,3,333,7,7,7,['k'],Y,['k'],Y,['space'],Y,,,,,,,female,20,
22,4,334,13,13,7,['k'],Y,['k'],Y,None,N,,,,,,,female,20,
22,5,335,10,10,7,['d'],Y,['d'],Y,None,N,,,,,,,female,20,
22,6,336,3,3,7,['k'],Y,['k'],Y,None,N,,,,,,,female,20,
22,7,337,13,13,7,['k'],Y,['k'],Y,None,N,,,,,,,female,20,
22,8,338,4,4,7,['d'],Y,['d'],Y,None,N,,,,,,,female,20,
22,9,339,6,6,7,['k'],Y,['k'],N,None,Y,,,,,,,female,20,
22,10,340,4,4,7,['d'],Y,['d'],Y,['space'],Y,,,,,,,female,20,
22,11,341,13,13,7,['k'],Y,['k'],Y,None,N,,,,,,,female,20,
22,12,342,10,10,7,['d'],Y,['d'],N,None,Y,,,,,,,female,20,
22,13,343,8,8,7,['k'],Y,['k'],Y,None,N,,,,,,,female,20,
22,14,344,5,5,7,['d'],Y,['d'],N,None,Y,,,,,,,female,20,
23,0,345,5,5,7,['d'],Y,['d'],N,None,Y,,,,,,,female,20,
23,1,346,2,2,7,['d'],Y,['d'],Y,['space'],Y,,,,,,,female,20,
23,2,347,8,8,7,['k'],N,['d'],N,None,Y,,,,,,,female,20,
23,3,348,9,9,7,['k'],N,['d'],Y,None,N,,,,,,,female,20,
23,4,349,5,5,7,['k'],Y,['k'],Y,None,N,31,29,23,,,,female,20,
23,5,350,5,5,8,['d'],Y,['d'],,,,,,,,,,female,20,
23,6,351,12,12,8,['d'],Y,['d'],,,,,,,,,,female,20,
23,7,352,10,10,8,['k'],Y,['k'],Y,None,N,,,,,,,female,20,
23,8,353,2,2,8,['d'],Y,['d'],N,None,Y,,,,,,,female,20,
23,9,354,12,12,8,['k'],Y,['k'],N,None,Y,,,,,,,female,20,
23,10,355,5,5,8,['k'],Y,['k'],N,None,Y,,,,,,,female,20,
23,11,356,11,11,8,['d'],Y,['d'],Y,['space'],Y,,,,,,,female,20,
23,12,357,2,2,8,['k'],Y,['k'],N,None,Y,,,,,,,female,20,
23,13,358,7,7,8,['d'],Y,['d'],N,None,Y,,,,,,,female,20,
23,14,359,9,9,8,['d'],Y,['d'],Y,['space'],Y,,,,,,,female,20,
24,0,360,1,1,8,['k'],Y,['k'],N,None,Y,,,,,,,female,20,
24,1,361,12,12,8,['k'],Y,['k'],Y,['space'],Y,,,,,,,female,20,
24,2,362,10,10,8,['k'],Y,['k'],Y,['space'],Y,,,,,,,female,20,
24,3,363,4,4,8,['k'],Y,['k'],Y,['space'],Y,,,,,,,female,20,
24,4,364,1,1,8,['d'],Y,['d'],N,None,Y,,,,,,,female,20,
24,5,365,7,7,8,['k'],Y,['k'],Y,None,N,,,,,,,female,20,
24,6,366,2,2,8,['d'],Y,['d'],N,None,Y,,,,,,,female,20,
24,7,367,0,0,8,['d'],Y,['d'],Y,['space'],Y,,,,,,,female,20,
24,8,368,11,11,8,['d'],Y,['d'],N,None,Y,,,,,,,female,20,
24,9,369,11,11,8,['k'],Y,['k'],Y,['space'],Y,,,,,,,female,20,
24,10,370,6,6,8,['d'],N,['k'],N,None,Y,,,,,,,female,20,
24,11,371,11,11,8,['k'],Y,['k'],Y,None,N,,,,,,,female,20,
24,12,372,5,5,8,['k'],Y,['k'],N,None,Y,,,,,,,female,20,
24,13,373,1,1,8,['d'],Y,['d'],Y,['space'],Y,,,,,,,female,20,
24,14,374,10,10,8,['k'],Y,['k'],N,None,Y,,,,,,,female,20,
25,0,375,8,8,8,['d'],Y,['d'],Y,['space'],Y,,,,,,,female,20,
25,1,376,13,13,8,['d'],Y,['d'],N,None,Y,,,,,,,female,20,
25,2,377,6,6,8,['k'],Y,['k'],Y,['space'],Y,,,,,,,female,20,
25,3,378,3,3,8,['k'],Y,['k'],Y,['space'],Y,,,,,,,female,20,
25,4,379,4,4,8,['d'],Y,['d'],Y,['space'],Y,,,,,,,female,20,
25,5,380,8,8,8,['d'],Y,['d'],N,None,Y,,,,,,,female,20,
25,6,381,7,7,8,['k'],Y,['k'],Y,None,N,,,,,,,female,20,
25,7,382,3,3,8,['d'],Y,['d'],Y,['space'],Y,,,,,,,female,20,
25,8,383,12,12,8,['k'],Y,['k'],Y,['space'],Y,,,,,,,female,20,
25,9,384,3,3,8,['k'],Y,['k'],N,None,Y,,,,,,,female,20,
25,10,385,8,8,8,['d'],Y,['d'],Y,['space'],Y,,,,,,,female,20,
25,11,386,1,1,8,['d'],Y,['d'],Y,None,N,,,,,,,female,20,
25,12,387,12,12,8,['d'],Y,['d'],Y,['space'],Y,,,,,,,female,20,
25,13,388,7,7,8,['k'],Y,['k'],Y,['space'],Y,,,,,,,female,20,
25,14,389,12,12,8,['d'],Y,['d'],N,None,Y,,,,,,,female,20,
26,0,390,2,2,8,['k'],Y,['k'],Y,['space'],Y,,,,,,,female,20,
26,1,391,4,4,8,['k'],Y,['k'],Y,['space'],Y,,,,,,,female,20,
26,2,392,14,14,8,['d'],Y,['d'],N,None,Y,,,,,,,female,20,
26,3,393,8,8,8,['k'],N,['d'],Y,['space'],Y,,,,,,,female,20,
26,4,394,9,9,8,['k'],Y,['k'],N,None,Y,,,,,,,female,20,
26,5,395,4,4,8,['d'],Y,['d'],N,None,Y,,,,,,,female,20,
26,6,396,5,5,8,['k'],Y,['k'],N,None,Y,,,,,,,female,20,
26,7,397,6,6,8,['d'],Y,['d'],N,None,Y,,,,,,,female,20,
26,8,398,5,5,8,['d'],Y,['d'],N,None,Y,,,,,,,female,20,
26,9,399,6,6,8,['k'],Y,['k'],N,None,Y,48,43,25,,,,female,20,
26,10,400,8,8,9,['d'],Y,['d'],,,,,,,,,,female,20,
26,11,401,7,7,9,['k'],Y,['k'],,,,,,,,,,female,20,
26,12,402,2,2,9,['k'],N,['d'],N,None,Y,,,,,,,female,20,
26,13,403,13,13,9,['k'],Y,['k'],Y,['space'],Y,,,,,,,female,20,
26,14,404,7,7,9,['d'],Y,['d'],N,None,Y,,,,,,,female,20,
27,0,405,4,4,9,['d'],Y,['d'],Y,['space'],Y,,,,,,,female,20,
27,1,406,13,13,9,['k'],Y,['k'],N,None,Y,,,,,,,female,20,
27,2,407,9,9,9,['d'],Y,['d'],N,None,Y,,,,,,,female,20,
27,3,408,0,0,9,['k'],Y,['k'],Y,['space'],Y,,,,,,,female,20,
27,4,409,13,13,9,['d'],Y,['d'],Y,['d'],N,,,,,,,female,20,
27,5,410,12,12,9,['d'],Y,['d'],Y,None,N,,,,,,,female,20,
27,6,411,1,1,9,['k'],Y,['k'],Y,None,N,,,,,,,female,20,
27,7,412,9,9,9,['d'],Y,['d'],N,['space'],N,,,,,,,female,20,
27,8,413,13,13,9,['k'],Y,['k'],Y,['space'],Y,,,,,,,female,20,
27,9,414,13,13,9,['d'],Y,['d'],N,None,Y,,,,,,,female,20,
27,10,415,1,1,9,['d'],Y,['d'],Y,['space'],Y,,,,,,,female,20,
27,11,416,8,8,9,['d'],Y,['d'],Y,None,N,,,,,,,female,20,
27,12,417,7,7,9,['k'],Y,['k'],Y,['space'],Y,,,,,,,female,20,
27,13,418,4,4,9,['d'],Y,['d'],Y,['space'],Y,,,,,,,female,20,
27,14,419,12,12,9,['k'],Y,['k'],Y,['space'],Y,,,,,,,female,20,
28,0,420,9,9,9,['k'],Y,['k'],N,None,Y,,,,,,,female,20,
28,1,421,4,4,9,['d'],Y,['d'],N,None,Y,,,,,,,female,20,
28,2,422,11,11,9,['k'],Y,['k'],Y,['space'],Y,,,,,,,female,20,
28,3,423,2,2,9,['k'],Y,['k'],N,None,Y,,,,,,,female,20,
28,4,424,8,8,9,['k'],Y,['k'],Y,['space'],Y,,,,,,,female,20,
28,5,425,10,10,9,['d'],Y,['d'],N,None,Y,,,,,,,female,20,
28,6,426,2,2,9,['k'],Y,['k'],N,None,Y,,,,,,,female,20,
28,7,427,4,4,9,['k'],Y,['k'],N,None,Y,,,,,,,female,20,
28,8,428,7,7,9,['k'],Y,['k'],N,None,Y,,,,,,,female,20,
28,9,429,7,7,9,['d'],N,['k'],N,None,Y,,,,,,,female,20,
28,10,430,0,0,9,['k'],Y,['k'],Y,['space'],Y,,,,,,,female,20,
28,11,431,1,1,9,['k'],Y,['k'],Y,None,N,,,,,,,female,20,
28,12,432,9,9,9,['d'],Y,['d'],N,None,Y,,,,,,,female,20,
28,13,433,9,9,9,['d'],Y,['d'],N,None,Y,,,,,,,female,20,
28,14,434,11,11,9,['d'],Y,['d'],Y,['space'],Y,,,,,,,female,20,
29,0,435,6,6,9,['k'],Y,['k'],N,None,Y,,,,,,,female,20,
29,1,436,14,14,9,['k'],Y,['k'],Y,None,N,,,,,,,female,20,
29,2,437,8,8,9,['k'],Y,['k'],Y,['space'],Y,,,,,,,female,20,
29,3,438,6,6,9,['k'],Y,['k'],N,['space'],N,,,,,,,female,20,
29,4,439,1,1,9,['d'],Y,['d'],Y,['space'],Y,,,,,,,female,20,
29,5,440,1,1,9,['d'],Y,['d'],N,None,Y,,,,,,,female,20,
29,6,441,14,14,9,['k'],Y,['k'],N,None,Y,,,,,,,female,20,
29,7,442,1,1,9,['d'],Y,['d'],Y,None,N,,,,,,,female,20,
29,8,443,2,2,9,['k'],Y,['k'],Y,None,N,,,,,,,female,20,
29,9,444,12,12,9,['k'],Y,['k'],N,None,Y,,,,,,,female,20,
29,10,445,1,1,9,['d'],Y,['d'],Y,None,N,,,,,,,female,20,
29,11,446,12,12,9,['k'],N,['d'],N,None,Y,,,,,,,female,20,
29,12,447,9,9,9,['d'],Y,['d'],N,None,Y,,,,,,,female,20,
29,13,448,9,9,9,['d'],Y,['d'],Y,None,N,,,,,,,female,20,
29,14,449,11,11,9,['d'],Y,['d'],N,None,Y,47,36,24,,,,female,20,
30,0,450,4,4,10,['k'],Y,['k'],,,,,,,,,,female,20,
30,1,451,9,9,10,['k'],Y,['k'],,,,,,,,,,female,20,
30,2,452,12,12,10,['k'],Y,['k'],N,None,Y,,,,,,,female,20,
30,3,453,6,6,10,['d'],Y,['d'],N,None,Y,,,,,,,female,20,
30,4,454,0,0,10,['k'],Y,['k'],Y,['space'],Y,,,,,,,female,20,
30,5,455,11,11,10,['d'],Y,['d'],N,['space'],N,,,,,,,female,20,
30,6,456,2,2,10,['k'],Y,['k'],N,None,Y,,,,,,,female,20,
30,7,457,4,4,10,['k'],Y,['k'],N,None,Y,,,,,,,female,20,
30,8,458,13,13,10,['d'],Y,['d'],N,None,Y,,,,,,,female,20,
30,9,459,11,11,10,['k'],Y,['k'],N,None,Y,,,,,,,female,20,
30,10,460,3,3,10,['d'],Y,['d'],N,None,Y,,,,,,,female,20,
30,11,461,2,2,10,['k'],Y,['k'],N,None,Y,,,,,,,female,20,
30,12,462,11,11,10,['k'],Y,['k'],N,None,Y,,,,,,,female,20,
30,13,463,11,11,10,['k'],Y,['k'],Y,['space'],Y,,,,,,,female,20,
30,14,464,0,0,10,['d'],Y,['d'],N,None,Y,,,,,,,female,20,
31,0,465,3,3,10,['d'],Y,['d'],N,None,Y,,,,,,,female,20,
31,1,466,13,13,10,['k'],Y,['k'],Y,None,N,,,,,,,female,20,
31,2,467,7,7,10,['d'],Y,['d'],N,None,Y,,,,,,,female,20,
31,3,468,4,4,10,['d'],Y,['d'],Y,['k'],N,,,,,,,female,20,
31,4,469,14,14,10,['k'],Y,['k'],Y,None,N,,,,,,,female,20,
31,5,470,11,11,10,['d'],Y,['d'],N,None,Y,,,,,,,female,20,
31,6,471,1,1,10,['d'],Y,['d'],N,None,Y,,,,,,,female,20,
31,7,472,13,13,10,['d'],Y,['d'],Y,None,N,,,,,,,female,20,
31,8,473,6,6,10,['d'],Y,['d'],N,None,Y,,,,,,,female,20,
31,9,474,11,11,10,['k'],Y,['k'],Y,['space'],Y,,,,,,,female,20,
31,10,475,5,5,10,['d'],Y,['d'],N,None,Y,,,,,,,female,20,
31,11,476,2,2,10,['d'],Y,['d'],N,None,Y,,,,,,,female,20,
31,12,477,14,14,10,['k'],Y,['k'],Y,['space'],Y,,,,,,,female,20,
31,13,478,9,9,10,['k'],Y,['k'],Y,['space'],Y,,,,,,,female,20,
31,14,479,6,6,10,['d'],N,['k'],N,None,Y,,,,,,,female,20,
32,0,480,8,8,10,['d'],Y,['d'],N,None,Y,,,,,,,female,20,
32,1,481,10,10,10,['k'],Y,['k'],Y,['space'],Y,,,,,,,female,20,
32,2,482,12,12,10,['k'],Y,['k'],N,None,Y,,,,,,,female,20,
32,3,483,2,2,10,['d'],Y,['d'],Y,None,N,,,,,,,female,20,
32,4,484,4,4,10,['d'],Y,['d'],N,None,Y,,,,,,,female,20,
32,5,485,3,3,10,['k'],Y,['k'],Y,None,N,,,,,,,female,20,
32,6,486,0,0,10,['d'],Y,['d'],N,None,Y,,,,,,,female,20,
32,7,487,6,6,10,['k'],Y,['k'],Y,['space'],Y,,,,,,,female,20,
32,8,488,4,4,10,['k'],N,['d'],N,None,Y,,,,,,,female,20,
32,9,489,1,1,10,['d'],Y,['d'],N,None,Y,,,,,,,female,20,
32,10,490,8,8,10,['k'],Y,['k'],Y,['space'],Y,,,,,,,female,20,
32,11,491,6,6,10,['d'],Y,['d'],N,None,Y,,,,,,,female,20,
32,12,492,4,4,10,['k'],Y,['k'],N,None,Y,,,,,,,female,20,
32,13,493,2,2,10,['k'],Y,['k'],Y,['space'],Y,,,,,,,female,20,
32,14,494,11,11,10,['d'],Y,['d'],N,None,Y,,,,,,,female,20,
33,0,495,0,0,10,['k'],Y,['k'],N,None,Y,,,,,,,female,20,
33,1,496,7,7,10,['k'],Y,['k'],Y,['space'],Y,,,,,,,female,20,
33,2,497,1,1,10,['d'],Y,['d'],N,None,Y,,,,,,,female,20,
33,3,498,3,3,10,['d'],Y,['d'],Y,['space'],Y,,,,,,,female,20,
33,4,499,11,11,10,['k'],Y,['k'],Y,None,N,48,40,18,,,,female,20,
33,5,500,1,1,11,['d'],N,['d'],,,,,,,Y,Y,Y,female,20,
33,6,501,10,10,11,['k'],Y,['d'],,,,,,,,Y,Y,female,20,
33,7,502,8,8,11,['d'],Y,['k'],Y,None,N,,,,,Y,Y,female,20,
33,8,503,6,6,11,None,Timed out,,N,None,Y,,,,,Y,Y,female,20,
33,9,504,13,13,11,['d'],Y,['k'],N,None,Y,,,,,Y,Y,female,20,
33,10,505,11,11,11,['k'],Y,['d'],N,None,Y,,,,,Y,Y,female,20,
33,11,506,10,10,11,['d'],Y,['k'],N,None,Y,,,,,Y,Y,female,20,
33,12,507,10,10,11,['k'],Y,['d'],Y,['space'],Y,,,,,Y,Y,female,20,
33,13,508,2,2,11,None,Timed out,,Y,['space'],Y,,,,,Y,Y,female,20,
33,14,509,14,14,11,['d'],Y,['k'],N,None,Y,,,,,Y,Y,female,20,
34,0,510,2,2,11,['d'],Y,['k'],N,None,Y,,,,,Y,Y,female,20,
34,1,511,11,11,11,['d'],Y,['k'],Y,['space'],Y,,,,,Y,Y,female,20,
34,2,512,14,14,11,['d'],Y,['k'],Y,['space'],Y,,,,,Y,Y,female,20,
34,3,513,3,3,11,['k'],Y,['d'],Y,['space'],Y,,,,,Y,Y,female,20,
34,4,514,10,10,11,['d'],Y,['k'],N,None,Y,,,,,Y,Y,female,20,
34,5,515,10,10,11,['d'],Y,['k'],N,None,Y,,,,,Y,Y,female,20,
34,6,516,11,11,11,['k'],Y,['d'],Y,['space'],Y,,,,,Y,Y,female,20,
34,7,517,3,3,11,['d'],Y,['k'],N,None,Y,,,,,Y,Y,female,20,
34,8,518,11,11,11,['d'],Y,['k'],N,None,Y,,,,,Y,Y,female,20,
34,9,519,12,12,11,['d'],Y,['k'],Y,['space'],Y,,,,,Y,Y,female,20,
34,10,520,9,9,11,['d'],N,['d'],N,None,Y,,,,,Y,Y,female,20,
34,11,521,12,12,11,['d'],Y,['k'],Y,None,N,,,,,Y,Y,female,20,
34,12,522,11,11,11,['k'],Y,['d'],Y,None,N,,,,,Y,Y,female,20,
34,13,523,10,10,11,['k'],Y,['d'],N,None,Y,,,,,Y,Y,female,20,
34,14,524,10,10,11,['d'],Y,['k'],N,None,Y,,,,,Y,Y,female,20,
35,0,525,10,10,11,None,Timed out,,N,None,Y,,,,,Y,Y,female,20,
35,1,526,9,9,11,['d'],N,['d'],Y,None,N,,,,,Y,Y,female,20,
35,2,527,14,14,11,['k'],Y,['d'],Y,['space'],Y,,,,,Y,Y,female,20,
35,3,528,8,8,11,['d'],Y,['k'],N,None,Y,,,,,Y,Y,female,20,
35,4,529,12,12,11,['k'],Y,['d'],N,None,Y,,,,,Y,Y,female,20,
35,5,530,9,9,11,['d'],Y,['k'],Y,['space'],Y,,,,,Y,Y,female,20,
35,6,531,14,14,11,['d'],Y,['k'],Y,['space'],Y,,,,,Y,Y,female,20,
35,7,532,6,6,11,['k'],Y,['d'],Y,['space'],Y,,,,,Y,Y,female,20,
35,8,533,8,8,11,['d'],Y,['k'],Y,['space'],Y,,,,,Y,Y,female,20,
35,9,534,13,13,11,['k'],Y,['d'],N,['space'],N,,,,,Y,Y,female,20,
35,10,535,5,5,11,['k'],Y,['d'],N,None,Y,,,,,Y,Y,female,20,
35,11,536,2,2,11,['d'],Y,['k'],Y,['space'],Y,,,,,Y,Y,female,20,
35,12,537,4,4,11,['k'],Y,['d'],N,None,Y,,,,,Y,Y,female,20,
35,13,538,7,7,11,['k'],Y,['d'],Y,['space'],Y,,,,,Y,Y,female,20,
35,14,539,5,5,11,['d'],Y,['k'],Y,['space'],Y,,,,,Y,Y,female,20,
36,0,540,6,6,11,['k'],Y,['d'],N,None,Y,,,,,Y,Y,female,20,
36,1,541,11,11,11,['k'],Y,['d'],Y,['space'],Y,,,,,Y,Y,female,20,
36,2,542,2,2,11,['k'],Y,['d'],Y,['space'],Y,,,,,Y,Y,female,20,
36,3,543,14,14,11,['k'],Y,['d'],N,None,Y,,,,,Y,Y,female,20,
36,4,544,12,12,11,['d'],Y,['k'],Y,['space'],Y,,,,,Y,Y,female,20,
36,5,545,11,11,11,['k'],Y,['d'],Y,['space'],Y,,,,,Y,Y,female,20,
36,6,546,7,7,11,['d'],N,['d'],Y,['space'],Y,,,,,Y,Y,female,20,
36,7,547,13,13,11,['k'],Y,['d'],Y,['space'],Y,,,,,Y,Y,female,20,
36,8,548,11,11,11,['d'],Y,['k'],N,None,Y,,,,,Y,Y,female,20,
36,9,549,13,13,11,['d'],Y,['k'],N,None,Y,43,43,25,,Y,Y,female,20,
36,10,550,3,3,12,['k'],N,['k'],,,,,,,,Y,Y,female,20,
36,11,551,13,13,12,['d'],N,['d'],,,,,,,,Y,Y,female,20,
36,12,552,3,3,12,['k'],Y,['d'],N,None,Y,,,,,Y,Y,female,20,
36,13,553,13,13,12,['d'],Y,['k'],N,None,Y,,,,,Y,Y,female,20,
36,14,554,3,3,12,['k'],Y,['d'],Y,None,N,,,,,Y,Y,female,20,
37,0,555,10,10,12,['d'],Y,['k'],Y,None,N,,,,,Y,Y,female,20,
37,1,556,10,10,12,['k'],Y,['d'],Y,['space'],Y,,,,,Y,Y,female,20,
37,2,557,7,7,12,['k'],Y,['d'],Y,['space'],Y,,,,,Y,Y,female,20,
37,3,558,11,11,12,['d'],Y,['k'],N,None,Y,,,,,Y,Y,female,20,
37,4,559,10,10,12,['d'],Y,['k'],N,None,Y,,,,,Y,Y,female,20,
37,5,560,14,14,12,['d'],Y,['k'],N,None,Y,,,,,Y,Y,female,20,
37,6,561,8,8,12,['d'],Y,['k'],N,None,Y,,,,,Y,Y,female,20,
37,7,562,0,0,12,['k'],Y,['d'],N,None,Y,,,,,Y,Y,female,20,
37,8,563,14,14,12,['d'],Y,['k'],N,None,Y,,,,,Y,Y,female,20,
37,9,564,11,11,12,['d'],Y,['k'],N,None,Y,,,,,Y,Y,female,20,
37,10,565,7,7,12,['d'],Y,['k'],N,None,Y,,,,,Y,Y,female,20,
37,11,566,8,8,12,['k'],Y,['d'],Y,None,N,,,,,Y,Y,female,20,
37,12,567,13,13,12,['d'],N,['d'],Y,['space'],Y,,,,,Y,Y,female,20,
37,13,568,5,5,12,['k'],Y,['d'],N,None,Y,,,,,Y,Y,female,20,
37,14,569,13,13,12,['d'],Y,['k'],Y,['space'],Y,,,,,Y,Y,female,20,
38,0,570,1,1,12,['d'],Y,['k'],Y,['space'],Y,,,,,Y,Y,female,20,
38,1,571,11,11,12,['k'],Y,['d'],Y,['space'],Y,,,,,Y,Y,female,20,
38,2,572,3,3,12,['k'],Y,['d'],N,None,Y,,,,,Y,Y,female,20,
38,3,573,2,2,12,['d'],Y,['k'],Y,['space'],Y,,,,,Y,Y,female,20,
38,4,574,12,12,12,['d'],Y,['k'],Y,['space'],Y,,,,,Y,Y,female,20,
38,5,575,2,2,12,['k'],Y,['d'],Y,['space'],Y,,,,,Y,Y,female,20,
38,6,576,5,5,12,['d'],Y,['k'],N,None,Y,,,,,Y,Y,female,20,
38,7,577,6,6,12,['d'],Y,['k'],N,None,Y,,,,,Y,Y,female,20,
38,8,578,4,4,12,['k'],Y,['d'],Y,['space'],Y,,,,,Y,Y,female,20,
38,9,579,3,3,12,['k'],Y,['d'],N,None,Y,,,,,Y,Y,female,20,
38,10,580,3,3,12,['k'],Y,['d'],Y,None,N,,,,,Y,Y,female,20,
38,11,581,1,1,12,['d'],Y,['k'],Y,None,N,,,,,Y,Y,female,20,
38,12,582,4,4,12,['d'],Y,['k'],N,None,Y,,,,,Y,Y,female,20,
38,13,583,9,9,12,['d'],Y,['k'],Y,['space'],Y,,,,,Y,Y,female,20,
38,14,584,5,5,12,['d'],Y,['k'],N,None,Y,,,,,Y,Y,female,20,
39,0,585,3,3,12,['d'],Y,['k'],Y,['space'],Y,,,,,Y,Y,female,20,
39,1,586,12,12,12,['d'],Y,['k'],Y,['space'],Y,,,,,Y,Y,female,20,
39,2,587,6,6,12,['d'],Y,['k'],Y,['space'],Y,,,,,Y,Y,female,20,
39,3,588,12,12,12,['d'],Y,['k'],N,None,Y,,,,,Y,Y,female,20,
39,4,589,9,9,12,['d'],Y,['k'],N,None,Y,,,,,Y,Y,female,20,
39,5,590,0,0,12,['k'],Y,['d'],N,None,Y,,,,,Y,Y,female,20,
39,6,591,2,2,12,None,Timed out,,Y,['space'],Y,,,,,Y,Y,female,20,
39,7,592,3,3,12,['k'],N,['k'],Y,None,N,,,,,Y,Y,female,20,
39,8,593,14,14,12,['k'],Y,['d'],N,None,Y,,,,,Y,Y,female,20,
39,9,594,13,13,12,['d'],Y,['k'],Y,None,N,,,,,Y,Y,female,20,
39,10,595,8,8,12,['d'],Y,['k'],Y,['space'],Y,,,,,Y,Y,female,20,
39,11,596,8,8,12,['k'],Y,['d'],Y,['space'],Y,,,,,Y,Y,female,20,
39,12,597,9,9,12,['d'],Y,['k'],N,None,Y,,,,,Y,Y,female,20,
39,13,598,5,5,12,['k'],N,['k'],N,None,Y,,,,,Y,Y,female,20,
39,14,599,13,13,12,['k'],Y,['d'],Y,None,N,44,40,25,,Y,Y,female,20,
