.thisRepN,.thisTrialN,.thisN,.thisIndex,.thisTrial,Block Number,Key pressed,Correct?,Category,Int Match?,Int Response,Int Correct?,Line Accuracy,Interference Accuracy,Matching Interferences,New instruction shown?,Buttons switched?,Fast?,gender,age,
0,0,0,11,11,1,None,Timed out,,,,,,,,,,,F,20,
0,1,1,14,14,1,['k'],N,['d'],,,,,,,,,,F,20,
0,2,2,13,13,1,['d'],N,['k'],N,None,Y,,,,,,,F,20,
0,3,3,10,10,1,['k'],Y,['k'],Y,None,N,,,,,,,F,20,
0,4,4,3,3,1,['d'],N,['k'],Y,['space'],Y,,,,,,,F,20,
0,5,5,9,9,1,['k'],Y,['k'],N,None,Y,,,,,,,F,20,
0,6,6,2,2,1,['d'],N,['k'],N,None,Y,,,,,,,F,20,
0,7,7,5,5,1,['k'],Y,['k'],Y,None,N,,,,,,,F,20,
0,8,8,8,8,1,['k'],Y,['k'],N,['space'],N,,,,,,,F,20,
0,9,9,4,4,1,['k'],Y,['k'],N,None,Y,,,,,,,F,20,
0,10,10,10,10,1,['k'],N,['d'],Y,None,N,,,,,,,F,20,
0,11,11,14,14,1,['d'],N,['k'],Y,['space'],Y,,,,,,,F,20,
0,12,12,1,1,1,['k'],N,['d'],Y,None,N,,,,,,,F,20,
0,13,13,9,9,1,['k'],Y,['k'],N,None,Y,,,,,,,F,20,
0,14,14,5,5,1,['k'],Y,['k'],Y,['space'],Y,,,,,,,F,20,
1,0,15,14,14,1,['d'],Y,['d'],Y,['space'],Y,,,,,,,F,20,
1,1,16,1,1,1,['d'],N,['k'],N,None,Y,,,,,,,F,20,
1,2,17,14,14,1,['k'],Y,['k'],N,['space'],N,,,,,,,F,20,
1,3,18,12,12,1,['k'],Y,['k'],N,None,Y,,,,,,,F,20,
1,4,19,7,7,1,['k'],Y,['k'],N,None,Y,,,,,,,F,20,
1,5,20,0,0,1,['k'],Y,['k'],Y,None,N,,,,,,,F,20,
1,6,21,5,5,1,['k'],Y,['k'],N,None,Y,,,,,,,F,20,
1,7,22,0,0,1,['k'],Y,['k'],Y,None,N,,,,,,,F,20,
1,8,23,3,3,1,['k'],N,['d'],N,None,Y,,,,,,,F,20,
1,9,24,5,5,1,['k'],Y,['k'],N,None,Y,,,,,,,F,20,
1,10,25,5,5,1,['k'],N,['d'],N,None,Y,,,,,,,F,20,
1,11,26,11,11,1,['d'],N,['k'],Y,None,N,,,,,,,F,20,
1,12,27,1,1,1,['k'],Y,['k'],Y,['space'],Y,,,,,,,F,20,
1,13,28,14,14,1,['k'],Y,['k'],Y,['space'],Y,,,,,,,F,20,
1,14,29,8,8,1,['k'],Y,['k'],N,['space'],N,,,,,,,F,20,
2,0,30,9,9,1,['k'],N,['d'],Y,['space'],Y,,,,,,,F,20,
2,1,31,12,12,1,['k'],Y,['k'],N,None,Y,,,,,,,F,20,
2,2,32,5,5,1,['k'],N,['d'],Y,['space'],Y,,,,,,,F,20,
2,3,33,6,6,1,['k'],Y,['k'],Y,None,N,,,,,,,F,20,
2,4,34,10,10,1,['k'],N,['d'],N,None,Y,,,,,,,F,20,
2,5,35,4,4,1,['d'],N,['k'],N,None,Y,,,,,,,F,20,
2,6,36,1,1,1,['k'],Y,['k'],N,None,Y,,,,,,,F,20,
2,7,37,3,3,1,['k'],N,['d'],N,None,Y,,,,,,,F,20,
2,8,38,9,9,1,['k'],Y,['k'],N,None,Y,,,,,,,F,20,
2,9,39,0,0,1,['d'],N,['k'],N,None,Y,,,,,,,F,20,
2,10,40,5,5,1,['k'],Y,['k'],Y,['k'],N,,,,,,,F,20,
2,11,41,10,10,1,['k'],Y,['k'],Y,None,N,,,,,,,F,20,
2,12,42,12,12,1,['d'],Y,['d'],N,None,Y,,,,,,,F,20,
2,13,43,7,7,1,['k'],N,['d'],N,None,Y,,,,,,,F,20,
2,14,44,8,8,1,['d'],Y,['d'],Y,None,N,,,,,,,F,20,
3,0,45,7,7,1,['k'],Y,['k'],N,None,Y,,,,,,,F,20,
3,1,46,11,11,1,['k'],Y,['k'],Y,['space'],Y,,,,,,,F,20,
3,2,47,3,3,1,['k'],Y,['k'],Y,['space'],Y,,,,,,,F,20,
3,3,48,14,14,1,['k'],Y,['k'],N,None,Y,,,,,,,F,20,
3,4,49,2,2,1,['k'],N,['d'],Y,None,N,30,33,22,,,,F,20,
3,5,50,10,10,2,['k'],N,['d'],,,,,,,,,,F,20,
3,6,51,13,13,2,['k'],N,['d'],,,,,,,,,,F,20,
3,7,52,12,12,2,['k'],Y,['k'],N,None,Y,,,,,,,F,20,
3,8,53,3,3,2,['k'],N,['d'],N,None,Y,,,,,,,F,20,
3,9,54,6,6,2,['k'],N,['d'],N,None,Y,,,,,,,F,20,
3,10,55,13,13,2,['d'],N,['k'],Y,None,N,,,,,,,F,20,
3,11,56,12,12,2,['k'],N,['d'],Y,None,N,,,,,,,F,20,
3,12,57,7,7,2,['d'],Y,['d'],Y,None,N,,,,,,,F,20,
3,13,58,14,14,2,['d'],N,['k'],Y,None,N,,,,,,,F,20,
3,14,59,4,4,2,['d'],N,['k'],Y,None,N,,,,,,,F,20,
4,0,60,6,6,2,['k'],Y,['k'],N,None,Y,,,,,,,F,20,
4,1,61,12,12,2,['k'],N,['d'],N,None,Y,,,,,,,F,20,
4,2,62,1,1,2,['k'],N,['d'],N,None,Y,,,,,,,F,20,
4,3,63,6,6,2,['d'],Y,['d'],N,None,Y,,,,,,,F,20,
4,4,64,0,0,2,['d'],Y,['d'],N,None,Y,,,,,,,F,20,
4,5,65,13,13,2,['d'],Y,['d'],N,None,Y,,,,,,,F,20,
4,6,66,8,8,2,['k'],Y,['k'],N,None,Y,,,,,,,F,20,
4,7,67,12,12,2,['d'],N,['k'],Y,['space'],Y,,,,,,,F,20,
4,8,68,9,9,2,['k'],N,['d'],Y,['space'],Y,,,,,,,F,20,
4,9,69,3,3,2,['d'],N,['k'],N,None,Y,,,,,,,F,20,
4,10,70,10,10,2,['d'],N,['k'],N,None,Y,,,,,,,F,20,
4,11,71,1,1,2,['d'],N,['k'],N,None,Y,,,,,,,F,20,
4,12,72,11,11,2,['k'],Y,['k'],N,None,Y,,,,,,,F,20,
4,13,73,9,9,2,['k'],N,['d'],N,None,Y,,,,,,,F,20,
4,14,74,7,7,2,['d'],Y,['d'],N,None,Y,,,,,,,F,20,
5,0,75,7,7,2,['d'],Y,['d'],N,None,Y,,,,,,,F,20,
5,1,76,0,0,2,['d'],Y,['d'],N,None,Y,,,,,,,F,20,
5,2,77,3,3,2,['d'],Y,['d'],N,None,Y,,,,,,,F,20,
5,3,78,8,8,2,['d'],N,['k'],N,None,Y,,,,,,,F,20,
5,4,79,2,2,2,['d'],Y,['d'],N,None,Y,,,,,,,F,20,
5,5,80,9,9,2,['d'],Y,['d'],Y,['space'],Y,,,,,,,F,20,
5,6,81,1,1,2,['d'],N,['k'],N,None,Y,,,,,,,F,20,
5,7,82,2,2,2,['d'],Y,['d'],Y,None,N,,,,,,,F,20,
5,8,83,5,5,2,['k'],N,['d'],N,None,Y,,,,,,,F,20,
5,9,84,3,3,2,['d'],N,['k'],N,None,Y,,,,,,,F,20,
5,10,85,2,2,2,['d'],N,['k'],N,None,Y,,,,,,,F,20,
5,11,86,13,13,2,['k'],N,['d'],N,None,Y,,,,,,,F,20,
5,12,87,6,6,2,['d'],Y,['d'],N,None,Y,,,,,,,F,20,
5,13,88,5,5,2,['d'],N,['k'],N,None,Y,,,,,,,F,20,
5,14,89,9,9,2,['d'],N,['k'],Y,None,N,,,,,,,F,20,
6,0,90,2,2,2,['k'],N,['d'],Y,None,N,,,,,,,F,20,
6,1,91,13,13,2,['k'],Y,['k'],N,None,Y,,,,,,,F,20,
6,2,92,13,13,2,['k'],N,['d'],Y,None,N,,,,,,,F,20,
6,3,93,0,0,2,['k'],N,['d'],Y,None,N,,,,,,,F,20,
6,4,94,2,2,2,['k'],Y,['k'],N,None,Y,,,,,,,F,20,
6,5,95,10,10,2,['k'],N,['d'],Y,None,N,,,,,,,F,20,
6,6,96,14,14,2,['k'],N,['d'],Y,None,N,,,,,,,F,20,
6,7,97,0,0,2,['d'],N,['k'],N,None,Y,,,,,,,F,20,
6,8,98,11,11,2,['k'],N,['d'],Y,['space'],Y,,,,,,,F,20,
6,9,99,11,11,2,['d'],Y,['d'],N,None,Y,19,36,16,,,,F,20,
6,10,100,10,10,3,['d'],N,['k'],,,,,,,,,,F,20,
6,11,101,4,4,3,['k'],N,['d'],,,,,,,,,,F,20,
6,12,102,8,8,3,['d'],N,['k'],N,None,Y,,,,,,,F,20,
6,13,103,7,7,3,['d'],Y,['d'],N,None,Y,,,,,,,F,20,
6,14,104,0,0,3,['k'],N,['d'],N,None,Y,,,,,,,F,20,
7,0,105,6,6,3,['d'],Y,['d'],Y,None,N,,,,,,,F,20,
7,1,106,13,13,3,['d'],N,['k'],Y,None,N,,,,,,,F,20,
7,2,107,13,13,3,['d'],Y,['d'],N,None,Y,,,,,,,F,20,
7,3,108,14,14,3,['k'],Y,['k'],N,None,Y,,,,,,,F,20,
7,4,109,11,11,3,['d'],Y,['d'],Y,None,N,,,,,,,F,20,
7,5,110,8,8,3,['k'],N,['d'],Y,None,N,,,,,,,F,20,
7,6,111,0,0,3,['k'],N,['d'],Y,['space'],Y,,,,,,,F,20,
7,7,112,12,12,3,['d'],N,['k'],Y,['space'],Y,,,,,,,F,20,
7,8,113,2,2,3,['d'],Y,['d'],N,None,Y,,,,,,,F,20,
7,9,114,1,1,3,['k'],N,['d'],N,None,Y,,,,,,,F,20,
7,10,115,1,1,3,['d'],Y,['d'],N,None,Y,,,,,,,F,20,
7,11,116,12,12,3,['d'],N,['k'],N,None,Y,,,,,,,F,20,
7,12,117,11,11,3,['k'],N,['d'],Y,['space'],Y,,,,,,,F,20,
7,13,118,8,8,3,['k'],Y,['k'],Y,None,N,,,,,,,F,20,
7,14,119,4,4,3,['k'],Y,['k'],N,['space'],N,,,,,,,F,20,
8,0,120,10,10,3,['d'],Y,['d'],N,None,Y,,,,,,,F,20,
8,1,121,7,7,3,['d'],N,['k'],N,None,Y,,,,,,,F,20,
8,2,122,10,10,3,['k'],N,['d'],N,None,Y,,,,,,,F,20,
8,3,123,2,2,3,['k'],Y,['k'],Y,None,N,,,,,,,F,20,
8,4,124,0,0,3,['k'],N,['d'],N,None,Y,,,,,,,F,20,
8,5,125,12,12,3,['d'],N,['k'],Y,None,N,,,,,,,F,20,
8,6,126,9,9,3,['d'],N,['k'],N,None,Y,,,,,,,F,20,
8,7,127,2,2,3,['k'],Y,['k'],N,None,Y,,,,,,,F,20,
8,8,128,4,4,3,['k'],N,['d'],Y,None,N,,,,,,,F,20,
8,9,129,11,11,3,['k'],Y,['k'],Y,None,N,,,,,,,F,20,
8,10,130,7,7,3,['d'],N,['k'],Y,None,N,,,,,,,F,20,
8,11,131,12,12,3,['k'],N,['d'],Y,['space'],Y,,,,,,,F,20,
8,12,132,10,10,3,['d'],Y,['d'],Y,['space'],Y,,,,,,,F,20,
8,13,133,6,6,3,['d'],N,['k'],N,None,Y,,,,,,,F,20,
8,14,134,7,7,3,['d'],Y,['d'],N,None,Y,,,,,,,F,20,
9,0,135,5,5,3,['k'],N,['d'],Y,['space'],Y,,,,,,,F,20,
9,1,136,8,8,3,['k'],N,['d'],N,None,Y,,,,,,,F,20,
9,2,137,10,10,3,['d'],N,['k'],N,None,Y,,,,,,,F,20,
9,3,138,10,10,3,['d'],N,['k'],N,None,Y,,,,,,,F,20,
9,4,139,4,4,3,['k'],N,['d'],Y,['space'],Y,,,,,,,F,20,
9,5,140,1,1,3,['d'],N,['k'],Y,['space'],Y,,,,,,,F,20,
9,6,141,6,6,3,['k'],N,['d'],Y,['space'],Y,,,,,,,F,20,
9,7,142,12,12,3,['d'],Y,['d'],Y,['space'],Y,,,,,,,F,20,
9,8,143,10,10,3,['d'],N,['k'],N,None,Y,,,,,,,F,20,
9,9,144,6,6,3,['d'],Y,['d'],Y,['space'],Y,,,,,,,F,20,
9,10,145,9,9,3,['d'],N,['k'],Y,None,N,,,,,,,F,20,
9,11,146,1,1,3,['d'],N,['k'],N,None,Y,,,,,,,F,20,
9,12,147,3,3,3,['d'],N,['k'],N,None,Y,,,,,,,F,20,
9,13,148,2,2,3,['k'],Y,['k'],N,None,Y,,,,,,,F,20,
9,14,149,7,7,3,['k'],Y,['k'],Y,None,N,19,35,23,,,,F,20,
10,0,150,8,8,4,['k'],Y,['k'],,,,,,,,,,F,20,
10,1,151,8,8,4,['d'],Y,['d'],,,,,,,,,,F,20,
10,2,152,11,11,4,['d'],Y,['d'],Y,['space'],Y,,,,,,,F,20,
10,3,153,10,10,4,['k'],N,['d'],Y,['space'],Y,,,,,,,F,20,
10,4,154,3,3,4,['d'],Y,['d'],Y,['space'],Y,,,,,,,F,20,
10,5,155,12,12,4,['d'],N,['k'],Y,['space'],Y,,,,,,,F,20,
10,6,156,10,10,4,['d'],Y,['d'],N,None,Y,,,,,,,F,20,
10,7,157,1,1,4,['k'],Y,['k'],Y,['space'],Y,,,,,,,F,20,
10,8,158,3,3,4,['k'],Y,['k'],Y,['space'],Y,,,,,,,F,20,
10,9,159,8,8,4,['k'],Y,['k'],N,None,Y,,,,,,,F,20,
10,10,160,10,10,4,['k'],N,['d'],N,None,Y,,,,,,,F,20,
10,11,161,9,9,4,['k'],Y,['k'],Y,['space'],Y,,,,,,,F,20,
10,12,162,12,12,4,['k'],N,['d'],N,None,Y,,,,,,,F,20,
10,13,163,10,10,4,['d'],Y,['d'],Y,None,N,,,,,,,F,20,
10,14,164,6,6,4,['d'],N,['k'],N,['space'],N,,,,,,,F,20,
11,0,165,0,0,4,['k'],Y,['k'],N,None,Y,,,,,,,F,20,
11,1,166,5,5,4,['k'],Y,['k'],Y,None,N,,,,,,,F,20,
11,2,167,12,12,4,['k'],Y,['k'],Y,['space'],Y,,,,,,,F,20,
11,3,168,0,0,4,['d'],Y,['d'],N,None,Y,,,,,,,F,20,
11,4,169,4,4,4,['d'],N,['k'],N,None,Y,,,,,,,F,20,
11,5,170,0,0,4,['k'],N,['d'],N,None,Y,,,,,,,F,20,
11,6,171,6,6,4,['k'],Y,['k'],N,None,Y,,,,,,,F,20,
11,7,172,8,8,4,['d'],N,['k'],N,None,Y,,,,,,,F,20,
11,8,173,6,6,4,['d'],Y,['d'],N,None,Y,,,,,,,F,20,
11,9,174,1,1,4,['k'],Y,['k'],N,None,Y,,,,,,,F,20,
11,10,175,7,7,4,['k'],N,['d'],Y,['space'],Y,,,,,,,F,20,
11,11,176,11,11,4,['d'],N,['k'],N,None,Y,,,,,,,F,20,
11,12,177,6,6,4,['d'],Y,['d'],N,None,Y,,,,,,,F,20,
11,13,178,1,1,4,['k'],N,['d'],N,None,Y,,,,,,,F,20,
11,14,179,4,4,4,['k'],Y,['k'],N,None,Y,,,,,,,F,20,
12,0,180,6,6,4,['k'],N,['d'],N,['space'],N,,,,,,,F,20,
12,1,181,7,7,4,['d'],Y,['d'],N,['space'],N,,,,,,,F,20,
12,2,182,12,12,4,['d'],N,['k'],N,None,Y,,,,,,,F,20,
12,3,183,0,0,4,['d'],N,['k'],Y,None,N,,,,,,,F,20,
12,4,184,11,11,4,['d'],N,['k'],Y,['space'],Y,,,,,,,F,20,
12,5,185,1,1,4,['d'],Y,['d'],N,None,Y,,,,,,,F,20,
12,6,186,3,3,4,['k'],Y,['k'],Y,None,N,,,,,,,F,20,
12,7,187,8,8,4,['k'],Y,['k'],N,None,Y,,,,,,,F,20,
12,8,188,10,10,4,['k'],N,['d'],Y,None,N,,,,,,,F,20,
12,9,189,3,3,4,['k'],Y,['k'],N,None,Y,,,,,,,F,20,
12,10,190,14,14,4,['d'],Y,['d'],Y,['space'],Y,,,,,,,F,20,
12,11,191,7,7,4,['d'],Y,['d'],N,['space'],N,,,,,,,F,20,
12,12,192,14,14,4,['k'],N,['d'],N,['space'],N,,,,,,,F,20,
12,13,193,3,3,4,['d'],Y,['d'],Y,None,N,,,,,,,F,20,
12,14,194,9,9,4,['k'],Y,['k'],Y,None,N,,,,,,,F,20,
13,0,195,0,0,4,['k'],N,['d'],Y,None,N,,,,,,,F,20,
13,1,196,7,7,4,['k'],N,['d'],Y,None,N,,,,,,,F,20,
13,2,197,9,9,4,['d'],Y,['d'],N,None,Y,,,,,,,F,20,
13,3,198,11,11,4,['k'],Y,['k'],Y,None,N,,,,,,,F,20,
13,4,199,4,4,4,['k'],N,['d'],Y,None,N,30,32,22,,,,F,20,
13,5,200,1,1,5,['d'],N,['k'],,,,,,,,,,F,20,
13,6,201,2,2,5,['k'],N,['d'],,,,,,,,,,F,20,
13,7,202,4,4,5,['d'],N,['k'],N,None,Y,,,,,,,F,20,
13,8,203,12,12,5,['k'],Y,['k'],N,None,Y,,,,,,,F,20,
13,9,204,3,3,5,['d'],N,['k'],Y,['space'],Y,,,,,,,F,20,
13,10,205,4,4,5,['d'],Y,['d'],N,None,Y,,,,,,,F,20,
13,11,206,7,7,5,['k'],Y,['k'],N,None,Y,,,,,,,F,20,
13,12,207,13,13,5,['k'],N,['d'],Y,None,N,,,,,,,F,20,
13,13,208,4,4,5,['d'],Y,['d'],N,['space'],N,,,,,,,F,20,
13,14,209,1,1,5,['d'],Y,['d'],N,None,Y,,,,,,,F,20,
14,0,210,11,11,5,['d'],N,['k'],N,None,Y,,,,,,,F,20,
14,1,211,5,5,5,['k'],N,['d'],Y,['space'],Y,,,,,,,F,20,
14,2,212,10,10,5,['d'],Y,['d'],Y,None,N,,,,,,,F,20,
14,3,213,5,5,5,['k'],N,['d'],Y,None,N,,,,,,,F,20,
14,4,214,14,14,5,['d'],N,['k'],N,None,Y,,,,,,,F,20,
14,5,215,0,0,5,['k'],Y,['k'],N,None,Y,,,,,,,F,20,
14,6,216,0,0,5,['d'],N,['k'],N,None,Y,,,,,,,F,20,
14,7,217,7,7,5,['k'],N,['d'],N,None,Y,,,,,,,F,20,
14,8,218,4,4,5,['d'],Y,['d'],N,None,Y,,,,,,,F,20,
14,9,219,10,10,5,['d'],N,['k'],N,None,Y,,,,,,,F,20,
14,10,220,2,2,5,['d'],N,['k'],Y,None,N,,,,,,,F,20,
14,11,221,2,2,5,['k'],N,['d'],N,None,Y,,,,,,,F,20,
14,12,222,14,14,5,['d'],Y,['d'],Y,['space'],Y,,,,,,,F,20,
14,13,223,0,0,5,['k'],N,['d'],Y,['space'],Y,,,,,,,F,20,
14,14,224,11,11,5,['k'],Y,['k'],Y,['space'],Y,,,,,,,F,20,
15,0,225,10,10,5,['d'],N,['k'],N,None,Y,,,,,,,F,20,
15,1,226,14,14,5,['k'],Y,['k'],N,['space'],N,,,,,,,F,20,
15,2,227,8,8,5,['k'],N,['d'],N,None,Y,,,,,,,F,20,
15,3,228,4,4,5,['k'],Y,['k'],N,None,Y,,,,,,,F,20,
15,4,229,1,1,5,['k'],N,['d'],Y,None,N,,,,,,,F,20,
15,5,230,5,5,5,['d'],Y,['d'],Y,None,N,,,,,,,F,20,
15,6,231,14,14,5,['k'],Y,['k'],Y,['space'],Y,,,,,,,F,20,
15,7,232,7,7,5,['k'],N,['d'],N,None,Y,,,,,,,F,20,
15,8,233,11,11,5,None,Timed out,,N,None,Y,,,,,,,F,20,
15,9,234,3,3,5,['k'],Y,['k'],Y,None,N,,,,,,,F,20,
15,10,235,11,11,5,['k'],Y,['k'],Y,None,N,,,,,,,F,20,
15,11,236,8,8,5,['d'],Y,['d'],Y,None,N,,,,,,,F,20,
15,12,237,7,7,5,['k'],N,['d'],N,None,Y,,,,,,,F,20,
15,13,238,3,3,5,['d'],Y,['d'],Y,['space'],Y,,,,,,,F,20,
15,14,239,4,4,5,['k'],Y,['k'],N,None,Y,,,,,,,F,20,
16,0,240,10,10,5,['d'],Y,['d'],N,None,Y,,,,,,,F,20,
16,1,241,14,14,5,['k'],N,['d'],Y,['space'],Y,,,,,,,F,20,
16,2,242,11,11,5,['d'],Y,['d'],Y,['space'],Y,,,,,,,F,20,
16,3,243,9,9,5,['d'],N,['k'],N,None,Y,,,,,,,F,20,
16,4,244,4,4,5,['k'],Y,['k'],N,None,Y,,,,,,,F,20,
16,5,245,12,12,5,['k'],N,['d'],N,None,Y,,,,,,,F,20,
16,6,246,7,7,5,['k'],N,['d'],N,None,Y,,,,,,,F,20,
16,7,247,0,0,5,None,Timed out,,N,None,Y,,,,,,,F,20,
16,8,248,11,11,5,['k'],N,['d'],N,None,Y,,,,,,,F,20,
16,9,249,4,4,5,['d'],N,['k'],Y,None,N,22,36,19,,,,F,20,
16,10,250,9,9,6,['d'],Y,['d'],,,,,,,,,,F,20,
16,11,251,6,6,6,['k'],N,['d'],,,,,,,,,,F,20,
16,12,252,8,8,6,['k'],N,['d'],Y,['space'],Y,,,,,,,F,20,
16,13,253,10,10,6,['d'],N,['k'],N,['space'],N,,,,,,,F,20,
16,14,254,2,2,6,None,Timed out,,Y,None,N,,,,,,,F,20,
17,0,255,5,5,6,['d'],Y,['d'],Y,None,N,,,,,,,F,20,
17,1,256,0,0,6,['d'],Y,['d'],N,None,Y,,,,,,,F,20,
17,2,257,8,8,6,['k'],N,['d'],N,['space'],N,,,,,,,F,20,
17,3,258,0,0,6,['d'],Y,['d'],Y,None,N,,,,,,,F,20,
17,4,259,6,6,6,['d'],Y,['d'],N,None,Y,,,,,,,F,20,
17,5,260,8,8,6,['k'],N,['d'],Y,None,N,,,,,,,F,20,
17,6,261,14,14,6,['d'],Y,['d'],N,None,Y,,,,,,,F,20,
17,7,262,10,10,6,['d'],Y,['d'],N,None,Y,,,,,,,F,20,
17,8,263,6,6,6,['k'],Y,['k'],N,None,Y,,,,,,,F,20,
17,9,264,4,4,6,['d'],Y,['d'],Y,['space'],Y,,,,,,,F,20,
17,10,265,8,8,6,['k'],N,['d'],N,None,Y,,,,,,,F,20,
17,11,266,1,1,6,['d'],N,['k'],N,None,Y,,,,,,,F,20,
17,12,267,5,5,6,['k'],N,['d'],N,None,Y,,,,,,,F,20,
17,13,268,9,9,6,['d'],Y,['d'],N,None,Y,,,,,,,F,20,
17,14,269,1,1,6,['d'],Y,['d'],Y,['space'],Y,,,,,,,F,20,
18,0,270,14,14,6,['k'],Y,['k'],Y,None,N,,,,,,,F,20,
18,1,271,4,4,6,['d'],N,['k'],Y,None,N,,,,,,,F,20,
18,2,272,8,8,6,['d'],Y,['d'],Y,['space'],Y,,,,,,,F,20,
18,3,273,14,14,6,None,Timed out,,N,None,Y,,,,,,,F,20,
18,4,274,7,7,6,['d'],Y,['d'],Y,None,N,,,,,,,F,20,
18,5,275,4,4,6,None,Timed out,,Y,None,N,,,,,,,F,20,
18,6,276,11,11,6,['k'],N,['d'],Y,None,N,,,,,,,F,20,
18,7,277,7,7,6,['d'],Y,['d'],N,None,Y,,,,,,,F,20,
18,8,278,8,8,6,['d'],Y,['d'],Y,['k'],N,,,,,,,F,20,
18,9,279,1,1,6,['d'],N,['k'],N,None,Y,,,,,,,F,20,
18,10,280,9,9,6,['d'],N,['k'],N,None,Y,,,,,,,F,20,
18,11,281,4,4,6,['d'],Y,['d'],Y,None,N,,,,,,,F,20,
18,12,282,7,7,6,['k'],N,['d'],N,None,Y,,,,,,,F,20,
18,13,283,9,9,6,['d'],Y,['d'],Y,None,N,,,,,,,F,20,
18,14,284,13,13,6,['d'],Y,['d'],N,None,Y,,,,,,,F,20,
19,0,285,11,11,6,['d'],Y,['d'],Y,['space'],Y,,,,,,,F,20,
19,1,286,2,2,6,['k'],N,['d'],N,None,Y,,,,,,,F,20,
19,2,287,0,0,6,['d'],N,['k'],Y,None,N,,,,,,,F,20,
19,3,288,8,8,6,None,Timed out,,N,None,Y,,,,,,,F,20,
19,4,289,5,5,6,['d'],Y,['d'],Y,None,N,,,,,,,F,20,
19,5,290,3,3,6,['d'],Y,['d'],N,None,Y,,,,,,,F,20,
19,6,291,11,11,6,['k'],N,['d'],N,None,Y,,,,,,,F,20,
19,7,292,5,5,6,['d'],Y,['d'],N,None,Y,,,,,,,F,20,
19,8,293,8,8,6,['d'],Y,['d'],N,None,Y,,,,,,,F,20,
19,9,294,13,13,6,['d'],N,['k'],Y,None,N,,,,,,,F,20,
19,10,295,13,13,6,['d'],Y,['d'],Y,['space'],Y,,,,,,,F,20,
19,11,296,13,13,6,['d'],Y,['d'],N,['space'],N,,,,,,,F,20,
19,12,297,3,3,6,['d'],N,['k'],Y,['space'],Y,,,,,,,F,20,
19,13,298,13,13,6,['d'],Y,['d'],N,None,Y,,,,,,,F,20,
19,14,299,10,10,6,['d'],N,['k'],N,None,Y,27,30,22,,,,F,20,
20,0,300,2,2,7,['d'],Y,['d'],,,,,,,,,,F,20,
20,1,301,10,10,7,['k'],N,['d'],,,,,,,,,,F,20,
20,2,302,14,14,7,['d'],N,['k'],N,None,Y,,,,,,,F,20,
20,3,303,3,3,7,['d'],Y,['d'],Y,['space'],Y,,,,,,,F,20,
20,4,304,7,7,7,['d'],Y,['d'],Y,['space'],Y,,,,,,,F,20,
20,5,305,14,14,7,['d'],Y,['d'],N,['space'],N,,,,,,,F,20,
20,6,306,5,5,7,['d'],Y,['d'],Y,None,N,,,,,,,F,20,
20,7,307,8,8,7,['d'],Y,['d'],N,None,Y,,,,,,,F,20,
20,8,308,5,5,7,['d'],N,['k'],Y,None,N,,,,,,,F,20,
20,9,309,11,11,7,['k'],Y,['k'],N,None,Y,,,,,,,F,20,
20,10,310,2,2,7,['d'],Y,['d'],Y,None,N,,,,,,,F,20,
20,11,311,5,5,7,['d'],N,['k'],Y,None,N,,,,,,,F,20,
20,12,312,1,1,7,['d'],N,['k'],N,None,Y,,,,,,,F,20,
20,13,313,11,11,7,['k'],Y,['k'],Y,['space'],Y,,,,,,,F,20,
20,14,314,13,13,7,['k'],Y,['k'],N,['space'],N,,,,,,,F,20,
21,0,315,0,0,7,['d'],Y,['d'],N,None,Y,,,,,,,F,20,
21,1,316,2,2,7,['d'],N,['k'],N,None,Y,,,,,,,F,20,
21,2,317,0,0,7,['k'],Y,['k'],Y,None,N,,,,,,,F,20,
21,3,318,13,13,7,['d'],Y,['d'],N,None,Y,,,,,,,F,20,
21,4,319,11,11,7,['d'],N,['k'],N,None,Y,,,,,,,F,20,
21,5,320,6,6,7,['k'],N,['d'],N,None,Y,,,,,,,F,20,
21,6,321,5,5,7,['d'],N,['k'],N,['space'],N,,,,,,,F,20,
21,7,322,8,8,7,['d'],N,['k'],N,None,Y,,,,,,,F,20,
21,8,323,14,14,7,['d'],N,['k'],N,None,Y,,,,,,,F,20,
21,9,324,4,4,7,['k'],Y,['k'],Y,['space'],Y,,,,,,,F,20,
21,10,325,7,7,7,['k'],N,['d'],N,None,Y,,,,,,,F,20,
21,11,326,6,6,7,['d'],N,['k'],Y,None,N,,,,,,,F,20,
21,12,327,8,8,7,['k'],N,['d'],N,None,Y,,,,,,,F,20,
21,13,328,5,5,7,['d'],Y,['d'],Y,['space'],Y,,,,,,,F,20,
21,14,329,12,12,7,['d'],Y,['d'],N,None,Y,,,,,,,F,20,
22,0,330,8,8,7,['k'],N,['d'],N,['space'],N,,,,,,,F,20,
22,1,331,6,6,7,['d'],Y,['d'],N,['space'],N,,,,,,,F,20,
22,2,332,9,9,7,None,Timed out,,Y,None,N,,,,,,,F,20,
22,3,333,2,2,7,['d'],N,['k'],Y,None,N,,,,,,,F,20,
22,4,334,6,6,7,['k'],N,['d'],Y,None,N,,,,,,,F,20,
22,5,335,5,5,7,None,Timed out,,N,None,Y,,,,,,,F,20,
22,6,336,13,13,7,['d'],Y,['d'],N,None,Y,,,,,,,F,20,
22,7,337,14,14,7,['d'],Y,['d'],Y,None,N,,,,,,,F,20,
22,8,338,7,7,7,['d'],N,['k'],N,None,Y,,,,,,,F,20,
22,9,339,3,3,7,['d'],N,['k'],N,None,Y,,,,,,,F,20,
22,10,340,4,4,7,['d'],N,['k'],N,None,Y,,,,,,,F,20,
22,11,341,5,5,7,['k'],Y,['k'],N,None,Y,,,,,,,F,20,
22,12,342,10,10,7,['d'],Y,['d'],Y,None,N,,,,,,,F,20,
22,13,343,3,3,7,['d'],N,['k'],N,None,Y,,,,,,,F,20,
22,14,344,8,8,7,['k'],Y,['k'],Y,['space'],Y,,,,,,,F,20,
23,0,345,6,6,7,['d'],N,['k'],N,None,Y,,,,,,,F,20,
23,1,346,9,9,7,['k'],Y,['k'],Y,['space'],Y,,,,,,,F,20,
23,2,347,13,13,7,['d'],N,['k'],N,None,Y,,,,,,,F,20,
23,3,348,5,5,7,['d'],N,['k'],Y,None,N,,,,,,,F,20,
23,4,349,12,12,7,['d'],Y,['d'],Y,None,N,24,30,20,,,,F,20,
23,5,350,14,14,8,['k'],Y,['k'],,,,,,,,,,F,20,
23,6,351,12,12,8,['k'],N,['d'],,,,,,,,,,F,20,
23,7,352,6,6,8,['k'],N,['d'],N,None,Y,,,,,,,F,20,
23,8,353,2,2,8,['d'],N,['k'],Y,None,N,,,,,,,F,20,
23,9,354,12,12,8,['k'],Y,['k'],Y,None,N,,,,,,,F,20,
23,10,355,4,4,8,['k'],N,['d'],Y,None,N,,,,,,,F,20,
23,11,356,7,7,8,None,Timed out,,N,None,Y,,,,,,,F,20,
23,12,357,9,9,8,['d'],Y,['d'],N,None,Y,,,,,,,F,20,
23,13,358,9,9,8,['d'],N,['k'],Y,None,N,,,,,,,F,20,
23,14,359,3,3,8,['k'],N,['d'],Y,None,N,,,,,,,F,20,
24,0,360,2,2,8,['d'],Y,['d'],Y,None,N,,,,,,,F,20,
24,1,361,12,12,8,['d'],Y,['d'],Y,['space'],Y,,,,,,,F,20,
24,2,362,13,13,8,['d'],Y,['d'],N,None,Y,,,,,,,F,20,
24,3,363,12,12,8,['k'],N,['d'],Y,['space'],Y,,,,,,,F,20,
24,4,364,13,13,8,None,Timed out,,Y,None,N,,,,,,,F,20,
24,5,365,6,6,8,['d'],N,['k'],N,None,Y,,,,,,,F,20,
24,6,366,4,4,8,['k'],Y,['k'],N,None,Y,,,,,,,F,20,
24,7,367,1,1,8,['d'],N,['k'],N,None,Y,,,,,,,F,20,
24,8,368,3,3,8,['k'],Y,['k'],Y,None,N,,,,,,,F,20,
24,9,369,12,12,8,['k'],N,['d'],N,None,Y,,,,,,,F,20,
24,10,370,14,14,8,['d'],Y,['d'],Y,['space'],Y,,,,,,,F,20,
24,11,371,6,6,8,['k'],Y,['k'],Y,None,N,,,,,,,F,20,
24,12,372,0,0,8,['k'],Y,['k'],Y,None,N,,,,,,,F,20,
24,13,373,6,6,8,['k'],N,['d'],N,None,Y,,,,,,,F,20,
24,14,374,8,8,8,['d'],N,['k'],Y,None,N,,,,,,,F,20,
25,0,375,13,13,8,['d'],N,['k'],Y,None,N,,,,,,,F,20,
25,1,376,3,3,8,['k'],N,['d'],N,None,Y,,,,,,,F,20,
25,2,377,8,8,8,['k'],Y,['k'],Y,['space'],Y,,,,,,,F,20,
25,3,378,8,8,8,['d'],Y,['d'],N,None,Y,,,,,,,F,20,
25,4,379,8,8,8,['d'],N,['k'],Y,None,N,,,,,,,F,20,
25,5,380,9,9,8,['k'],N,['d'],N,None,Y,,,,,,,F,20,
25,6,381,14,14,8,['d'],N,['k'],Y,['space'],Y,,,,,,,F,20,
25,7,382,7,7,8,['k'],Y,['k'],Y,None,N,,,,,,,F,20,
25,8,383,3,3,8,['k'],Y,['k'],N,None,Y,,,,,,,F,20,
25,9,384,12,12,8,['d'],N,['k'],Y,None,N,,,,,,,F,20,
25,10,385,5,5,8,['k'],N,['d'],N,None,Y,,,,,,,F,20,
25,11,386,9,9,8,['d'],Y,['d'],Y,None,N,,,,,,,F,20,
25,12,387,14,14,8,['d'],Y,['d'],N,None,Y,,,,,,,F,20,
25,13,388,7,7,8,['d'],Y,['d'],N,None,Y,,,,,,,F,20,
25,14,389,12,12,8,['k'],Y,['k'],N,None,Y,,,,,,,F,20,
26,0,390,11,11,8,['d'],N,['k'],Y,['space'],Y,,,,,,,F,20,
26,1,391,4,4,8,['d'],N,['k'],N,None,Y,,,,,,,F,20,
26,2,392,1,1,8,['k'],N,['d'],Y,['space'],Y,,,,,,,F,20,
26,3,393,1,1,8,['d'],N,['k'],Y,None,N,,,,,,,F,20,
26,4,394,0,0,8,['k'],N,['d'],Y,None,N,,,,,,,F,20,
26,5,395,9,9,8,['d'],N,['k'],N,None,Y,,,,,,,F,20,
26,6,396,4,4,8,['k'],N,['d'],N,None,Y,,,,,,,F,20,
26,7,397,1,1,8,['d'],Y,['d'],N,None,Y,,,,,,,F,20,
26,8,398,0,0,8,['k'],Y,['k'],N,None,Y,,,,,,,F,20,
26,9,399,4,4,8,['k'],N,['d'],N,None,Y,21,30,25,,,,F,20,
26,10,400,4,4,9,['k'],N,['d'],,,,,,,,,,F,20,
26,11,401,14,14,9,['d'],N,['k'],,,,,,,,,,F,20,
26,12,402,1,1,9,['d'],Y,['d'],N,['space'],N,,,,,,,F,20,
26,13,403,11,11,9,['d'],Y,['d'],Y,['space'],Y,,,,,,,F,20,
26,14,404,9,9,9,['k'],Y,['k'],N,None,Y,,,,,,,F,20,
27,0,405,2,2,9,['k'],N,['d'],N,None,Y,,,,,,,F,20,
27,1,406,3,3,9,['d'],N,['k'],Y,None,N,,,,,,,F,20,
27,2,407,9,9,9,['k'],N,['d'],N,['space'],N,,,,,,,F,20,
27,3,408,2,2,9,['d'],N,['k'],Y,None,N,,,,,,,F,20,
27,4,409,0,0,9,['k'],Y,['k'],Y,None,N,,,,,,,F,20,
27,5,410,4,4,9,['d'],Y,['d'],Y,None,N,,,,,,,F,20,
27,6,411,13,13,9,['d'],Y,['d'],Y,None,N,,,,,,,F,20,
27,7,412,13,13,9,['d'],N,['k'],N,None,Y,,,,,,,F,20,
27,8,413,14,14,9,['k'],N,['d'],N,None,Y,,,,,,,F,20,
27,9,414,6,6,9,['d'],N,['k'],Y,None,N,,,,,,,F,20,
27,10,415,9,9,9,['k'],N,['d'],Y,None,N,,,,,,,F,20,
27,11,416,5,5,9,['d'],N,['k'],Y,None,N,,,,,,,F,20,
27,12,417,10,10,9,['k'],N,['d'],Y,None,N,,,,,,,F,20,
27,13,418,3,3,9,['d'],N,['k'],N,None,Y,,,,,,,F,20,
27,14,419,1,1,9,['k'],Y,['k'],N,None,Y,,,,,,,F,20,
28,0,420,13,13,9,['k'],N,['d'],N,['space'],N,,,,,,,F,20,
28,1,421,8,8,9,['d'],N,['k'],Y,None,N,,,,,,,F,20,
28,2,422,4,4,9,['d'],Y,['d'],Y,['space'],Y,,,,,,,F,20,
28,3,423,12,12,9,['d'],Y,['d'],N,None,Y,,,,,,,F,20,
28,4,424,7,7,9,['d'],Y,['d'],N,None,Y,,,,,,,F,20,
28,5,425,10,10,9,['k'],Y,['k'],N,None,Y,,,,,,,F,20,
28,6,426,14,14,9,['d'],N,['k'],N,None,Y,,,,,,,F,20,
28,7,427,1,1,9,['d'],Y,['d'],Y,None,N,,,,,,,F,20,
28,8,428,1,1,9,['k'],Y,['k'],Y,None,N,,,,,,,F,20,
28,9,429,4,4,9,['d'],Y,['d'],Y,None,N,,,,,,,F,20,
28,10,430,6,6,9,['d'],Y,['d'],N,None,Y,,,,,,,F,20,
28,11,431,7,7,9,['k'],Y,['k'],Y,None,N,,,,,,,F,20,
28,12,432,11,11,9,['k'],N,['d'],N,None,Y,,,,,,,F,20,
28,13,433,8,8,9,['k'],Y,['k'],Y,None,N,,,,,,,F,20,
28,14,434,4,4,9,['d'],N,['k'],N,None,Y,,,,,,,F,20,
29,0,435,6,6,9,['k'],Y,['k'],N,None,Y,,,,,,,F,20,
29,1,436,6,6,9,['d'],Y,['d'],Y,None,N,,,,,,,F,20,
29,2,437,14,14,9,['d'],N,['k'],N,None,Y,,,,,,,F,20,
29,3,438,14,14,9,['k'],N,['d'],N,None,Y,,,,,,,F,20,
29,4,439,7,7,9,['d'],N,['k'],N,None,Y,,,,,,,F,20,
29,5,440,1,1,9,['k'],N,['d'],N,None,Y,,,,,,,F,20,
29,6,441,2,2,9,['k'],Y,['k'],N,None,Y,,,,,,,F,20,
29,7,442,13,13,9,['d'],Y,['d'],N,None,Y,,,,,,,F,20,
29,8,443,3,3,9,['k'],Y,['k'],Y,None,N,,,,,,,F,20,
29,9,444,9,9,9,['k'],N,['d'],N,None,Y,,,,,,,F,20,
29,10,445,7,7,9,['d'],Y,['d'],N,None,Y,,,,,,,F,20,
29,11,446,11,11,9,['k'],N,['d'],N,None,Y,,,,,,,F,20,
29,12,447,9,9,9,['d'],Y,['d'],Y,None,N,,,,,,,F,20,
29,13,448,9,9,9,['d'],N,['k'],Y,None,N,,,,,,,F,20,
29,14,449,10,10,9,['k'],Y,['k'],Y,None,N,25,25,22,,,,F,20,
30,0,450,3,3,10,['d'],N,['k'],,,,,,,,,,F,20,
30,1,451,7,7,10,['k'],Y,['k'],,,,,,,,,,F,20,
30,2,452,5,5,10,['k'],N,['d'],Y,['space'],Y,,,,,,,F,20,
30,3,453,0,0,10,['k'],N,['d'],N,None,Y,,,,,,,F,20,
30,4,454,10,10,10,['d'],N,['k'],Y,['space'],Y,,,,,,,F,20,
30,5,455,11,11,10,['k'],N,['d'],N,None,Y,,,,,,,F,20,
30,6,456,1,1,10,['d'],N,['k'],N,['space'],N,,,,,,,F,20,
30,7,457,7,7,10,['k'],Y,['k'],Y,None,N,,,,,,,F,20,
30,8,458,3,3,10,['d'],Y,['d'],Y,None,N,,,,,,,F,20,
30,9,459,9,9,10,['d'],Y,['d'],N,None,Y,,,,,,,F,20,
30,10,460,3,3,10,['k'],N,['d'],Y,None,N,,,,,,,F,20,
30,11,461,5,5,10,['d'],N,['k'],Y,None,N,,,,,,,F,20,
30,12,462,6,6,10,['k'],N,['d'],Y,None,N,,,,,,,F,20,
30,13,463,2,2,10,['d'],N,['k'],N,None,Y,,,,,,,F,20,
30,14,464,11,11,10,['k'],Y,['k'],N,None,Y,,,,,,,F,20,
31,0,465,9,9,10,['k'],Y,['k'],Y,None,N,,,,,,,F,20,
31,1,466,12,12,10,['d'],N,['k'],N,None,Y,,,,,,,F,20,
31,2,467,14,14,10,['k'],Y,['k'],N,None,Y,,,,,,,F,20,
31,3,468,0,0,10,['k'],N,['d'],Y,['space'],Y,,,,,,,F,20,
31,4,469,3,3,10,['k'],N,['d'],N,None,Y,,,,,,,F,20,
31,5,470,6,6,10,['d'],N,['k'],N,None,Y,,,,,,,F,20,
31,6,471,2,2,10,['k'],Y,['k'],Y,None,N,,,,,,,F,20,
31,7,472,1,1,10,['d'],Y,['d'],Y,['space'],Y,,,,,,,F,20,
31,8,473,3,3,10,['k'],N,['d'],N,None,Y,,,,,,,F,20,
31,9,474,2,2,10,['d'],Y,['d'],Y,['space'],Y,,,,,,,F,20,
31,10,475,14,14,10,['d'],N,['k'],Y,['space'],Y,,,,,,,F,20,
31,11,476,10,10,10,['k'],N,['d'],Y,None,N,,,,,,,F,20,
31,12,477,8,8,10,['d'],N,['k'],Y,None,N,,,,,,,F,20,
31,13,478,4,4,10,['k'],Y,['k'],Y,None,N,,,,,,,F,20,
31,14,479,5,5,10,['k'],N,['d'],N,None,Y,,,,,,,F,20,
32,0,480,0,0,10,['d'],Y,['d'],Y,['k'],N,,,,,,,F,20,
32,1,481,5,5,10,['d'],N,['k'],N,None,Y,,,,,,,F,20,
32,2,482,0,0,10,['k'],N,['d'],N,None,Y,,,,,,,F,20,
32,3,483,4,4,10,['k'],N,['d'],N,None,Y,,,,,,,F,20,
32,4,484,4,4,10,['d'],Y,['d'],Y,['space'],Y,,,,,,,F,20,
32,5,485,12,12,10,['k'],Y,['k'],N,None,Y,,,,,,,F,20,
32,6,486,13,13,10,['k'],Y,['k'],Y,None,N,,,,,,,F,20,
32,7,487,3,3,10,['k'],N,['d'],N,None,Y,,,,,,,F,20,
32,8,488,0,0,10,['d'],N,['k'],N,None,Y,,,,,,,F,20,
32,9,489,14,14,10,['k'],Y,['k'],N,None,Y,,,,,,,F,20,
32,10,490,4,4,10,['d'],Y,['d'],Y,['space'],Y,,,,,,,F,20,
32,11,491,13,13,10,['d'],N,['k'],N,['space'],N,,,,,,,F,20,
32,12,492,10,10,10,['k'],N,['d'],Y,['space'],Y,,,,,,,F,20,
32,13,493,13,13,10,['k'],N,['d'],Y,None,N,,,,,,,F,20,
32,14,494,13,13,10,['d'],N,['k'],Y,['space'],Y,,,,,,,F,20,
33,0,495,9,9,10,['k'],N,['d'],N,None,Y,,,,,,,F,20,
33,1,496,0,0,10,['k'],Y,['k'],Y,['space'],Y,,,,,,,F,20,
33,2,497,5,5,10,['k'],Y,['k'],Y,None,N,,,,,,,F,20,
33,3,498,2,2,10,['d'],Y,['d'],N,None,Y,,,,,,,F,20,
33,4,499,10,10,10,['d'],N,['k'],N,None,Y,20,32,25,,,,F,20,
33,5,500,0,0,11,['k'],N,['k'],,,,,,,Y,Y,Y,F,20,
33,6,501,11,11,11,['d'],Y,['k'],,,,,,,,Y,Y,F,20,
33,7,502,1,1,11,['k'],N,['k'],Y,['space'],Y,,,,,Y,Y,F,20,
33,8,503,1,1,11,['k'],Y,['d'],Y,None,N,,,,,Y,Y,F,20,
33,9,504,12,12,11,['d'],Y,['k'],Y,None,N,,,,,Y,Y,F,20,
33,10,505,9,9,11,['d'],N,['d'],Y,None,N,,,,,Y,Y,F,20,
33,11,506,11,11,11,['k'],Y,['d'],N,['space'],N,,,,,Y,Y,F,20,
33,12,507,1,1,11,['k'],Y,['d'],Y,None,N,,,,,Y,Y,F,20,
33,13,508,7,7,11,['k'],Y,['d'],N,None,Y,,,,,Y,Y,F,20,
33,14,509,13,13,11,['k'],N,['k'],Y,None,N,,,,,Y,Y,F,20,
34,0,510,9,9,11,['d'],Y,['k'],N,None,Y,,,,,Y,Y,F,20,
34,1,511,5,5,11,['d'],N,['d'],Y,None,N,,,,,Y,Y,F,20,
34,2,512,10,10,11,['k'],Y,['d'],N,None,Y,,,,,Y,Y,F,20,
34,3,513,11,11,11,['k'],N,['k'],Y,['space'],Y,,,,,Y,Y,F,20,
34,4,514,13,13,11,['d'],Y,['k'],N,None,Y,,,,,Y,Y,F,20,
34,5,515,11,11,11,['d'],Y,['k'],N,None,Y,,,,,Y,Y,F,20,
34,6,516,14,14,11,['d'],N,['d'],N,None,Y,,,,,Y,Y,F,20,
34,7,517,14,14,11,['k'],Y,['d'],Y,None,N,,,,,Y,Y,F,20,
34,8,518,11,11,11,['k'],N,['k'],N,None,Y,,,,,Y,Y,F,20,
34,9,519,9,9,11,['d'],N,['d'],N,None,Y,,,,,Y,Y,F,20,
34,10,520,13,13,11,['d'],N,['d'],N,None,Y,,,,,Y,Y,F,20,
34,11,521,12,12,11,['k'],N,['k'],N,None,Y,,,,,Y,Y,F,20,
34,12,522,0,0,11,['k'],N,['k'],Y,None,N,,,,,Y,Y,F,20,
34,13,523,5,5,11,['d'],Y,['k'],N,None,Y,,,,,Y,Y,F,20,
34,14,524,12,12,11,['d'],N,['d'],N,None,Y,,,,,Y,Y,F,20,
35,0,525,3,3,11,['k'],N,['k'],Y,None,N,,,,,Y,Y,F,20,
35,1,526,12,12,11,['d'],Y,['k'],N,None,Y,,,,,Y,Y,F,20,
35,2,527,1,1,11,['k'],N,['k'],N,None,Y,,,,,Y,Y,F,20,
35,3,528,5,5,11,['d'],N,['d'],N,None,Y,,,,,Y,Y,F,20,
35,4,529,3,3,11,['k'],Y,['d'],Y,None,N,,,,,Y,Y,F,20,
35,5,530,2,2,11,['d'],Y,['k'],N,None,Y,,,,,Y,Y,F,20,
35,6,531,13,13,11,['d'],Y,['k'],N,None,Y,,,,,Y,Y,F,20,
35,7,532,7,7,11,['k'],N,['k'],N,None,Y,,,,,Y,Y,F,20,
35,8,533,3,3,11,['d'],N,['d'],Y,['space'],Y,,,,,Y,Y,F,20,
35,9,534,2,2,11,['k'],Y,['d'],N,None,Y,,,,,Y,Y,F,20,
35,10,535,5,5,11,['k'],N,['k'],N,None,Y,,,,,Y,Y,F,20,
35,11,536,10,10,11,['d'],Y,['k'],Y,None,N,,,,,Y,Y,F,20,
35,12,537,0,0,11,['d'],Y,['k'],N,None,Y,,,,,Y,Y,F,20,
35,13,538,0,0,11,['d'],Y,['k'],N,['space'],N,,,,,Y,Y,F,20,
35,14,539,2,2,11,['d'],Y,['k'],Y,['space'],Y,,,,,Y,Y,F,20,
36,0,540,6,6,11,None,Timed out,,N,None,Y,,,,,Y,Y,F,20,
36,1,541,2,2,11,['d'],N,['d'],Y,None,N,,,,,Y,Y,F,20,
36,2,542,2,2,11,['k'],Y,['d'],Y,None,N,,,,,Y,Y,F,20,
36,3,543,3,3,11,['k'],Y,['d'],N,None,Y,,,,,Y,Y,F,20,
36,4,544,2,2,11,['d'],Y,['k'],Y,['space'],Y,,,,,Y,Y,F,20,
36,5,545,3,3,11,['d'],Y,['k'],N,None,Y,,,,,Y,Y,F,20,
36,6,546,12,12,11,['k'],Y,['d'],Y,None,N,,,,,Y,Y,F,20,
36,7,547,1,1,11,['k'],N,['k'],Y,['space'],Y,,,,,Y,Y,F,20,
36,8,548,7,7,11,['d'],Y,['k'],Y,['space'],Y,,,,,Y,Y,F,20,
36,9,549,11,11,11,['d'],N,['d'],Y,None,N,27,31,22,,Y,Y,F,20,
36,10,550,10,10,12,['k'],Y,['d'],,,,,,,,Y,Y,F,20,
36,11,551,5,5,12,['k'],N,['k'],,,,,,,,Y,Y,F,20,
36,12,552,6,6,12,['d'],Y,['k'],Y,['space'],Y,,,,,Y,Y,F,20,
36,13,553,13,13,12,['d'],N,['d'],N,None,Y,,,,,Y,Y,F,20,
36,14,554,6,6,12,['k'],Y,['d'],N,None,Y,,,,,Y,Y,F,20,
37,0,555,11,11,12,['d'],Y,['k'],N,None,Y,,,,,Y,Y,F,20,
37,1,556,0,0,12,['d'],Y,['k'],Y,['space'],Y,,,,,Y,Y,F,20,
37,2,557,2,2,12,['d'],Y,['k'],N,None,Y,,,,,Y,Y,F,20,
37,3,558,6,6,12,['d'],N,['d'],N,['space'],N,,,,,Y,Y,F,20,
37,4,559,13,13,12,['d'],Y,['k'],Y,['space'],Y,,,,,Y,Y,F,20,
37,5,560,8,8,12,['d'],N,['d'],Y,None,N,,,,,Y,Y,F,20,
37,6,561,1,1,12,['d'],Y,['k'],Y,['space'],Y,,,,,Y,Y,F,20,
37,7,562,14,14,12,['d'],N,['d'],N,None,Y,,,,,Y,Y,F,20,
37,8,563,6,6,12,['d'],Y,['k'],N,None,Y,,,,,Y,Y,F,20,
37,9,564,8,8,12,['d'],Y,['k'],N,None,Y,,,,,Y,Y,F,20,
37,10,565,13,13,12,['k'],Y,['d'],N,None,Y,,,,,Y,Y,F,20,
37,11,566,2,2,12,['d'],Y,['k'],N,None,Y,,,,,Y,Y,F,20,
37,12,567,13,13,12,['d'],N,['d'],Y,['space'],Y,,,,,Y,Y,F,20,
37,13,568,6,6,12,['d'],N,['d'],Y,['space'],Y,,,,,Y,Y,F,20,
37,14,569,2,2,12,['d'],Y,['k'],N,['space'],N,,,,,Y,Y,F,20,
38,0,570,9,9,12,['d'],Y,['k'],Y,['space'],Y,,,,,Y,Y,F,20,
38,1,571,12,12,12,['d'],N,['d'],N,None,Y,,,,,Y,Y,F,20,
38,2,572,6,6,12,['d'],N,['d'],N,None,Y,,,,,Y,Y,F,20,
38,3,573,9,9,12,['d'],N,['d'],N,['space'],N,,,,,Y,Y,F,20,
38,4,574,7,7,12,['d'],N,['d'],Y,None,N,,,,,Y,Y,F,20,
38,5,575,4,4,12,['k'],N,['k'],N,None,Y,,,,,Y,Y,F,20,
38,6,576,12,12,12,['d'],Y,['k'],N,['space'],N,,,,,Y,Y,F,20,
38,7,577,12,12,12,['d'],Y,['k'],Y,None,N,,,,,Y,Y,F,20,
38,8,578,8,8,12,['d'],N,['d'],Y,['space'],Y,,,,,Y,Y,F,20,
38,9,579,10,10,12,['k'],N,['k'],Y,None,N,,,,,Y,Y,F,20,
38,10,580,10,10,12,['d'],Y,['k'],Y,None,N,,,,,Y,Y,F,20,
38,11,581,11,11,12,['d'],N,['d'],Y,['space'],Y,,,,,Y,Y,F,20,
38,12,582,2,2,12,['k'],N,['k'],Y,None,N,,,,,Y,Y,F,20,
38,13,583,13,13,12,['d'],Y,['k'],N,['d'],N,,,,,Y,Y,F,20,
38,14,584,14,14,12,None,Timed out,,N,None,Y,,,,,Y,Y,F,20,
39,0,585,12,12,12,['d'],Y,['k'],N,None,Y,,,,,Y,Y,F,20,
39,1,586,14,14,12,['d'],Y,['k'],Y,None,N,,,,,Y,Y,F,20,
39,2,587,1,1,12,['d'],N,['d'],Y,['space'],Y,,,,,Y,Y,F,20,
39,3,588,5,5,12,['d'],Y,['k'],Y,None,N,,,,,Y,Y,F,20,
39,4,589,13,13,12,['d'],N,['d'],Y,None,N,,,,,Y,Y,F,20,
39,5,590,9,9,12,['k'],N,['k'],N,None,Y,,,,,Y,Y,F,20,
39,6,591,4,4,12,['d'],Y,['k'],Y,None,N,,,,,Y,Y,F,20,
39,7,592,11,11,12,['d'],Y,['k'],N,['d'],N,,,,,Y,Y,F,20,
39,8,593,8,8,12,['d'],N,['d'],Y,['space'],Y,,,,,Y,Y,F,20,
39,9,594,7,7,12,['k'],Y,['d'],Y,['space'],Y,,,,,Y,Y,F,20,
39,10,595,0,0,12,['d'],Y,['k'],Y,['space'],Y,,,,,Y,Y,F,20,
39,11,596,2,2,12,['d'],N,['d'],Y,['space'],Y,,,,,Y,Y,F,20,
39,12,597,6,6,12,['k'],N,['k'],N,None,Y,,,,,Y,Y,F,20,
39,13,598,5,5,12,['d'],Y,['k'],Y,['space'],Y,,,,,Y,Y,F,20,
39,14,599,12,12,12,['d'],Y,['k'],N,['d'],N,27,31,25,,Y,Y,F,20,
