.thisRepN,.thisTrialN,.thisN,.thisIndex,.thisTrial,Block Number,Key pressed,Category,Correct?,Int Match?,Int Response,Int Correct?,Line Accuracy,Interference Accuracy,Matching Interferences,New instruction shown?,Buttons switched?,Fast?,gender,age,
0,0,0,6,6,1,['k'],['k'],Y,,,,,,,,,,F,21,
0,1,1,10,10,1,['k'],['k'],Y,,,,,,,,,,F,21,
0,2,2,0,0,1,['d'],['d'],Y,Y,['space'],Y,,,,,,,F,21,
0,3,3,12,12,1,['k'],['d'],N,N,None,Y,,,,,,,F,21,
0,4,4,8,8,1,['k'],['k'],Y,N,None,Y,,,,,,,F,21,
0,5,5,12,12,1,['d'],['d'],Y,N,None,Y,,,,,,,F,21,
0,6,6,7,7,1,['d'],['d'],Y,Y,None,N,,,,,,,F,21,
0,7,7,0,0,1,['k'],['k'],Y,N,None,Y,,,,,,,F,21,
0,8,8,11,11,1,['k'],['k'],Y,Y,['space'],Y,,,,,,,F,21,
0,9,9,5,5,1,['k'],['k'],Y,N,None,Y,,,,,,,F,21,
0,10,10,3,3,1,['k'],['k'],Y,Y,['space'],Y,,,,,,,F,21,
0,11,11,7,7,1,['k'],['d'],N,Y,['space'],Y,,,,,,,F,21,
0,12,12,6,6,1,['k'],['k'],Y,N,['space'],N,,,,,,,F,21,
0,13,13,6,6,1,['d'],['d'],Y,Y,['space'],Y,,,,,,,F,21,
0,14,14,2,2,1,['k'],['k'],Y,N,None,Y,,,,,,,F,21,
1,0,15,9,9,1,['k'],['k'],Y,N,None,Y,,,,,,,F,21,
1,1,16,9,9,1,['d'],['d'],Y,Y,['space'],Y,,,,,,,F,21,
1,2,17,14,14,1,['k'],['k'],Y,N,None,Y,,,,,,,F,21,
1,3,18,7,7,1,['k'],['d'],N,N,None,Y,,,,,,,F,21,
1,4,19,13,13,1,['k'],['k'],Y,N,['space'],N,,,,,,,F,21,
1,5,20,10,10,1,['k'],['d'],N,Y,['space'],Y,,,,,,,F,21,
1,6,21,6,6,1,['d'],['k'],N,Y,None,N,,,,,,,F,21,
1,7,22,12,12,1,['k'],['k'],Y,Y,['space'],Y,,,,,,,F,21,
1,8,23,7,7,1,['k'],['d'],N,Y,['space'],Y,,,,,,,F,21,
1,9,24,6,6,1,['k'],['k'],Y,Y,['space'],Y,,,,,,,F,21,
1,10,25,7,7,1,['k'],['k'],Y,N,None,Y,,,,,,,F,21,
1,11,26,12,12,1,['d'],['d'],Y,N,None,Y,,,,,,,F,21,
1,12,27,10,10,1,['k'],['d'],N,N,None,Y,,,,,,,F,21,
1,13,28,6,6,1,['d'],['d'],Y,N,['space'],N,,,,,,,F,21,
1,14,29,8,8,1,['k'],['d'],N,N,None,Y,,,,,,,F,21,
2,0,30,10,10,1,['k'],['d'],N,Y,['space'],Y,,,,,,,F,21,
2,1,31,4,4,1,['k'],['d'],N,Y,['space'],Y,,,,,,,F,21,
2,2,32,3,3,1,['k'],['k'],Y,N,None,Y,,,,,,,F,21,
2,3,33,5,5,1,['d'],['k'],N,Y,['space'],Y,,,,,,,F,21,
2,4,34,10,10,1,['d'],['d'],Y,Y,['space'],Y,,,,,,,F,21,
2,5,35,0,0,1,['k'],['d'],N,Y,['space'],Y,,,,,,,F,21,
2,6,36,6,6,1,['k'],['d'],N,Y,['space'],Y,,,,,,,F,21,
2,7,37,1,1,1,['k'],['d'],N,N,None,Y,,,,,,,F,21,
2,8,38,8,8,1,['k'],['d'],N,Y,['space'],Y,,,,,,,F,21,
2,9,39,9,9,1,['d'],['k'],N,N,None,Y,,,,,,,F,21,
2,10,40,3,3,1,['k'],['k'],Y,Y,['space'],Y,,,,,,,F,21,
2,11,41,11,11,1,['k'],['k'],Y,Y,['space'],Y,,,,,,,F,21,
2,12,42,5,5,1,['k'],['k'],Y,N,['space'],N,,,,,,,F,21,
2,13,43,4,4,1,['k'],['d'],N,Y,['space'],Y,,,,,,,F,21,
2,14,44,10,10,1,['d'],['k'],N,N,None,Y,,,,,,,F,21,
3,0,45,7,7,1,['k'],['k'],Y,N,['space'],N,,,,,,,F,21,
3,1,46,4,4,1,['k'],['d'],N,N,None,Y,,,,,,,F,21,
3,2,47,11,11,1,['k'],['d'],N,Y,['space'],Y,,,,,,,F,21,
3,3,48,14,14,1,['k'],['k'],Y,Y,['space'],Y,,,,,,,F,21,
3,4,49,2,2,1,['k'],['d'],N,N,None,Y,29,41,24,,,,F,21,
3,5,50,13,13,2,['k'],['k'],Y,,,,,,,,,,F,21,
3,6,51,9,9,2,['k'],['k'],Y,,,,,,,,,,F,21,
3,7,52,1,1,2,['k'],['d'],N,N,['space'],N,,,,,,,F,21,
3,8,53,9,9,2,['k'],['d'],N,N,None,Y,,,,,,,F,21,
3,9,54,12,12,2,['k'],['k'],Y,Y,['space'],Y,,,,,,,F,21,
3,10,55,6,6,2,['k'],['d'],N,N,['space'],N,,,,,,,F,21,
3,11,56,4,4,2,['d'],['k'],N,N,['space'],N,,,,,,,F,21,
3,12,57,6,6,2,['k'],['d'],N,N,['space'],N,,,,,,,F,21,
3,13,58,8,8,2,['k'],['d'],N,N,['k'],N,,,,,,,F,21,
3,14,59,3,3,2,['k'],['k'],Y,Y,['space'],Y,,,,,,,F,21,
4,0,60,11,11,2,['k'],['d'],N,N,None,Y,,,,,,,F,21,
4,1,61,14,14,2,['k'],['d'],N,N,['k'],N,,,,,,,F,21,
4,2,62,2,2,2,['d'],['d'],Y,Y,['space'],Y,,,,,,,F,21,
4,3,63,9,9,2,['d'],['k'],N,Y,None,N,,,,,,,F,21,
4,4,64,0,0,2,['k'],['d'],N,Y,['space'],Y,,,,,,,F,21,
4,5,65,13,13,2,['k'],['d'],N,N,['d'],N,,,,,,,F,21,
4,6,66,7,7,2,['k'],['d'],N,N,None,Y,,,,,,,F,21,
4,7,67,11,11,2,['k'],['d'],N,N,['space'],N,,,,,,,F,21,
4,8,68,9,9,2,['k'],['d'],N,N,['d'],N,,,,,,,F,21,
4,9,69,14,14,2,['d'],['d'],Y,Y,['space'],Y,,,,,,,F,21,
4,10,70,5,5,2,['k'],['k'],Y,Y,['k'],N,,,,,,,F,21,
4,11,71,3,3,2,['k'],['d'],N,Y,['space'],Y,,,,,,,F,21,
4,12,72,0,0,2,['k'],['d'],N,N,None,Y,,,,,,,F,21,
4,13,73,5,5,2,['k'],['d'],N,Y,['d'],N,,,,,,,F,21,
4,14,74,2,2,2,['d'],['d'],Y,Y,['space'],Y,,,,,,,F,21,
5,0,75,5,5,2,['k'],['d'],N,N,['d'],N,,,,,,,F,21,
5,1,76,9,9,2,['k'],['d'],N,Y,['space'],Y,,,,,,,F,21,
5,2,77,11,11,2,['d'],['d'],Y,Y,['space'],Y,,,,,,,F,21,
5,3,78,9,9,2,['k'],['k'],Y,Y,['space'],Y,,,,,,,F,21,
5,4,79,1,1,2,['k'],['d'],N,N,['space'],N,,,,,,,F,21,
5,5,80,10,10,2,['k'],['k'],Y,N,['space'],N,,,,,,,F,21,
5,6,81,10,10,2,['d'],['k'],N,Y,['k'],N,,,,,,,F,21,
5,7,82,2,2,2,['k'],['d'],N,Y,['space'],Y,,,,,,,F,21,
5,8,83,6,6,2,['k'],['d'],N,Y,None,N,,,,,,,F,21,
5,9,84,6,6,2,['d'],['d'],Y,Y,['space'],Y,,,,,,,F,21,
5,10,85,8,8,2,['k'],['d'],N,N,None,Y,,,,,,,F,21,
5,11,86,11,11,2,['d'],['d'],Y,N,None,Y,,,,,,,F,21,
5,12,87,9,9,2,['k'],['k'],Y,N,None,Y,,,,,,,F,21,
5,13,88,4,4,2,['k'],['d'],N,Y,['space'],Y,,,,,,,F,21,
5,14,89,4,4,2,['k'],['d'],N,N,None,Y,,,,,,,F,21,
6,0,90,0,0,2,['d'],['d'],Y,Y,['space'],Y,,,,,,,F,21,
6,1,91,5,5,2,['d'],['k'],N,N,None,Y,,,,,,,F,21,
6,2,92,8,8,2,['k'],['d'],N,N,['space'],N,,,,,,,F,21,
6,3,93,13,13,2,['d'],['k'],N,N,['space'],N,,,,,,,F,21,
6,4,94,10,10,2,['k'],['d'],N,Y,['space'],Y,,,,,,,F,21,
6,5,95,8,8,2,['d'],['d'],Y,Y,['space'],Y,,,,,,,F,21,
6,6,96,5,5,2,['k'],['k'],Y,Y,['space'],Y,,,,,,,F,21,
6,7,97,4,4,2,['k'],['k'],Y,Y,['space'],Y,,,,,,,F,21,
6,8,98,14,14,2,['k'],['k'],Y,Y,['space'],Y,,,,,,,F,21,
6,9,99,2,2,2,['d'],['d'],Y,N,None,Y,20,29,24,,,,F,21,
6,10,100,0,0,3,['k'],['k'],Y,,,,,,,,,,F,21,
6,11,101,9,9,3,['k'],['k'],Y,,,,,,,,,,F,21,
6,12,102,13,13,3,['k'],['d'],N,Y,['space'],Y,,,,,,,F,21,
6,13,103,4,4,3,['d'],['k'],N,N,None,Y,,,,,,,F,21,
6,14,104,9,9,3,['k'],['d'],N,Y,['space'],Y,,,,,,,F,21,
7,0,105,1,1,3,['k'],['d'],N,Y,['space'],Y,,,,,,,F,21,
7,1,106,9,9,3,['d'],['k'],N,Y,None,N,,,,,,,F,21,
7,2,107,0,0,3,['k'],['d'],N,Y,['space'],Y,,,,,,,F,21,
7,3,108,9,9,3,['k'],['k'],Y,N,['space'],N,,,,,,,F,21,
7,4,109,7,7,3,['k'],['d'],N,Y,['space'],Y,,,,,,,F,21,
7,5,110,2,2,3,['k'],['d'],N,Y,None,N,,,,,,,F,21,
7,6,111,12,12,3,['d'],['k'],N,Y,['space'],Y,,,,,,,F,21,
7,7,112,10,10,3,['k'],['k'],Y,Y,None,N,,,,,,,F,21,
7,8,113,8,8,3,['k'],['d'],N,N,['space'],N,,,,,,,F,21,
7,9,114,5,5,3,['k'],['d'],N,N,['d'],N,,,,,,,F,21,
7,10,115,2,2,3,['d'],['d'],Y,N,None,Y,,,,,,,F,21,
7,11,116,8,8,3,['k'],['k'],Y,Y,None,N,,,,,,,F,21,
7,12,117,1,1,3,['k'],['d'],N,Y,['space'],Y,,,,,,,F,21,
7,13,118,13,13,3,['d'],['k'],N,N,None,Y,,,,,,,F,21,
7,14,119,5,5,3,['k'],['k'],Y,N,['space'],N,,,,,,,F,21,
8,0,120,8,8,3,['k'],['k'],Y,N,['d'],N,,,,,,,F,21,
8,1,121,4,4,3,['k'],['k'],Y,Y,['space'],Y,,,,,,,F,21,
8,2,122,7,7,3,['k'],['d'],N,Y,['space'],Y,,,,,,,F,21,
8,3,123,9,9,3,['k'],['d'],N,N,['d'],N,,,,,,,F,21,
8,4,124,0,0,3,['d'],['d'],Y,Y,['space'],Y,,,,,,,F,21,
8,5,125,10,10,3,['k'],['d'],N,Y,['space'],Y,,,,,,,F,21,
8,6,126,11,11,3,['d'],['d'],Y,Y,['space'],Y,,,,,,,F,21,
8,7,127,14,14,3,['k'],['k'],Y,N,None,Y,,,,,,,F,21,
8,8,128,14,14,3,['k'],['d'],N,Y,['space'],Y,,,,,,,F,21,
8,9,129,14,14,3,['k'],['d'],N,N,['space'],N,,,,,,,F,21,
8,10,130,2,2,3,['d'],['d'],Y,N,None,Y,,,,,,,F,21,
8,11,131,1,1,3,['k'],['k'],Y,N,None,Y,,,,,,,F,21,
8,12,132,3,3,3,['k'],['d'],N,Y,['space'],Y,,,,,,,F,21,
8,13,133,0,0,3,['k'],['k'],Y,Y,['space'],Y,,,,,,,F,21,
8,14,134,13,13,3,['k'],['d'],N,N,['space'],N,,,,,,,F,21,
9,0,135,14,14,3,['k'],['k'],Y,N,['d'],N,,,,,,,F,21,
9,1,136,1,1,3,['k'],['d'],N,N,None,Y,,,,,,,F,21,
9,2,137,7,7,3,['k'],['d'],N,Y,['d'],N,,,,,,,F,21,
9,3,138,11,11,3,['d'],['d'],Y,Y,['space'],Y,,,,,,,F,21,
9,4,139,9,9,3,['k'],['k'],Y,N,['k'],N,,,,,,,F,21,
9,5,140,0,0,3,['k'],['k'],Y,N,['space'],N,,,,,,,F,21,
9,6,141,8,8,3,['k'],['d'],N,Y,None,N,,,,,,,F,21,
9,7,142,14,14,3,['k'],['d'],N,N,['space'],N,,,,,,,F,21,
9,8,143,13,13,3,['k'],['k'],Y,Y,['space'],Y,,,,,,,F,21,
9,9,144,7,7,3,['k'],['k'],Y,N,None,Y,,,,,,,F,21,
9,10,145,1,1,3,['d'],['k'],N,Y,['space'],Y,,,,,,,F,21,
9,11,146,0,0,3,['k'],['k'],Y,N,None,Y,,,,,,,F,21,
9,12,147,14,14,3,['k'],['k'],Y,Y,['space'],Y,,,,,,,F,21,
9,13,148,6,6,3,['k'],['d'],N,N,None,Y,,,,,,,F,21,
9,14,149,13,13,3,['k'],['d'],N,N,['space'],N,23,29,25,,,,F,21,
10,0,150,11,11,4,['k'],['k'],Y,,,,,,,,,,F,21,
10,1,151,2,2,4,['d'],['d'],Y,,,,,,,,,,F,21,
10,2,152,14,14,4,['k'],['d'],N,Y,['space'],Y,,,,,,,F,21,
10,3,153,10,10,4,['k'],['k'],Y,N,None,Y,,,,,,,F,21,
10,4,154,1,1,4,['k'],['d'],N,N,None,Y,,,,,,,F,21,
10,5,155,11,11,4,['d'],['d'],Y,Y,['space'],Y,,,,,,,F,21,
10,6,156,14,14,4,['k'],['d'],N,Y,None,N,,,,,,,F,21,
10,7,157,12,12,4,['k'],['d'],N,Y,['space'],Y,,,,,,,F,21,
10,8,158,4,4,4,['k'],['d'],N,N,None,Y,,,,,,,F,21,
10,9,159,12,12,4,['d'],['d'],Y,Y,['space'],Y,,,,,,,F,21,
10,10,160,7,7,4,['k'],['d'],N,N,None,Y,,,,,,,F,21,
10,11,161,2,2,4,['k'],['k'],Y,Y,['space'],Y,,,,,,,F,21,
10,12,162,11,11,4,['k'],['k'],Y,Y,['space'],Y,,,,,,,F,21,
10,13,163,13,13,4,['d'],['k'],N,N,None,Y,,,,,,,F,21,
10,14,164,7,7,4,['k'],['k'],Y,N,['space'],N,,,,,,,F,21,
11,0,165,0,0,4,['k'],['k'],Y,N,None,Y,,,,,,,F,21,
11,1,166,1,1,4,['d'],['d'],Y,N,['space'],N,,,,,,,F,21,
11,2,167,13,13,4,['k'],['k'],Y,Y,None,N,,,,,,,F,21,
11,3,168,5,5,4,['k'],['d'],N,Y,['space'],Y,,,,,,,F,21,
11,4,169,13,13,4,['d'],['d'],Y,N,['space'],N,,,,,,,F,21,
11,5,170,4,4,4,['d'],['d'],Y,Y,['k'],N,,,,,,,F,21,
11,6,171,13,13,4,['d'],['d'],Y,Y,['space'],Y,,,,,,,F,21,
11,7,172,8,8,4,['k'],['k'],Y,Y,['space'],Y,,,,,,,F,21,
11,8,173,14,14,4,['k'],['k'],Y,N,None,Y,,,,,,,F,21,
11,9,174,12,12,4,['d'],['d'],Y,Y,['space'],Y,,,,,,,F,21,
11,10,175,11,11,4,['d'],['d'],Y,N,None,Y,,,,,,,F,21,
11,11,176,1,1,4,['d'],['d'],Y,N,None,Y,,,,,,,F,21,
11,12,177,1,1,4,['d'],['d'],Y,N,['space'],N,,,,,,,F,21,
11,13,178,10,10,4,['d'],['d'],Y,N,None,Y,,,,,,,F,21,
11,14,179,13,13,4,['d'],['d'],Y,N,['space'],N,,,,,,,F,21,
12,0,180,11,11,4,['k'],['k'],Y,N,['space'],N,,,,,,,F,21,
12,1,181,8,8,4,['k'],['k'],Y,Y,['space'],Y,,,,,,,F,21,
12,2,182,14,14,4,['d'],['d'],Y,Y,None,N,,,,,,,F,21,
12,3,183,2,2,4,['k'],['k'],Y,N,None,Y,,,,,,,F,21,
12,4,184,9,9,4,['k'],['k'],Y,N,['space'],N,,,,,,,F,21,
12,5,185,5,5,4,['k'],['k'],Y,N,None,Y,,,,,,,F,21,
12,6,186,9,9,4,['d'],['d'],Y,N,['space'],N,,,,,,,F,21,
12,7,187,8,8,4,['k'],['k'],Y,N,None,Y,,,,,,,F,21,
12,8,188,3,3,4,['d'],['d'],Y,N,None,Y,,,,,,,F,21,
12,9,189,13,13,4,['k'],['k'],Y,N,['space'],N,,,,,,,F,21,
12,10,190,4,4,4,['d'],['d'],Y,N,None,Y,,,,,,,F,21,
12,11,191,0,0,4,['k'],['k'],Y,Y,['space'],Y,,,,,,,F,21,
12,12,192,13,13,4,['k'],['d'],N,N,None,Y,,,,,,,F,21,
12,13,193,2,2,4,['d'],['d'],Y,N,None,Y,,,,,,,F,21,
12,14,194,5,5,4,['d'],['d'],Y,N,None,Y,,,,,,,F,21,
13,0,195,10,10,4,['d'],['d'],Y,Y,['space'],Y,,,,,,,F,21,
13,1,196,10,10,4,['k'],['d'],N,Y,['space'],Y,,,,,,,F,21,
13,2,197,2,2,4,['d'],['d'],Y,Y,['space'],Y,,,,,,,F,21,
13,3,198,11,11,4,['d'],['d'],Y,Y,['space'],Y,,,,,,,F,21,
13,4,199,6,6,4,['k'],['k'],Y,N,None,Y,40,35,20,,,,F,21,
13,5,200,10,10,5,['d'],['d'],Y,,,,,,,,,,F,21,
13,6,201,8,8,5,['k'],['k'],Y,,,,,,,,,,F,21,
13,7,202,9,9,5,['k'],['k'],Y,N,None,Y,,,,,,,F,21,
13,8,203,4,4,5,['d'],['d'],Y,Y,['space'],Y,,,,,,,F,21,
13,9,204,4,4,5,['k'],['k'],Y,Y,None,N,,,,,,,F,21,
13,10,205,11,11,5,['k'],['d'],N,Y,['space'],Y,,,,,,,F,21,
13,11,206,3,3,5,['d'],['d'],Y,Y,['space'],Y,,,,,,,F,21,
13,12,207,0,0,5,['k'],['d'],N,N,None,Y,,,,,,,F,21,
13,13,208,8,8,5,['k'],['k'],Y,Y,['space'],Y,,,,,,,F,21,
13,14,209,14,14,5,['d'],['d'],Y,N,None,Y,,,,,,,F,21,
14,0,210,2,2,5,['k'],['k'],Y,Y,['space'],Y,,,,,,,F,21,
14,1,211,6,6,5,['d'],['d'],Y,Y,None,N,,,,,,,F,21,
14,2,212,1,1,5,['d'],['d'],Y,Y,['space'],Y,,,,,,,F,21,
14,3,213,13,13,5,['d'],['d'],Y,Y,None,N,,,,,,,F,21,
14,4,214,8,8,5,['k'],['k'],Y,Y,['space'],Y,,,,,,,F,21,
14,5,215,14,14,5,['k'],['k'],Y,Y,['space'],Y,,,,,,,F,21,
14,6,216,10,10,5,['k'],['k'],Y,N,None,Y,,,,,,,F,21,
14,7,217,5,5,5,['k'],['k'],Y,N,None,Y,,,,,,,F,21,
14,8,218,0,0,5,['d'],['d'],Y,Y,['space'],Y,,,,,,,F,21,
14,9,219,5,5,5,['k'],['k'],Y,Y,['space'],Y,,,,,,,F,21,
14,10,220,0,0,5,['d'],['d'],Y,Y,['space'],Y,,,,,,,F,21,
14,11,221,5,5,5,['k'],['k'],Y,Y,['space'],Y,,,,,,,F,21,
14,12,222,10,10,5,['d'],['d'],Y,Y,['space'],Y,,,,,,,F,21,
14,13,223,7,7,5,['k'],['k'],Y,Y,['space'],Y,,,,,,,F,21,
14,14,224,5,5,5,['d'],['d'],Y,N,None,Y,,,,,,,F,21,
15,0,225,5,5,5,['k'],['d'],N,Y,['space'],Y,,,,,,,F,21,
15,1,226,0,0,5,['k'],['k'],Y,Y,['space'],Y,,,,,,,F,21,
15,2,227,12,12,5,['d'],['d'],Y,N,None,Y,,,,,,,F,21,
15,3,228,3,3,5,['k'],['k'],Y,Y,['space'],Y,,,,,,,F,21,
15,4,229,10,10,5,['k'],['k'],Y,Y,['space'],Y,,,,,,,F,21,
15,5,230,10,10,5,['k'],['d'],N,N,None,Y,,,,,,,F,21,
15,6,231,3,3,5,['d'],['d'],Y,Y,['space'],Y,,,,,,,F,21,
15,7,232,4,4,5,['k'],['k'],Y,Y,['space'],Y,,,,,,,F,21,
15,8,233,12,12,5,['k'],['k'],Y,N,None,Y,,,,,,,F,21,
15,9,234,14,14,5,['d'],['d'],Y,Y,['space'],Y,,,,,,,F,21,
15,10,235,4,4,5,['k'],['k'],Y,N,None,Y,,,,,,,F,21,
15,11,236,8,8,5,['k'],['k'],Y,Y,['space'],Y,,,,,,,F,21,
15,12,237,1,1,5,['d'],['k'],N,N,None,Y,,,,,,,F,21,
15,13,238,12,12,5,['k'],['k'],Y,N,None,Y,,,,,,,F,21,
15,14,239,6,6,5,['k'],['k'],Y,N,None,Y,,,,,,,F,21,
16,0,240,11,11,5,['k'],['d'],N,N,None,Y,,,,,,,F,21,
16,1,241,7,7,5,['d'],['d'],Y,N,None,Y,,,,,,,F,21,
16,2,242,2,2,5,['k'],['k'],Y,N,None,Y,,,,,,,F,21,
16,3,243,11,11,5,['d'],['d'],Y,N,None,Y,,,,,,,F,21,
16,4,244,11,11,5,['k'],['k'],Y,N,None,Y,,,,,,,F,21,
16,5,245,12,12,5,['k'],['k'],Y,N,None,Y,,,,,,,F,21,
16,6,246,0,0,5,['k'],['k'],Y,N,None,Y,,,,,,,F,21,
16,7,247,3,3,5,['k'],['k'],Y,N,None,Y,,,,,,,F,21,
16,8,248,14,14,5,['k'],['k'],Y,N,None,Y,,,,,,,F,21,
16,9,249,7,7,5,['k'],['k'],Y,N,None,Y,44,45,25,,,,F,21,
16,10,250,8,8,6,['k'],['k'],Y,,,,,,,,,,F,21,
16,11,251,3,3,6,['d'],['d'],Y,,,,,,,,,,F,21,
16,12,252,11,11,6,['d'],['d'],Y,Y,['space'],Y,,,,,,,F,21,
16,13,253,10,10,6,['d'],['d'],Y,N,None,Y,,,,,,,F,21,
16,14,254,10,10,6,['k'],['k'],Y,Y,None,N,,,,,,,F,21,
17,0,255,12,12,6,['d'],['d'],Y,N,None,Y,,,,,,,F,21,
17,1,256,5,5,6,['k'],['k'],Y,N,None,Y,,,,,,,F,21,
17,2,257,10,10,6,['d'],['d'],Y,Y,['space'],Y,,,,,,,F,21,
17,3,258,9,9,6,['d'],['d'],Y,Y,['space'],Y,,,,,,,F,21,
17,4,259,12,12,6,['d'],['d'],Y,Y,['space'],Y,,,,,,,F,21,
17,5,260,3,3,6,['d'],['d'],Y,Y,None,N,,,,,,,F,21,
17,6,261,2,2,6,['k'],['d'],N,N,None,Y,,,,,,,F,21,
17,7,262,4,4,6,['k'],['k'],Y,Y,['d'],N,,,,,,,F,21,
17,8,263,6,6,6,['d'],['d'],Y,N,None,Y,,,,,,,F,21,
17,9,264,9,9,6,['k'],['d'],N,N,None,Y,,,,,,,F,21,
17,10,265,10,10,6,['k'],['k'],Y,Y,None,N,,,,,,,F,21,
17,11,266,2,2,6,['k'],['k'],Y,N,['space'],N,,,,,,,F,21,
17,12,267,6,6,6,['d'],['d'],Y,Y,['space'],Y,,,,,,,F,21,
17,13,268,1,1,6,['k'],['k'],Y,N,None,Y,,,,,,,F,21,
17,14,269,1,1,6,['k'],['k'],Y,N,None,Y,,,,,,,F,21,
18,0,270,1,1,6,['k'],['k'],Y,Y,['space'],Y,,,,,,,F,21,
18,1,271,3,3,6,['d'],['d'],Y,Y,None,N,,,,,,,F,21,
18,2,272,12,12,6,['d'],['d'],Y,Y,['space'],Y,,,,,,,F,21,
18,3,273,1,1,6,['d'],['d'],Y,Y,['space'],Y,,,,,,,F,21,
18,4,274,12,12,6,['k'],['k'],Y,N,None,Y,,,,,,,F,21,
18,5,275,14,14,6,['k'],['k'],Y,N,None,Y,,,,,,,F,21,
18,6,276,4,4,6,['k'],['k'],Y,N,None,Y,,,,,,,F,21,
18,7,277,12,12,6,['k'],['k'],Y,Y,['space'],Y,,,,,,,F,21,
18,8,278,4,4,6,['k'],['d'],N,Y,['space'],Y,,,,,,,F,21,
18,9,279,2,2,6,['d'],['d'],Y,Y,None,N,,,,,,,F,21,
18,10,280,0,0,6,['k'],['k'],Y,Y,['space'],Y,,,,,,,F,21,
18,11,281,2,2,6,['d'],['d'],Y,N,None,Y,,,,,,,F,21,
18,12,282,9,9,6,['k'],['k'],Y,N,None,Y,,,,,,,F,21,
18,13,283,0,0,6,['d'],['d'],Y,Y,['space'],Y,,,,,,,F,21,
18,14,284,2,2,6,['k'],['k'],Y,N,None,Y,,,,,,,F,21,
19,0,285,9,9,6,['d'],['d'],Y,N,['space'],N,,,,,,,F,21,
19,1,286,9,9,6,['d'],['k'],N,Y,['space'],Y,,,,,,,F,21,
19,2,287,6,6,6,['d'],['d'],Y,Y,['space'],Y,,,,,,,F,21,
19,3,288,12,12,6,['d'],['d'],Y,N,None,Y,,,,,,,F,21,
19,4,289,13,13,6,['k'],['d'],N,Y,['space'],Y,,,,,,,F,21,
19,5,290,7,7,6,['k'],['k'],Y,N,None,Y,,,,,,,F,21,
19,6,291,9,9,6,['d'],['d'],Y,Y,None,N,,,,,,,F,21,
19,7,292,0,0,6,['d'],['k'],N,Y,None,N,,,,,,,F,21,
19,8,293,13,13,6,['k'],['k'],Y,Y,['space'],Y,,,,,,,F,21,
19,9,294,5,5,6,['d'],['d'],Y,Y,['space'],Y,,,,,,,F,21,
19,10,295,1,1,6,['k'],['d'],N,N,['space'],N,,,,,,,F,21,
19,11,296,5,5,6,['k'],['k'],Y,N,['space'],N,,,,,,,F,21,
19,12,297,8,8,6,['d'],['d'],Y,N,None,Y,,,,,,,F,21,
19,13,298,7,7,6,['d'],['d'],Y,N,None,Y,,,,,,,F,21,
19,14,299,13,13,6,['d'],['d'],Y,N,None,Y,43,36,25,,,,F,21,
20,0,300,9,9,7,['k'],['k'],Y,,,,,,,,,,F,21,
20,1,301,12,12,7,['d'],['k'],N,,,,,,,,,,F,21,
20,2,302,2,2,7,['k'],['k'],Y,N,None,Y,,,,,,,F,21,
20,3,303,13,13,7,['k'],['k'],Y,N,None,Y,,,,,,,F,21,
20,4,304,11,11,7,['d'],['d'],Y,Y,['space'],Y,,,,,,,F,21,
20,5,305,0,0,7,['d'],['d'],Y,Y,['space'],Y,,,,,,,F,21,
20,6,306,7,7,7,['d'],['d'],Y,N,None,Y,,,,,,,F,21,
20,7,307,11,11,7,['k'],['k'],Y,Y,['space'],Y,,,,,,,F,21,
20,8,308,0,0,7,['d'],['d'],Y,Y,['space'],Y,,,,,,,F,21,
20,9,309,7,7,7,['k'],['k'],Y,Y,None,N,,,,,,,F,21,
20,10,310,1,1,7,['d'],['d'],Y,N,None,Y,,,,,,,F,21,
20,11,311,2,2,7,['k'],['k'],Y,Y,['space'],Y,,,,,,,F,21,
20,12,312,0,0,7,['d'],['d'],Y,Y,['space'],Y,,,,,,,F,21,
20,13,313,8,8,7,['d'],['d'],Y,Y,None,N,,,,,,,F,21,
20,14,314,6,6,7,['k'],['k'],Y,N,None,Y,,,,,,,F,21,
21,0,315,10,10,7,['k'],['k'],Y,Y,['space'],Y,,,,,,,F,21,
21,1,316,3,3,7,['k'],['k'],Y,N,None,Y,,,,,,,F,21,
21,2,317,11,11,7,['d'],['k'],N,Y,['space'],Y,,,,,,,F,21,
21,3,318,14,14,7,['k'],['d'],N,Y,['space'],Y,,,,,,,F,21,
21,4,319,12,12,7,['k'],['k'],Y,N,None,Y,,,,,,,F,21,
21,5,320,3,3,7,['k'],['k'],Y,Y,['space'],Y,,,,,,,F,21,
21,6,321,13,13,7,['d'],['d'],Y,N,None,Y,,,,,,,F,21,
21,7,322,5,5,7,['k'],['k'],Y,N,None,Y,,,,,,,F,21,
21,8,323,14,14,7,['k'],['d'],N,Y,['space'],Y,,,,,,,F,21,
21,9,324,13,13,7,['d'],['d'],Y,N,['space'],N,,,,,,,F,21,
21,10,325,6,6,7,['k'],['k'],Y,Y,['space'],Y,,,,,,,F,21,
21,11,326,13,13,7,['k'],['k'],Y,Y,['space'],Y,,,,,,,F,21,
21,12,327,3,3,7,['k'],['k'],Y,Y,['space'],Y,,,,,,,F,21,
21,13,328,6,6,7,['k'],['k'],Y,N,None,Y,,,,,,,F,21,
21,14,329,13,13,7,['d'],['d'],Y,Y,['space'],Y,,,,,,,F,21,
22,0,330,2,2,7,['k'],['k'],Y,Y,['space'],Y,,,,,,,F,21,
22,1,331,6,6,7,['k'],['k'],Y,N,['space'],N,,,,,,,F,21,
22,2,332,12,12,7,['d'],['d'],Y,N,None,Y,,,,,,,F,21,
22,3,333,12,12,7,['k'],['d'],N,N,['space'],N,,,,,,,F,21,
22,4,334,8,8,7,['k'],['k'],Y,Y,None,N,,,,,,,F,21,
22,5,335,1,1,7,['k'],['k'],Y,Y,['space'],Y,,,,,,,F,21,
22,6,336,2,2,7,['d'],['d'],Y,Y,['space'],Y,,,,,,,F,21,
22,7,337,9,9,7,['d'],['d'],Y,N,None,Y,,,,,,,F,21,
22,8,338,14,14,7,['k'],['k'],Y,N,None,Y,,,,,,,F,21,
22,9,339,8,8,7,['d'],['d'],Y,Y,['space'],Y,,,,,,,F,21,
22,10,340,7,7,7,['k'],['k'],Y,N,None,Y,,,,,,,F,21,
22,11,341,6,6,7,['d'],['d'],Y,Y,None,N,,,,,,,F,21,
22,12,342,3,3,7,['d'],['k'],N,N,None,Y,,,,,,,F,21,
22,13,343,2,2,7,['k'],['k'],Y,Y,['space'],Y,,,,,,,F,21,
22,14,344,7,7,7,['d'],['d'],Y,Y,['space'],Y,,,,,,,F,21,
23,0,345,4,4,7,['k'],['k'],Y,N,None,Y,,,,,,,F,21,
23,1,346,13,13,7,['d'],['d'],Y,N,None,Y,,,,,,,F,21,
23,2,347,11,11,7,['k'],['k'],Y,N,None,Y,,,,,,,F,21,
23,3,348,0,0,7,['d'],['d'],Y,N,['space'],N,,,,,,,F,21,
23,4,349,1,1,7,['k'],['k'],Y,N,['space'],N,44,39,25,,,,F,21,
23,5,350,1,1,8,['d'],['d'],Y,,,,,,,,,,F,21,
23,6,351,3,3,8,['k'],['k'],Y,,,,,,,,,,F,21,
23,7,352,14,14,8,['d'],['k'],N,N,None,Y,,,,,,,F,21,
23,8,353,8,8,8,['k'],['k'],Y,Y,['space'],Y,,,,,,,F,21,
23,9,354,5,5,8,['d'],['d'],Y,N,None,Y,,,,,,,F,21,
23,10,355,11,11,8,['k'],['k'],Y,Y,['space'],Y,,,,,,,F,21,
23,11,356,0,0,8,['k'],['k'],Y,N,['space'],N,,,,,,,F,21,
23,12,357,3,3,8,['k'],['k'],Y,N,None,Y,,,,,,,F,21,
23,13,358,12,12,8,['d'],['k'],N,Y,['space'],Y,,,,,,,F,21,
23,14,359,4,4,8,['k'],['k'],Y,Y,['space'],Y,,,,,,,F,21,
24,0,360,2,2,8,['d'],['d'],Y,N,None,Y,,,,,,,F,21,
24,1,361,9,9,8,['k'],['k'],Y,N,['space'],N,,,,,,,F,21,
24,2,362,2,2,8,['k'],['k'],Y,Y,['space'],Y,,,,,,,F,21,
24,3,363,0,0,8,['k'],['k'],Y,N,['space'],N,,,,,,,F,21,
24,4,364,11,11,8,['d'],['d'],Y,N,['space'],N,,,,,,,F,21,
24,5,365,3,3,8,['k'],['k'],Y,Y,None,N,,,,,,,F,21,
24,6,366,13,13,8,['k'],['d'],N,N,['space'],N,,,,,,,F,21,
24,7,367,8,8,8,['d'],['d'],Y,Y,['space'],Y,,,,,,,F,21,
24,8,368,12,12,8,['d'],['d'],Y,N,None,Y,,,,,,,F,21,
24,9,369,14,14,8,['k'],['k'],Y,Y,['space'],Y,,,,,,,F,21,
24,10,370,10,10,8,['d'],['d'],Y,N,None,Y,,,,,,,F,21,
24,11,371,9,9,8,['k'],['k'],Y,N,None,Y,,,,,,,F,21,
24,12,372,5,5,8,['d'],['d'],Y,Y,['space'],Y,,,,,,,F,21,
24,13,373,12,12,8,['k'],['d'],N,N,None,Y,,,,,,,F,21,
24,14,374,7,7,8,['d'],['d'],Y,Y,None,N,,,,,,,F,21,
25,0,375,1,1,8,['k'],['k'],Y,N,None,Y,,,,,,,F,21,
25,1,376,6,6,8,['d'],['d'],Y,N,None,Y,,,,,,,F,21,
25,2,377,6,6,8,['k'],['k'],Y,N,None,Y,,,,,,,F,21,
25,3,378,3,3,8,['k'],['k'],Y,N,['space'],N,,,,,,,F,21,
25,4,379,0,0,8,['k'],['k'],Y,N,None,Y,,,,,,,F,21,
25,5,380,8,8,8,['k'],['k'],Y,Y,None,N,,,,,,,F,21,
25,6,381,11,11,8,['d'],['d'],Y,Y,['space'],Y,,,,,,,F,21,
25,7,382,6,6,8,['k'],['k'],Y,Y,['space'],Y,,,,,,,F,21,
25,8,383,6,6,8,['d'],['d'],Y,N,['space'],N,,,,,,,F,21,
25,9,384,8,8,8,['k'],['k'],Y,Y,None,N,,,,,,,F,21,
25,10,385,9,9,8,['d'],['d'],Y,N,None,Y,,,,,,,F,21,
25,11,386,9,9,8,['d'],['d'],Y,Y,['space'],Y,,,,,,,F,21,
25,12,387,9,9,8,['k'],['k'],Y,Y,['space'],Y,,,,,,,F,21,
25,13,388,11,11,8,['d'],['k'],N,Y,None,N,,,,,,,F,21,
25,14,389,8,8,8,['k'],['k'],Y,N,None,Y,,,,,,,F,21,
26,0,390,7,7,8,['k'],['k'],Y,Y,['space'],Y,,,,,,,F,21,
26,1,391,13,13,8,['k'],['k'],Y,N,['space'],N,,,,,,,F,21,
26,2,392,11,11,8,['d'],['d'],Y,Y,None,N,,,,,,,F,21,
26,3,393,14,14,8,['d'],['d'],Y,Y,['space'],Y,,,,,,,F,21,
26,4,394,1,1,8,['k'],['k'],Y,Y,['space'],Y,,,,,,,F,21,
26,5,395,7,7,8,['k'],['d'],N,N,None,Y,,,,,,,F,21,
26,6,396,4,4,8,['d'],['d'],Y,N,None,Y,,,,,,,F,21,
26,7,397,6,6,8,['d'],['d'],Y,N,None,Y,,,,,,,F,21,
26,8,398,4,4,8,['k'],['k'],Y,Y,['space'],Y,,,,,,,F,21,
26,9,399,7,7,8,['d'],['d'],Y,N,None,Y,44,34,22,,,,F,21,
26,10,400,0,0,9,['k'],['k'],Y,,,,,,,,,,F,21,
26,11,401,12,12,9,['d'],['d'],Y,,,,,,,,,,F,21,
26,12,402,6,6,9,['k'],['k'],Y,N,None,Y,,,,,,,F,21,
26,13,403,13,13,9,['d'],['d'],Y,Y,['space'],Y,,,,,,,F,21,
26,14,404,6,6,9,['d'],['d'],Y,Y,['space'],Y,,,,,,,F,21,
27,0,405,7,7,9,['k'],['k'],Y,N,None,Y,,,,,,,F,21,
27,1,406,12,12,9,['k'],['d'],N,Y,['space'],Y,,,,,,,F,21,
27,2,407,4,4,9,['k'],['d'],N,N,['space'],N,,,,,,,F,21,
27,3,408,4,4,9,['k'],['k'],Y,Y,['space'],Y,,,,,,,F,21,
27,4,409,2,2,9,['k'],['k'],Y,N,None,Y,,,,,,,F,21,
27,5,410,12,12,9,['k'],['d'],N,N,None,Y,,,,,,,F,21,
27,6,411,4,4,9,['k'],['k'],Y,N,None,Y,,,,,,,F,21,
27,7,412,14,14,9,['d'],['d'],Y,N,None,Y,,,,,,,F,21,
27,8,413,3,3,9,['k'],['d'],N,Y,['space'],Y,,,,,,,F,21,
27,9,414,13,13,9,['k'],['k'],Y,N,None,Y,,,,,,,F,21,
27,10,415,9,9,9,['d'],['d'],Y,Y,None,N,,,,,,,F,21,
27,11,416,3,3,9,['k'],['k'],Y,Y,['space'],Y,,,,,,,F,21,
27,12,417,11,11,9,['d'],['d'],Y,Y,['space'],Y,,,,,,,F,21,
27,13,418,11,11,9,['d'],['d'],Y,Y,['space'],Y,,,,,,,F,21,
27,14,419,2,2,9,['k'],['d'],N,N,['space'],N,,,,,,,F,21,
28,0,420,11,11,9,['d'],['d'],Y,N,None,Y,,,,,,,F,21,
28,1,421,11,11,9,['k'],['k'],Y,Y,None,N,,,,,,,F,21,
28,2,422,10,10,9,['d'],['d'],Y,Y,['space'],Y,,,,,,,F,21,
28,3,423,12,12,9,['k'],['k'],Y,N,None,Y,,,,,,,F,21,
28,4,424,14,14,9,['d'],['k'],N,Y,None,N,,,,,,,F,21,
28,5,425,14,14,9,['k'],['k'],Y,N,None,Y,,,,,,,F,21,
28,6,426,3,3,9,['d'],['k'],N,Y,['space'],Y,,,,,,,F,21,
28,7,427,6,6,9,['k'],['k'],Y,Y,None,N,,,,,,,F,21,
28,8,428,2,2,9,['d'],['d'],Y,Y,None,N,,,,,,,F,21,
28,9,429,10,10,9,['k'],['k'],Y,Y,['space'],Y,,,,,,,F,21,
28,10,430,10,10,9,['k'],['k'],Y,N,None,Y,,,,,,,F,21,
28,11,431,7,7,9,['d'],['d'],Y,Y,['space'],Y,,,,,,,F,21,
28,12,432,1,1,9,['k'],['k'],Y,N,None,Y,,,,,,,F,21,
28,13,433,6,6,9,['d'],['d'],Y,N,None,Y,,,,,,,F,21,
28,14,434,0,0,9,['d'],['d'],Y,N,None,Y,,,,,,,F,21,
29,0,435,10,10,9,['k'],['d'],N,N,None,Y,,,,,,,F,21,
29,1,436,3,3,9,['k'],['d'],N,N,None,Y,,,,,,,F,21,
29,2,437,5,5,9,['k'],['k'],Y,Y,['space'],Y,,,,,,,F,21,
29,3,438,8,8,9,['k'],['k'],Y,N,None,Y,,,,,,,F,21,
29,4,439,8,8,9,['k'],['k'],Y,N,None,Y,,,,,,,F,21,
29,5,440,13,13,9,['k'],['k'],Y,N,['space'],N,,,,,,,F,21,
29,6,441,3,3,9,['d'],['k'],N,N,None,Y,,,,,,,F,21,
29,7,442,6,6,9,['k'],['k'],Y,Y,['space'],Y,,,,,,,F,21,
29,8,443,8,8,9,['k'],['k'],Y,N,['space'],N,,,,,,,F,21,
29,9,444,14,14,9,['d'],['d'],Y,N,['space'],N,,,,,,,F,21,
29,10,445,0,0,9,['k'],['d'],N,N,None,Y,,,,,,,F,21,
29,11,446,4,4,9,['k'],['k'],Y,Y,None,N,,,,,,,F,21,
29,12,447,3,3,9,['k'],['k'],Y,Y,['space'],Y,,,,,,,F,21,
29,13,448,3,3,9,['k'],['k'],Y,Y,None,N,,,,,,,F,21,
29,14,449,8,8,9,['d'],['k'],N,Y,['space'],Y,38,36,23,,,,F,21,
30,0,450,7,7,10,['k'],['k'],Y,,,,,,,,,,F,21,
30,1,451,13,13,10,['k'],['k'],Y,,,,,,,,,,F,21,
30,2,452,8,8,10,['k'],['d'],N,Y,None,N,,,,,,,F,21,
30,3,453,6,6,10,['d'],['d'],Y,N,None,Y,,,,,,,F,21,
30,4,454,10,10,10,['d'],['d'],Y,Y,['space'],Y,,,,,,,F,21,
30,5,455,2,2,10,['k'],['k'],Y,N,None,Y,,,,,,,F,21,
30,6,456,14,14,10,['d'],['d'],Y,N,None,Y,,,,,,,F,21,
30,7,457,7,7,10,['k'],['k'],Y,N,None,Y,,,,,,,F,21,
30,8,458,14,14,10,['d'],['d'],Y,N,None,Y,,,,,,,F,21,
30,9,459,6,6,10,['k'],['k'],Y,Y,['space'],Y,,,,,,,F,21,
30,10,460,8,8,10,['k'],['k'],Y,Y,['k'],N,,,,,,,F,21,
30,11,461,3,3,10,['k'],['k'],Y,N,None,Y,,,,,,,F,21,
30,12,462,14,14,10,['d'],['d'],Y,Y,['space'],Y,,,,,,,F,21,
30,13,463,2,2,10,['d'],['d'],Y,N,None,Y,,,,,,,F,21,
30,14,464,1,1,10,['d'],['d'],Y,Y,None,N,,,,,,,F,21,
31,0,465,1,1,10,['k'],['k'],Y,N,None,Y,,,,,,,F,21,
31,1,466,6,6,10,['k'],['k'],Y,Y,['space'],Y,,,,,,,F,21,
31,2,467,14,14,10,['k'],['k'],Y,N,None,Y,,,,,,,F,21,
31,3,468,8,8,10,['d'],['k'],N,Y,None,N,,,,,,,F,21,
31,4,469,4,4,10,['k'],['d'],N,N,None,Y,,,,,,,F,21,
31,5,470,5,5,10,['k'],['k'],Y,Y,['space'],Y,,,,,,,F,21,
31,6,471,14,14,10,['d'],['k'],N,Y,['space'],Y,,,,,,,F,21,
31,7,472,10,10,10,['k'],['k'],Y,N,None,Y,,,,,,,F,21,
31,8,473,3,3,10,['d'],['d'],Y,N,None,Y,,,,,,,F,21,
31,9,474,3,3,10,['k'],['k'],Y,Y,['space'],Y,,,,,,,F,21,
31,10,475,4,4,10,['d'],['k'],N,Y,['space'],Y,,,,,,,F,21,
31,11,476,9,9,10,['k'],['k'],Y,Y,['space'],Y,,,,,,,F,21,
31,12,477,7,7,10,['d'],['d'],Y,Y,['space'],Y,,,,,,,F,21,
31,13,478,3,3,10,['k'],['k'],Y,Y,['space'],Y,,,,,,,F,21,
31,14,479,12,12,10,['d'],['d'],Y,N,None,Y,,,,,,,F,21,
32,0,480,12,12,10,['k'],['k'],Y,Y,None,N,,,,,,,F,21,
32,1,481,9,9,10,['k'],['k'],Y,N,None,Y,,,,,,,F,21,
32,2,482,5,5,10,['d'],['d'],Y,Y,None,N,,,,,,,F,21,
32,3,483,0,0,10,['k'],['k'],Y,Y,None,N,,,,,,,F,21,
32,4,484,13,13,10,['k'],['k'],Y,Y,['space'],Y,,,,,,,F,21,
32,5,485,8,8,10,['d'],['k'],N,N,None,Y,,,,,,,F,21,
32,6,486,1,1,10,['k'],['d'],N,Y,None,N,,,,,,,F,21,
32,7,487,9,9,10,['d'],['d'],Y,Y,['space'],Y,,,,,,,F,21,
32,8,488,5,5,10,['k'],['k'],Y,Y,['space'],Y,,,,,,,F,21,
32,9,489,7,7,10,['k'],['k'],Y,N,None,Y,,,,,,,F,21,
32,10,490,11,11,10,['d'],['d'],Y,Y,['space'],Y,,,,,,,F,21,
32,11,491,1,1,10,['d'],['d'],Y,N,None,Y,,,,,,,F,21,
32,12,492,13,13,10,['k'],['d'],N,Y,None,N,,,,,,,F,21,
32,13,493,11,11,10,['d'],['d'],Y,Y,['space'],Y,,,,,,,F,21,
32,14,494,0,0,10,['d'],['d'],Y,N,None,Y,,,,,,,F,21,
33,0,495,13,13,10,['k'],['k'],Y,N,None,Y,,,,,,,F,21,
33,1,496,7,7,10,['k'],['k'],Y,N,None,Y,,,,,,,F,21,
33,2,497,7,7,10,['d'],['d'],Y,N,None,Y,,,,,,,F,21,
33,3,498,5,5,10,['d'],['d'],Y,N,None,Y,,,,,,,F,21,
33,4,499,4,4,10,['d'],['k'],N,N,None,Y,41,39,25,,,,F,21,
33,5,500,14,14,11,['d'],['k'],Y,,,,,,,Y,Y,Y,F,21,
33,6,501,10,10,11,['d'],['k'],Y,,,,,,,,Y,Y,F,21,
33,7,502,4,4,11,['d'],['k'],Y,N,None,Y,,,,,Y,Y,F,21,
33,8,503,1,1,11,['k'],['k'],N,N,None,Y,,,,,Y,Y,F,21,
33,9,504,3,3,11,['k'],['d'],Y,N,None,Y,,,,,Y,Y,F,21,
33,10,505,7,7,11,['d'],['k'],Y,N,None,Y,,,,,Y,Y,F,21,
33,11,506,2,2,11,['k'],['k'],N,N,None,Y,,,,,Y,Y,F,21,
33,12,507,8,8,11,['d'],['k'],Y,Y,['space'],Y,,,,,Y,Y,F,21,
33,13,508,12,12,11,['d'],['d'],N,Y,['space'],Y,,,,,Y,Y,F,21,
33,14,509,6,6,11,['d'],['d'],N,Y,['space'],Y,,,,,Y,Y,F,21,
34,0,510,10,10,11,['d'],['d'],N,Y,['space'],Y,,,,,Y,Y,F,21,
34,1,511,8,8,11,['d'],['d'],N,Y,['space'],Y,,,,,Y,Y,F,21,
34,2,512,13,13,11,['k'],['d'],Y,Y,['space'],Y,,,,,Y,Y,F,21,
34,3,513,13,13,11,['d'],['k'],Y,N,None,Y,,,,,Y,Y,F,21,
34,4,514,13,13,11,['d'],['k'],Y,N,['space'],N,,,,,Y,Y,F,21,
34,5,515,4,4,11,['d'],['k'],Y,N,None,Y,,,,,Y,Y,F,21,
34,6,516,6,6,11,['d'],['k'],Y,Y,['space'],Y,,,,,Y,Y,F,21,
34,7,517,0,0,11,['d'],['k'],Y,Y,['space'],Y,,,,,Y,Y,F,21,
34,8,518,11,11,11,['d'],['d'],N,N,['space'],N,,,,,Y,Y,F,21,
34,9,519,11,11,11,['d'],['k'],Y,Y,['space'],Y,,,,,Y,Y,F,21,
34,10,520,1,1,11,['k'],['k'],N,N,None,Y,,,,,Y,Y,F,21,
34,11,521,10,10,11,['d'],['k'],Y,Y,['space'],Y,,,,,Y,Y,F,21,
34,12,522,3,3,11,['d'],['k'],Y,Y,['space'],Y,,,,,Y,Y,F,21,
34,13,523,13,13,11,['d'],['k'],Y,Y,None,N,,,,,Y,Y,F,21,
34,14,524,4,4,11,['k'],['d'],Y,N,None,Y,,,,,Y,Y,F,21,
35,0,525,7,7,11,['k'],['d'],Y,N,None,Y,,,,,Y,Y,F,21,
35,1,526,1,1,11,['d'],['k'],Y,N,None,Y,,,,,Y,Y,F,21,
35,2,527,1,1,11,['k'],['d'],Y,Y,['space'],Y,,,,,Y,Y,F,21,
35,3,528,5,5,11,['k'],['d'],Y,N,None,Y,,,,,Y,Y,F,21,
35,4,529,5,5,11,['k'],['d'],Y,Y,None,N,,,,,Y,Y,F,21,
35,5,530,12,12,11,['k'],['d'],Y,Y,['space'],Y,,,,,Y,Y,F,21,
35,6,531,0,0,11,['d'],['k'],Y,Y,['space'],Y,,,,,Y,Y,F,21,
35,7,532,4,4,11,['d'],['k'],Y,N,['space'],N,,,,,Y,Y,F,21,
35,8,533,2,2,11,['k'],['d'],Y,Y,['space'],Y,,,,,Y,Y,F,21,
35,9,534,7,7,11,['k'],['d'],Y,N,['space'],N,,,,,Y,Y,F,21,
35,10,535,5,5,11,['k'],['d'],Y,N,None,Y,,,,,Y,Y,F,21,
35,11,536,4,4,11,['k'],['d'],Y,Y,['space'],Y,,,,,Y,Y,F,21,
35,12,537,12,12,11,['k'],['d'],Y,N,None,Y,,,,,Y,Y,F,21,
35,13,538,10,10,11,['d'],['d'],N,Y,None,N,,,,,Y,Y,F,21,
35,14,539,14,14,11,['d'],['k'],Y,Y,['space'],Y,,,,,Y,Y,F,21,
36,0,540,9,9,11,['d'],['k'],Y,Y,['space'],Y,,,,,Y,Y,F,21,
36,1,541,1,1,11,['k'],['d'],Y,N,None,Y,,,,,Y,Y,F,21,
36,2,542,9,9,11,['d'],['d'],N,Y,['space'],Y,,,,,Y,Y,F,21,
36,3,543,5,5,11,['k'],['k'],N,N,None,Y,,,,,Y,Y,F,21,
36,4,544,5,5,11,['k'],['d'],Y,N,None,Y,,,,,Y,Y,F,21,
36,5,545,4,4,11,['k'],['d'],Y,N,None,Y,,,,,Y,Y,F,21,
36,6,546,12,12,11,['d'],['k'],Y,Y,['space'],Y,,,,,Y,Y,F,21,
36,7,547,5,5,11,['k'],['d'],Y,Y,['space'],Y,,,,,Y,Y,F,21,
36,8,548,1,1,11,['d'],['k'],Y,Y,['k'],N,,,,,Y,Y,F,21,
36,9,549,4,4,11,['d'],['k'],Y,N,['space'],N,39,39,25,,Y,Y,F,21,
36,10,550,4,4,12,['d'],['k'],Y,,,,,,,,Y,Y,F,21,
36,11,551,1,1,12,['d'],['k'],Y,,,,,,,,Y,Y,F,21,
36,12,552,10,10,12,['d'],['k'],Y,N,None,Y,,,,,Y,Y,F,21,
36,13,553,2,2,12,['k'],['d'],Y,Y,None,N,,,,,Y,Y,F,21,
36,14,554,7,7,12,['k'],['d'],Y,Y,['space'],Y,,,,,Y,Y,F,21,
37,0,555,3,3,12,['k'],['d'],Y,N,None,Y,,,,,Y,Y,F,21,
37,1,556,3,3,12,['k'],['d'],Y,N,None,Y,,,,,Y,Y,F,21,
37,2,557,7,7,12,['d'],['k'],Y,Y,['space'],Y,,,,,Y,Y,F,21,
37,3,558,0,0,12,['d'],['k'],Y,N,None,Y,,,,,Y,Y,F,21,
37,4,559,3,3,12,['k'],['d'],Y,N,None,Y,,,,,Y,Y,F,21,
37,5,560,9,9,12,['d'],['k'],Y,N,['space'],N,,,,,Y,Y,F,21,
37,6,561,8,8,12,['d'],['k'],Y,N,['space'],N,,,,,Y,Y,F,21,
37,7,562,11,11,12,['k'],['d'],Y,N,None,Y,,,,,Y,Y,F,21,
37,8,563,10,10,12,['d'],['k'],Y,Y,['space'],Y,,,,,Y,Y,F,21,
37,9,564,13,13,12,['d'],['k'],Y,Y,['space'],Y,,,,,Y,Y,F,21,
37,10,565,1,1,12,['k'],['d'],Y,N,['space'],N,,,,,Y,Y,F,21,
37,11,566,8,8,12,['d'],['k'],Y,Y,['space'],Y,,,,,Y,Y,F,21,
37,12,567,5,5,12,['k'],['d'],Y,N,['space'],N,,,,,Y,Y,F,21,
37,13,568,5,5,12,['k'],['d'],Y,N,None,Y,,,,,Y,Y,F,21,
37,14,569,11,11,12,['d'],['k'],Y,N,None,Y,,,,,Y,Y,F,21,
38,0,570,14,14,12,['k'],['k'],N,N,None,Y,,,,,Y,Y,F,21,
38,1,571,2,2,12,['d'],['d'],N,Y,['space'],Y,,,,,Y,Y,F,21,
38,2,572,1,1,12,['d'],['k'],Y,N,None,Y,,,,,Y,Y,F,21,
38,3,573,12,12,12,['k'],['d'],Y,N,None,Y,,,,,Y,Y,F,21,
38,4,574,3,3,12,['d'],['k'],Y,N,None,Y,,,,,Y,Y,F,21,
38,5,575,6,6,12,['k'],['k'],N,Y,['space'],Y,,,,,Y,Y,F,21,
38,6,576,12,12,12,['k'],['d'],Y,N,['space'],N,,,,,Y,Y,F,21,
38,7,577,3,3,12,['d'],['k'],Y,Y,['space'],Y,,,,,Y,Y,F,21,
38,8,578,9,9,12,['k'],['k'],N,N,None,Y,,,,,Y,Y,F,21,
38,9,579,2,2,12,['d'],['k'],Y,N,None,Y,,,,,Y,Y,F,21,
38,10,580,0,0,12,['d'],['k'],Y,N,['space'],N,,,,,Y,Y,F,21,
38,11,581,5,5,12,['k'],['d'],Y,Y,['space'],Y,,,,,Y,Y,F,21,
38,12,582,5,5,12,['k'],['d'],Y,N,['space'],N,,,,,Y,Y,F,21,
38,13,583,0,0,12,['k'],['d'],Y,N,None,Y,,,,,Y,Y,F,21,
38,14,584,4,4,12,['k'],['d'],Y,Y,None,N,,,,,Y,Y,F,21,
39,0,585,5,5,12,['k'],['d'],Y,N,['space'],N,,,,,Y,Y,F,21,
39,1,586,7,7,12,['d'],['k'],Y,N,None,Y,,,,,Y,Y,F,21,
39,2,587,6,6,12,['k'],['k'],N,Y,['space'],Y,,,,,Y,Y,F,21,
39,3,588,4,4,12,['k'],['d'],Y,N,None,Y,,,,,Y,Y,F,21,
39,4,589,12,12,12,['k'],['d'],Y,Y,None,N,,,,,Y,Y,F,21,
39,5,590,2,2,12,['k'],['d'],Y,N,None,Y,,,,,Y,Y,F,21,
39,6,591,10,10,12,['d'],['k'],Y,N,None,Y,,,,,Y,Y,F,21,
39,7,592,14,14,12,['d'],['k'],Y,N,None,Y,,,,,Y,Y,F,21,
39,8,593,12,12,12,['d'],['k'],Y,N,None,Y,,,,,Y,Y,F,21,
39,9,594,1,1,12,['d'],['k'],Y,Y,['space'],Y,,,,,Y,Y,F,21,
39,10,595,2,2,12,['k'],['d'],Y,N,None,Y,,,,,Y,Y,F,21,
39,11,596,14,14,12,['d'],['k'],Y,N,None,Y,,,,,Y,Y,F,21,
39,12,597,0,0,12,['d'],['k'],Y,Y,['space'],Y,,,,,Y,Y,F,21,
39,13,598,11,11,12,['d'],['k'],Y,Y,['space'],Y,,,,,Y,Y,F,21,
39,14,599,10,10,12,['k'],['d'],Y,N,None,Y,45,37,16,,Y,Y,F,21,
