.thisRepN,.thisTrialN,.thisN,.thisIndex,.thisTrial,Block Number,Key pressed,Category,Correct?,Int Match?,Int Response,Int Correct?,Line Accuracy,Interference Accuracy,Matching Interferences,New instruction shown?,Buttons switched?,Fast?,gender,age,
0,0,0,0,0,1,['k'],['d'],N,,,,,,,,,,f,22,
0,1,1,2,2,1,['d'],['k'],N,,,,,,,,,,f,22,
0,2,2,0,0,1,['k'],['k'],Y,Y,['space'],Y,,,,,,,f,22,
0,3,3,1,1,1,['d'],['k'],N,Y,['k'],N,,,,,,,f,22,
0,4,4,13,13,1,['k'],['k'],Y,Y,None,N,,,,,,,f,22,
0,5,5,4,4,1,['d'],['d'],Y,N,['space'],N,,,,,,,f,22,
0,6,6,10,10,1,['k'],['d'],N,Y,['space'],Y,,,,,,,f,22,
0,7,7,1,1,1,['k'],['k'],Y,N,None,Y,,,,,,,f,22,
0,8,8,2,2,1,['d'],['k'],N,Y,None,N,,,,,,,f,22,
0,9,9,5,5,1,['k'],['k'],Y,N,None,Y,,,,,,,f,22,
0,10,10,8,8,1,['d'],['k'],N,Y,None,N,,,,,,,f,22,
0,11,11,13,13,1,['k'],['d'],N,N,None,Y,,,,,,,f,22,
0,12,12,12,12,1,['d'],['d'],Y,N,None,Y,,,,,,,f,22,
0,13,13,10,10,1,['k'],['k'],Y,N,None,Y,,,,,,,f,22,
0,14,14,12,12,1,['d'],['k'],N,Y,['space'],Y,,,,,,,f,22,
1,0,15,8,8,1,['k'],['k'],Y,N,None,Y,,,,,,,f,22,
1,1,16,7,7,1,['k'],['d'],N,N,None,Y,,,,,,,f,22,
1,2,17,2,2,1,['k'],['d'],N,Y,None,N,,,,,,,f,22,
1,3,18,3,3,1,['k'],['d'],N,Y,None,N,,,,,,,f,22,
1,4,19,3,3,1,['k'],['d'],N,N,None,Y,,,,,,,f,22,
1,5,20,1,1,1,['k'],['k'],Y,N,None,Y,,,,,,,f,22,
1,6,21,1,1,1,['d'],['d'],Y,Y,['space'],Y,,,,,,,f,22,
1,7,22,11,11,1,['k'],['k'],Y,Y,None,N,,,,,,,f,22,
1,8,23,12,12,1,['d'],['k'],N,Y,None,N,,,,,,,f,22,
1,9,24,8,8,1,['k'],['k'],Y,N,None,Y,,,,,,,f,22,
1,10,25,7,7,1,['k'],['d'],N,Y,['space'],Y,,,,,,,f,22,
1,11,26,0,0,1,['d'],['d'],Y,N,['space'],N,,,,,,,f,22,
1,12,27,4,4,1,['d'],['k'],N,Y,None,N,,,,,,,f,22,
1,13,28,3,3,1,['k'],['k'],Y,Y,None,N,,,,,,,f,22,
1,14,29,10,10,1,['d'],['d'],Y,Y,None,N,,,,,,,f,22,
2,0,30,5,5,1,['k'],['d'],N,N,None,Y,,,,,,,f,22,
2,1,31,14,14,1,['k'],['k'],Y,N,None,Y,,,,,,,f,22,
2,2,32,5,5,1,['d'],['d'],Y,Y,None,N,,,,,,,f,22,
2,3,33,10,10,1,['k'],['d'],N,N,None,Y,,,,,,,f,22,
2,4,34,5,5,1,['k'],['k'],Y,Y,None,N,,,,,,,f,22,
2,5,35,8,8,1,['d'],['k'],N,N,['space'],N,,,,,,,f,22,
2,6,36,6,6,1,['k'],['d'],N,Y,None,N,,,,,,,f,22,
2,7,37,6,6,1,['k'],['k'],Y,N,None,Y,,,,,,,f,22,
2,8,38,6,6,1,['d'],['k'],N,N,None,Y,,,,,,,f,22,
2,9,39,5,5,1,['k'],['k'],Y,Y,None,N,,,,,,,f,22,
2,10,40,7,7,1,['d'],['d'],Y,Y,['space'],Y,,,,,,,f,22,
2,11,41,2,2,1,['k'],['k'],Y,Y,['space'],Y,,,,,,,f,22,
2,12,42,10,10,1,['k'],['d'],N,N,None,Y,,,,,,,f,22,
2,13,43,11,11,1,['k'],['k'],Y,Y,None,N,,,,,,,f,22,
2,14,44,5,5,1,['k'],['k'],Y,Y,['space'],Y,,,,,,,f,22,
3,0,45,13,13,1,['k'],['k'],Y,Y,['space'],Y,,,,,,,f,22,
3,1,46,14,14,1,['d'],['d'],Y,N,None,Y,,,,,,,f,22,
3,2,47,14,14,1,['d'],['k'],N,N,['space'],N,,,,,,,f,22,
3,3,48,12,12,1,['d'],['d'],Y,N,None,Y,,,,,,,f,22,
3,4,49,4,4,1,['d'],['d'],Y,N,None,Y,28,28,25,,,,f,22,
3,5,50,13,13,2,['k'],['k'],Y,,,,,,,,,,f,22,
3,6,51,7,7,2,['k'],['d'],N,,,,,,,,,,f,22,
3,7,52,1,1,2,['k'],['k'],Y,N,None,Y,,,,,,,f,22,
3,8,53,3,3,2,['d'],['d'],Y,N,None,Y,,,,,,,f,22,
3,9,54,14,14,2,['k'],['d'],N,N,None,Y,,,,,,,f,22,
3,10,55,9,9,2,['d'],['k'],N,N,None,Y,,,,,,,f,22,
3,11,56,4,4,2,['d'],['d'],Y,N,None,Y,,,,,,,f,22,
3,12,57,0,0,2,['k'],['k'],Y,Y,None,N,,,,,,,f,22,
3,13,58,10,10,2,['d'],['d'],Y,N,['space'],N,,,,,,,f,22,
3,14,59,12,12,2,['d'],['d'],Y,Y,None,N,,,,,,,f,22,
4,0,60,11,11,2,['k'],['k'],Y,N,None,Y,,,,,,,f,22,
4,1,61,7,7,2,['d'],['k'],N,Y,None,N,,,,,,,f,22,
4,2,62,11,11,2,['k'],['d'],N,N,None,Y,,,,,,,f,22,
4,3,63,6,6,2,['d'],['d'],Y,Y,['space'],Y,,,,,,,f,22,
4,4,64,4,4,2,['d'],['d'],Y,N,None,Y,,,,,,,f,22,
4,5,65,2,2,2,['k'],['k'],Y,N,['space'],N,,,,,,,f,22,
4,6,66,0,0,2,['d'],['d'],Y,Y,None,N,,,,,,,f,22,
4,7,67,14,14,2,['d'],['k'],N,Y,None,N,,,,,,,f,22,
4,8,68,14,14,2,['k'],['d'],N,N,None,Y,,,,,,,f,22,
4,9,69,13,13,2,['k'],['k'],Y,Y,None,N,,,,,,,f,22,
4,10,70,10,10,2,['k'],['k'],Y,N,None,Y,,,,,,,f,22,
4,11,71,10,10,2,['d'],['d'],Y,N,['space'],N,,,,,,,f,22,
4,12,72,7,7,2,['k'],['k'],Y,Y,None,N,,,,,,,f,22,
4,13,73,4,4,2,['k'],['d'],N,Y,['space'],Y,,,,,,,f,22,
4,14,74,12,12,2,['k'],['d'],N,N,None,Y,,,,,,,f,22,
5,0,75,8,8,2,['k'],['k'],Y,N,None,Y,,,,,,,f,22,
5,1,76,14,14,2,['k'],['k'],Y,N,None,Y,,,,,,,f,22,
5,2,77,4,4,2,['k'],['k'],Y,Y,['space'],Y,,,,,,,f,22,
5,3,78,6,6,2,['d'],['d'],Y,N,None,Y,,,,,,,f,22,
5,4,79,2,2,2,['d'],['k'],N,N,None,Y,,,,,,,f,22,
5,5,80,5,5,2,['k'],['k'],Y,N,None,Y,,,,,,,f,22,
5,6,81,12,12,2,['k'],['d'],N,N,['space'],N,,,,,,,f,22,
5,7,82,4,4,2,['k'],['k'],Y,Y,None,N,,,,,,,f,22,
5,8,83,8,8,2,['k'],['k'],Y,Y,['space'],Y,,,,,,,f,22,
5,9,84,8,8,2,['d'],['d'],Y,Y,['space'],Y,,,,,,,f,22,
5,10,85,6,6,2,['d'],['k'],N,N,None,Y,,,,,,,f,22,
5,11,86,12,12,2,['d'],['k'],N,N,None,Y,,,,,,,f,22,
5,12,87,6,6,2,['k'],['k'],Y,N,None,Y,,,,,,,f,22,
5,13,88,14,14,2,['d'],['k'],N,Y,['space'],Y,,,,,,,f,22,
5,14,89,1,1,2,['k'],['k'],Y,Y,None,N,,,,,,,f,22,
6,0,90,6,6,2,['k'],['d'],N,Y,['space'],Y,,,,,,,f,22,
6,1,91,5,5,2,['k'],['k'],Y,Y,None,N,,,,,,,f,22,
6,2,92,12,12,2,['k'],['k'],Y,Y,['space'],Y,,,,,,,f,22,
6,3,93,8,8,2,['k'],['d'],N,Y,['space'],Y,,,,,,,f,22,
6,4,94,0,0,2,['d'],['k'],N,N,None,Y,,,,,,,f,22,
6,5,95,1,1,2,['k'],['d'],N,N,None,Y,,,,,,,f,22,
6,6,96,1,1,2,['d'],['d'],Y,N,['space'],N,,,,,,,f,22,
6,7,97,13,13,2,['d'],['d'],Y,N,None,Y,,,,,,,f,22,
6,8,98,2,2,2,['k'],['d'],N,Y,None,N,,,,,,,f,22,
6,9,99,6,6,2,['k'],['d'],N,Y,None,N,30,31,21,,,,f,22,
6,10,100,11,11,3,['k'],['d'],N,,,,,,,,,,f,22,
6,11,101,10,10,3,['k'],['d'],N,,,,,,,,,,f,22,
6,12,102,7,7,3,['k'],['d'],N,N,None,Y,,,,,,,f,22,
6,13,103,2,2,3,['d'],['d'],Y,N,None,Y,,,,,,,f,22,
6,14,104,6,6,3,['d'],['d'],Y,Y,None,N,,,,,,,f,22,
7,0,105,8,8,3,['k'],['k'],Y,Y,None,N,,,,,,,f,22,
7,1,106,3,3,3,['d'],['d'],Y,N,None,Y,,,,,,,f,22,
7,2,107,9,9,3,['d'],['d'],Y,Y,['space'],Y,,,,,,,f,22,
7,3,108,2,2,3,['k'],['k'],Y,N,None,Y,,,,,,,f,22,
7,4,109,8,8,3,['k'],['k'],Y,Y,['space'],Y,,,,,,,f,22,
7,5,110,9,9,3,['d'],['d'],Y,N,None,Y,,,,,,,f,22,
7,6,111,4,4,3,['k'],['k'],Y,N,None,Y,,,,,,,f,22,
7,7,112,14,14,3,['k'],['k'],Y,N,None,Y,,,,,,,f,22,
7,8,113,1,1,3,['d'],['k'],N,N,None,Y,,,,,,,f,22,
7,9,114,8,8,3,['d'],['d'],Y,N,None,Y,,,,,,,f,22,
7,10,115,8,8,3,['k'],['k'],Y,N,None,Y,,,,,,,f,22,
7,11,116,5,5,3,['k'],['d'],N,Y,['space'],Y,,,,,,,f,22,
7,12,117,6,6,3,['k'],['d'],N,N,None,Y,,,,,,,f,22,
7,13,118,2,2,3,['d'],['d'],Y,Y,None,N,,,,,,,f,22,
7,14,119,0,0,3,['k'],['d'],N,N,None,Y,,,,,,,f,22,
8,0,120,7,7,3,['d'],['k'],N,N,None,Y,,,,,,,f,22,
8,1,121,9,9,3,['k'],['k'],Y,Y,None,N,,,,,,,f,22,
8,2,122,5,5,3,['k'],['k'],Y,N,None,Y,,,,,,,f,22,
8,3,123,12,12,3,['k'],['k'],Y,N,None,Y,,,,,,,f,22,
8,4,124,11,11,3,['d'],['k'],N,N,None,Y,,,,,,,f,22,
8,5,125,2,2,3,['k'],['k'],Y,Y,['space'],Y,,,,,,,f,22,
8,6,126,5,5,3,['k'],['d'],N,Y,['space'],Y,,,,,,,f,22,
8,7,127,7,7,3,['k'],['d'],N,Y,['space'],Y,,,,,,,f,22,
8,8,128,14,14,3,['d'],['k'],N,N,['space'],N,,,,,,,f,22,
8,9,129,9,9,3,['k'],['k'],Y,Y,['space'],Y,,,,,,,f,22,
8,10,130,9,9,3,['d'],['d'],Y,Y,['space'],Y,,,,,,,f,22,
8,11,131,12,12,3,['k'],['d'],N,Y,['space'],Y,,,,,,,f,22,
8,12,132,1,1,3,['k'],['k'],Y,N,None,Y,,,,,,,f,22,
8,13,133,6,6,3,['k'],['d'],N,Y,['space'],Y,,,,,,,f,22,
8,14,134,7,7,3,['k'],['d'],N,N,None,Y,,,,,,,f,22,
9,0,135,12,12,3,['k'],['k'],Y,Y,['space'],Y,,,,,,,f,22,
9,1,136,11,11,3,['k'],['d'],N,Y,['space'],Y,,,,,,,f,22,
9,2,137,6,6,3,['k'],['d'],N,N,None,Y,,,,,,,f,22,
9,3,138,14,14,3,['k'],['d'],N,N,None,Y,,,,,,,f,22,
9,4,139,0,0,3,['k'],['d'],N,Y,None,N,,,,,,,f,22,
9,5,140,14,14,3,['k'],['k'],Y,N,None,Y,,,,,,,f,22,
9,6,141,3,3,3,['k'],['d'],N,N,None,Y,,,,,,,f,22,
9,7,142,9,9,3,['k'],['d'],N,N,None,Y,,,,,,,f,22,
9,8,143,10,10,3,['d'],['d'],Y,Y,['space'],Y,,,,,,,f,22,
9,9,144,6,6,3,['k'],['d'],N,Y,['space'],Y,,,,,,,f,22,
9,10,145,9,9,3,['k'],['k'],Y,N,None,Y,,,,,,,f,22,
9,11,146,4,4,3,['d'],['k'],N,N,None,Y,,,,,,,f,22,
9,12,147,7,7,3,['k'],['k'],Y,N,['space'],N,,,,,,,f,22,
9,13,148,7,7,3,['k'],['k'],Y,N,None,Y,,,,,,,f,22,
9,14,149,12,12,3,['k'],['k'],Y,N,None,Y,27,41,19,,,,f,22,
10,0,150,10,10,4,['k'],['d'],N,,,,,,,,,,f,22,
10,1,151,13,13,4,['k'],['k'],Y,,,,,,,,,,f,22,
10,2,152,7,7,4,['k'],['d'],N,Y,['space'],Y,,,,,,,f,22,
10,3,153,13,13,4,['k'],['k'],Y,N,None,Y,,,,,,,f,22,
10,4,154,14,14,4,['k'],['d'],N,N,['space'],N,,,,,,,f,22,
10,5,155,14,14,4,['k'],['k'],Y,N,None,Y,,,,,,,f,22,
10,6,156,8,8,4,['d'],['k'],N,Y,['space'],Y,,,,,,,f,22,
10,7,157,2,2,4,['k'],['k'],Y,Y,['space'],Y,,,,,,,f,22,
10,8,158,11,11,4,['d'],['d'],Y,Y,['space'],Y,,,,,,,f,22,
10,9,159,14,14,4,['k'],['k'],Y,N,None,Y,,,,,,,f,22,
10,10,160,10,10,4,['k'],['d'],N,Y,['space'],Y,,,,,,,f,22,
10,11,161,12,12,4,['k'],['k'],Y,N,None,Y,,,,,,,f,22,
10,12,162,12,12,4,['k'],['k'],Y,Y,['space'],Y,,,,,,,f,22,
10,13,163,14,14,4,['k'],['d'],N,Y,['space'],Y,,,,,,,f,22,
10,14,164,7,7,4,['k'],['k'],Y,Y,None,N,,,,,,,f,22,
11,0,165,9,9,4,['d'],['k'],N,Y,['space'],Y,,,,,,,f,22,
11,1,166,4,4,4,['k'],['k'],Y,Y,['space'],Y,,,,,,,f,22,
11,2,167,8,8,4,['k'],['d'],N,Y,['space'],Y,,,,,,,f,22,
11,3,168,12,12,4,['k'],['k'],Y,Y,None,N,,,,,,,f,22,
11,4,169,3,3,4,['k'],['d'],N,N,None,Y,,,,,,,f,22,
11,5,170,0,0,4,['k'],['k'],Y,N,None,Y,,,,,,,f,22,
11,6,171,5,5,4,['d'],['d'],Y,Y,['space'],Y,,,,,,,f,22,
11,7,172,3,3,4,['k'],['k'],Y,N,None,Y,,,,,,,f,22,
11,8,173,7,7,4,['d'],['d'],Y,N,None,Y,,,,,,,f,22,
11,9,174,7,7,4,['d'],['d'],Y,N,None,Y,,,,,,,f,22,
11,10,175,7,7,4,['k'],['k'],Y,N,None,Y,,,,,,,f,22,
11,11,176,2,2,4,['k'],['d'],N,Y,['space'],Y,,,,,,,f,22,
11,12,177,14,14,4,['d'],['d'],Y,N,None,Y,,,,,,,f,22,
11,13,178,7,7,4,['k'],['d'],N,Y,['space'],Y,,,,,,,f,22,
11,14,179,9,9,4,['k'],['d'],N,Y,['space'],Y,,,,,,,f,22,
12,0,180,2,2,4,['k'],['k'],Y,N,None,Y,,,,,,,f,22,
12,1,181,2,2,4,['k'],['k'],Y,Y,None,N,,,,,,,f,22,
12,2,182,3,3,4,['d'],['d'],Y,Y,None,N,,,,,,,f,22,
12,3,183,5,5,4,['k'],['d'],N,N,None,Y,,,,,,,f,22,
12,4,184,10,10,4,['k'],['k'],Y,N,None,Y,,,,,,,f,22,
12,5,185,5,5,4,['k'],['k'],Y,N,['space'],N,,,,,,,f,22,
12,6,186,14,14,4,['k'],['d'],N,N,None,Y,,,,,,,f,22,
12,7,187,14,14,4,['k'],['d'],N,N,None,Y,,,,,,,f,22,
12,8,188,1,1,4,['k'],['d'],N,N,None,Y,,,,,,,f,22,
12,9,189,1,1,4,['k'],['k'],Y,Y,['space'],Y,,,,,,,f,22,
12,10,190,5,5,4,['d'],['d'],Y,Y,['space'],Y,,,,,,,f,22,
12,11,191,13,13,4,['d'],['d'],Y,N,None,Y,,,,,,,f,22,
12,12,192,0,0,4,['d'],['k'],N,Y,None,N,,,,,,,f,22,
12,13,193,4,4,4,['k'],['k'],Y,N,None,Y,,,,,,,f,22,
12,14,194,14,14,4,['d'],['d'],Y,Y,['space'],Y,,,,,,,f,22,
13,0,195,13,13,4,['k'],['d'],N,N,None,Y,,,,,,,f,22,
13,1,196,7,7,4,['k'],['k'],Y,Y,None,N,,,,,,,f,22,
13,2,197,4,4,4,['d'],['k'],N,N,None,Y,,,,,,,f,22,
13,3,198,6,6,4,['k'],['k'],Y,Y,['space'],Y,,,,,,,f,22,
13,4,199,1,1,4,['k'],['k'],Y,N,None,Y,31,40,24,,,,f,22,
13,5,200,2,2,5,['k'],['d'],N,,,,,,,,,,f,22,
13,6,201,9,9,5,['k'],['d'],N,,,,,,,,,,f,22,
13,7,202,8,8,5,['d'],['d'],Y,Y,['space'],Y,,,,,,,f,22,
13,8,203,11,11,5,['d'],['d'],Y,N,None,Y,,,,,,,f,22,
13,9,204,7,7,5,['d'],['k'],N,N,None,Y,,,,,,,f,22,
13,10,205,14,14,5,['d'],['k'],N,N,None,Y,,,,,,,f,22,
13,11,206,6,6,5,['k'],['d'],N,Y,None,N,,,,,,,f,22,
13,12,207,5,5,5,['d'],['d'],Y,N,None,Y,,,,,,,f,22,
13,13,208,10,10,5,['d'],['k'],N,Y,['space'],Y,,,,,,,f,22,
13,14,209,13,13,5,['k'],['d'],N,Y,None,N,,,,,,,f,22,
14,0,210,3,3,5,['k'],['d'],N,N,None,Y,,,,,,,f,22,
14,1,211,9,9,5,['k'],['d'],N,N,None,Y,,,,,,,f,22,
14,2,212,4,4,5,['d'],['k'],N,N,None,Y,,,,,,,f,22,
14,3,213,14,14,5,['k'],['k'],Y,Y,None,N,,,,,,,f,22,
14,4,214,1,1,5,['d'],['k'],N,Y,['space'],Y,,,,,,,f,22,
14,5,215,12,12,5,['k'],['k'],Y,Y,['space'],Y,,,,,,,f,22,
14,6,216,0,0,5,['d'],['k'],N,N,None,Y,,,,,,,f,22,
14,7,217,6,6,5,['k'],['d'],N,Y,['space'],Y,,,,,,,f,22,
14,8,218,11,11,5,['k'],['k'],Y,N,None,Y,,,,,,,f,22,
14,9,219,13,13,5,['k'],['k'],Y,Y,None,N,,,,,,,f,22,
14,10,220,9,9,5,['d'],['k'],N,Y,['space'],Y,,,,,,,f,22,
14,11,221,9,9,5,['d'],['d'],Y,N,None,Y,,,,,,,f,22,
14,12,222,13,13,5,['k'],['d'],N,Y,None,N,,,,,,,f,22,
14,13,223,9,9,5,['k'],['k'],Y,Y,['space'],Y,,,,,,,f,22,
14,14,224,14,14,5,['d'],['k'],N,N,None,Y,,,,,,,f,22,
15,0,225,7,7,5,['k'],['d'],N,Y,['space'],Y,,,,,,,f,22,
15,1,226,4,4,5,['k'],['d'],N,Y,['space'],Y,,,,,,,f,22,
15,2,227,5,5,5,['d'],['d'],Y,N,None,Y,,,,,,,f,22,
15,3,228,14,14,5,['k'],['k'],Y,N,None,Y,,,,,,,f,22,
15,4,229,9,9,5,['d'],['k'],N,Y,['space'],Y,,,,,,,f,22,
15,5,230,13,13,5,['k'],['d'],N,N,None,Y,,,,,,,f,22,
15,6,231,6,6,5,['d'],['d'],Y,N,None,Y,,,,,,,f,22,
15,7,232,5,5,5,['d'],['k'],N,N,['space'],N,,,,,,,f,22,
15,8,233,4,4,5,['d'],['d'],Y,Y,None,N,,,,,,,f,22,
15,9,234,13,13,5,['k'],['k'],Y,N,['space'],N,,,,,,,f,22,
15,10,235,12,12,5,['k'],['d'],N,N,None,Y,,,,,,,f,22,
15,11,236,5,5,5,['k'],['d'],N,Y,['space'],Y,,,,,,,f,22,
15,12,237,8,8,5,['k'],['k'],Y,Y,['space'],Y,,,,,,,f,22,
15,13,238,10,10,5,['d'],['d'],Y,Y,['space'],Y,,,,,,,f,22,
15,14,239,7,7,5,['k'],['k'],Y,N,None,Y,,,,,,,f,22,
16,0,240,13,13,5,['d'],['d'],Y,Y,['space'],Y,,,,,,,f,22,
16,1,241,10,10,5,['k'],['d'],N,N,None,Y,,,,,,,f,22,
16,2,242,7,7,5,['k'],['d'],N,N,['space'],N,,,,,,,f,22,
16,3,243,0,0,5,['d'],['d'],Y,N,None,Y,,,,,,,f,22,
16,4,244,13,13,5,['d'],['k'],N,N,['space'],N,,,,,,,f,22,
16,5,245,8,8,5,['d'],['k'],N,N,None,Y,,,,,,,f,22,
16,6,246,13,13,5,['d'],['k'],N,N,None,Y,,,,,,,f,22,
16,7,247,2,2,5,['d'],['d'],Y,Y,None,N,,,,,,,f,22,
16,8,248,7,7,5,['k'],['k'],Y,Y,['space'],Y,,,,,,,f,22,
16,9,249,2,2,5,['k'],['d'],N,Y,['space'],Y,21,37,23,,,,f,22,
16,10,250,6,6,6,['d'],['d'],Y,,,,,,,,,,f,22,
16,11,251,0,0,6,['d'],['k'],N,,,,,,,,,,f,22,
16,12,252,1,1,6,['k'],['k'],Y,N,None,Y,,,,,,,f,22,
16,13,253,3,3,6,['d'],['k'],N,N,None,Y,,,,,,,f,22,
16,14,254,4,4,6,['k'],['k'],Y,N,None,Y,,,,,,,f,22,
17,0,255,6,6,6,['d'],['d'],Y,N,None,Y,,,,,,,f,22,
17,1,256,14,14,6,['k'],['k'],Y,Y,None,N,,,,,,,f,22,
17,2,257,12,12,6,['d'],['d'],Y,Y,['space'],Y,,,,,,,f,22,
17,3,258,2,2,6,['k'],['k'],Y,N,None,Y,,,,,,,f,22,
17,4,259,11,11,6,['k'],['d'],N,Y,['space'],Y,,,,,,,f,22,
17,5,260,7,7,6,['k'],['d'],N,Y,['space'],Y,,,,,,,f,22,
17,6,261,10,10,6,['k'],['k'],Y,Y,['space'],Y,,,,,,,f,22,
17,7,262,1,1,6,['d'],['d'],Y,N,None,Y,,,,,,,f,22,
17,8,263,8,8,6,['k'],['d'],N,N,None,Y,,,,,,,f,22,
17,9,264,3,3,6,['k'],['d'],N,Y,None,N,,,,,,,f,22,
17,10,265,4,4,6,['k'],['k'],Y,Y,['space'],Y,,,,,,,f,22,
17,11,266,11,11,6,['d'],['k'],N,Y,None,N,,,,,,,f,22,
17,12,267,12,12,6,['d'],['d'],Y,N,None,Y,,,,,,,f,22,
17,13,268,13,13,6,['k'],['k'],Y,N,['space'],N,,,,,,,f,22,
17,14,269,7,7,6,['k'],['k'],Y,Y,['space'],Y,,,,,,,f,22,
18,0,270,9,9,6,['d'],['d'],Y,N,None,Y,,,,,,,f,22,
18,1,271,2,2,6,['k'],['k'],Y,Y,['space'],Y,,,,,,,f,22,
18,2,272,9,9,6,['d'],['d'],Y,Y,['space'],Y,,,,,,,f,22,
18,3,273,11,11,6,['d'],['k'],N,N,None,Y,,,,,,,f,22,
18,4,274,3,3,6,['d'],['d'],Y,N,None,Y,,,,,,,f,22,
18,5,275,8,8,6,['d'],['k'],N,N,None,Y,,,,,,,f,22,
18,6,276,14,14,6,['d'],['d'],Y,Y,['space'],Y,,,,,,,f,22,
18,7,277,11,11,6,['k'],['d'],N,Y,['space'],Y,,,,,,,f,22,
18,8,278,3,3,6,['d'],['d'],Y,Y,['space'],Y,,,,,,,f,22,
18,9,279,6,6,6,['k'],['d'],N,Y,['space'],Y,,,,,,,f,22,
18,10,280,2,2,6,['k'],['d'],N,N,None,Y,,,,,,,f,22,
18,11,281,5,5,6,['k'],['d'],N,N,None,Y,,,,,,,f,22,
18,12,282,4,4,6,['d'],['k'],N,Y,['space'],Y,,,,,,,f,22,
18,13,283,0,0,6,['k'],['k'],Y,N,None,Y,,,,,,,f,22,
18,14,284,11,11,6,['d'],['d'],Y,Y,None,N,,,,,,,f,22,
19,0,285,1,1,6,['k'],['d'],N,Y,['space'],Y,,,,,,,f,22,
19,1,286,7,7,6,['d'],['k'],N,Y,['space'],Y,,,,,,,f,22,
19,2,287,0,0,6,['k'],['k'],Y,Y,None,N,,,,,,,f,22,
19,3,288,0,0,6,['d'],['k'],N,Y,['space'],Y,,,,,,,f,22,
19,4,289,11,11,6,['d'],['d'],Y,Y,None,N,,,,,,,f,22,
19,5,290,13,13,6,['d'],['d'],Y,Y,['space'],Y,,,,,,,f,22,
19,6,291,3,3,6,['k'],['d'],N,Y,None,N,,,,,,,f,22,
19,7,292,5,5,6,['d'],['k'],N,N,None,Y,,,,,,,f,22,
19,8,293,13,13,6,['d'],['k'],N,Y,None,N,,,,,,,f,22,
19,9,294,3,3,6,['k'],['d'],N,N,None,Y,,,,,,,f,22,
19,10,295,12,12,6,['k'],['d'],N,N,None,Y,,,,,,,f,22,
19,11,296,7,7,6,['k'],['d'],N,N,None,Y,,,,,,,f,22,
19,12,297,9,9,6,['d'],['d'],Y,N,None,Y,,,,,,,f,22,
19,13,298,3,3,6,['k'],['d'],N,N,None,Y,,,,,,,f,22,
19,14,299,10,10,6,['d'],['d'],Y,N,None,Y,26,39,25,,,,f,22,
20,0,300,14,14,7,['k'],['d'],N,,,,,,,,,,f,22,
20,1,301,4,4,7,['k'],['d'],N,,,,,,,,,,f,22,
20,2,302,12,12,7,['k'],['k'],Y,Y,None,N,,,,,,,f,22,
20,3,303,5,5,7,['d'],['d'],Y,Y,['space'],Y,,,,,,,f,22,
20,4,304,14,14,7,['d'],['d'],Y,N,None,Y,,,,,,,f,22,
20,5,305,9,9,7,['k'],['d'],N,Y,['space'],Y,,,,,,,f,22,
20,6,306,6,6,7,['k'],['k'],Y,N,None,Y,,,,,,,f,22,
20,7,307,1,1,7,['d'],['d'],Y,N,None,Y,,,,,,,f,22,
20,8,308,6,6,7,['d'],['d'],Y,Y,['space'],Y,,,,,,,f,22,
20,9,309,13,13,7,['d'],['d'],Y,Y,['space'],Y,,,,,,,f,22,
20,10,310,3,3,7,['k'],['k'],Y,N,None,Y,,,,,,,f,22,
20,11,311,1,1,7,['d'],['d'],Y,Y,['space'],Y,,,,,,,f,22,
20,12,312,5,5,7,['d'],['d'],Y,Y,['space'],Y,,,,,,,f,22,
20,13,313,12,12,7,['k'],['k'],Y,Y,['space'],Y,,,,,,,f,22,
20,14,314,1,1,7,['d'],['k'],N,Y,['space'],Y,,,,,,,f,22,
21,0,315,3,3,7,['d'],['d'],Y,N,['space'],N,,,,,,,f,22,
21,1,316,10,10,7,['d'],['d'],Y,N,None,Y,,,,,,,f,22,
21,2,317,3,3,7,['d'],['k'],N,N,None,Y,,,,,,,f,22,
21,3,318,8,8,7,['k'],['d'],N,Y,['space'],Y,,,,,,,f,22,
21,4,319,14,14,7,['d'],['k'],N,Y,['space'],Y,,,,,,,f,22,
21,5,320,4,4,7,['k'],['k'],Y,Y,['space'],Y,,,,,,,f,22,
21,6,321,4,4,7,['k'],['d'],N,Y,['space'],Y,,,,,,,f,22,
21,7,322,11,11,7,['k'],['d'],N,Y,['space'],Y,,,,,,,f,22,
21,8,323,5,5,7,['k'],['d'],N,N,None,Y,,,,,,,f,22,
21,9,324,0,0,7,['d'],['d'],Y,N,None,Y,,,,,,,f,22,
21,10,325,2,2,7,['k'],['d'],N,Y,['space'],Y,,,,,,,f,22,
21,11,326,5,5,7,['k'],['d'],N,N,None,Y,,,,,,,f,22,
21,12,327,1,1,7,['d'],['d'],Y,N,None,Y,,,,,,,f,22,
21,13,328,3,3,7,['d'],['d'],Y,N,None,Y,,,,,,,f,22,
21,14,329,2,2,7,['k'],['d'],N,N,None,Y,,,,,,,f,22,
22,0,330,1,1,7,['k'],['k'],Y,Y,['space'],Y,,,,,,,f,22,
22,1,331,4,4,7,['k'],['d'],N,Y,['space'],Y,,,,,,,f,22,
22,2,332,8,8,7,['k'],['d'],N,Y,['space'],Y,,,,,,,f,22,
22,3,333,5,5,7,['k'],['d'],N,N,None,Y,,,,,,,f,22,
22,4,334,9,9,7,['k'],['d'],N,N,None,Y,,,,,,,f,22,
22,5,335,11,11,7,['d'],['k'],N,Y,None,N,,,,,,,f,22,
22,6,336,5,5,7,['d'],['k'],N,Y,['space'],Y,,,,,,,f,22,
22,7,337,0,0,7,['k'],['k'],Y,Y,['space'],Y,,,,,,,f,22,
22,8,338,8,8,7,['k'],['k'],Y,N,None,Y,,,,,,,f,22,
22,9,339,8,8,7,['d'],['d'],Y,N,None,Y,,,,,,,f,22,
22,10,340,4,4,7,['d'],['d'],Y,N,None,Y,,,,,,,f,22,
22,11,341,7,7,7,['k'],['k'],Y,Y,['space'],Y,,,,,,,f,22,
22,12,342,0,0,7,['d'],['d'],Y,N,None,Y,,,,,,,f,22,
22,13,343,2,2,7,['d'],['d'],Y,N,None,Y,,,,,,,f,22,
22,14,344,14,14,7,['k'],['d'],N,Y,['space'],Y,,,,,,,f,22,
23,0,345,3,3,7,['k'],['d'],N,N,None,Y,,,,,,,f,22,
23,1,346,10,10,7,['d'],['d'],Y,N,['space'],N,,,,,,,f,22,
23,2,347,2,2,7,['k'],['k'],Y,Y,['k'],N,,,,,,,f,22,
23,3,348,9,9,7,['k'],['d'],N,N,None,Y,,,,,,,f,22,
23,4,349,13,13,7,['d'],['k'],N,N,None,Y,27,43,24,,,,f,22,
23,5,350,0,0,8,['k'],['k'],Y,,,,,,,,,,f,22,
23,6,351,11,11,8,['k'],['d'],N,,,,,,,,,,f,22,
23,7,352,4,4,8,['d'],['d'],Y,N,None,Y,,,,,,,f,22,
23,8,353,0,0,8,['k'],['d'],N,Y,['space'],Y,,,,,,,f,22,
23,9,354,11,11,8,['d'],['k'],N,Y,['space'],Y,,,,,,,f,22,
23,10,355,2,2,8,['d'],['d'],Y,N,None,Y,,,,,,,f,22,
23,11,356,1,1,8,['d'],['d'],Y,Y,['space'],Y,,,,,,,f,22,
23,12,357,3,3,8,['d'],['k'],N,Y,['space'],Y,,,,,,,f,22,
23,13,358,12,12,8,['k'],['d'],N,N,None,Y,,,,,,,f,22,
23,14,359,11,11,8,['d'],['k'],N,N,None,Y,,,,,,,f,22,
24,0,360,13,13,8,['k'],['d'],N,N,None,Y,,,,,,,f,22,
24,1,361,9,9,8,['k'],['d'],N,N,None,Y,,,,,,,f,22,
24,2,362,4,4,8,['k'],['k'],Y,Y,['space'],Y,,,,,,,f,22,
24,3,363,13,13,8,['k'],['k'],Y,N,None,Y,,,,,,,f,22,
24,4,364,9,9,8,['k'],['k'],Y,Y,['space'],Y,,,,,,,f,22,
24,5,365,6,6,8,['k'],['d'],N,Y,['space'],Y,,,,,,,f,22,
24,6,366,11,11,8,['d'],['k'],N,N,None,Y,,,,,,,f,22,
24,7,367,8,8,8,['d'],['k'],N,Y,['space'],Y,,,,,,,f,22,
24,8,368,11,11,8,['k'],['d'],N,N,None,Y,,,,,,,f,22,
24,9,369,3,3,8,['k'],['k'],Y,N,None,Y,,,,,,,f,22,
24,10,370,3,3,8,['k'],['d'],N,Y,['space'],Y,,,,,,,f,22,
24,11,371,9,9,8,['d'],['d'],Y,N,None,Y,,,,,,,f,22,
24,12,372,12,12,8,['k'],['d'],N,N,None,Y,,,,,,,f,22,
24,13,373,9,9,8,['d'],['k'],N,Y,['space'],Y,,,,,,,f,22,
24,14,374,0,0,8,['k'],['k'],Y,Y,['space'],Y,,,,,,,f,22,
25,0,375,10,10,8,['k'],['k'],Y,N,None,Y,,,,,,,f,22,
25,1,376,14,14,8,['k'],['d'],N,N,None,Y,,,,,,,f,22,
25,2,377,1,1,8,['k'],['d'],N,Y,None,N,,,,,,,f,22,
25,3,378,5,5,8,['k'],['k'],Y,Y,None,N,,,,,,,f,22,
25,4,379,4,4,8,['d'],['k'],N,Y,['space'],Y,,,,,,,f,22,
25,5,380,0,0,8,['d'],['k'],N,N,None,Y,,,,,,,f,22,
25,6,381,2,2,8,['d'],['k'],N,N,['space'],N,,,,,,,f,22,
25,7,382,10,10,8,['d'],['d'],Y,N,['space'],N,,,,,,,f,22,
25,8,383,0,0,8,['d'],['d'],Y,Y,['space'],Y,,,,,,,f,22,
25,9,384,5,5,8,['d'],['k'],N,Y,['space'],Y,,,,,,,f,22,
25,10,385,5,5,8,['d'],['k'],N,N,None,Y,,,,,,,f,22,
25,11,386,13,13,8,['k'],['d'],N,Y,['space'],Y,,,,,,,f,22,
25,12,387,13,13,8,['d'],['d'],Y,N,None,Y,,,,,,,f,22,
25,13,388,6,6,8,['k'],['k'],Y,N,None,Y,,,,,,,f,22,
25,14,389,12,12,8,['k'],['d'],N,N,['space'],N,,,,,,,f,22,
26,0,390,7,7,8,['d'],['k'],N,N,None,Y,,,,,,,f,22,
26,1,391,13,13,8,['k'],['d'],N,Y,['space'],Y,,,,,,,f,22,
26,2,392,1,1,8,['d'],['k'],N,Y,['space'],Y,,,,,,,f,22,
26,3,393,10,10,8,['k'],['k'],Y,N,None,Y,,,,,,,f,22,
26,4,394,7,7,8,['k'],['d'],N,N,['space'],N,,,,,,,f,22,
26,5,395,9,9,8,['k'],['d'],N,N,None,Y,,,,,,,f,22,
26,6,396,1,1,8,['k'],['k'],Y,Y,['space'],Y,,,,,,,f,22,
26,7,397,9,9,8,['k'],['k'],Y,Y,['space'],Y,,,,,,,f,22,
26,8,398,0,0,8,['k'],['k'],Y,N,None,Y,,,,,,,f,22,
26,9,399,6,6,8,['d'],['d'],Y,Y,['space'],Y,21,42,22,,,,f,22,
26,10,400,2,2,9,['k'],['k'],Y,,,,,,,,,,f,22,
26,11,401,2,2,9,['d'],['k'],N,,,,,,,,,,f,22,
26,12,402,7,7,9,['k'],['k'],Y,N,None,Y,,,,,,,f,22,
26,13,403,4,4,9,['k'],['k'],Y,Y,['space'],Y,,,,,,,f,22,
26,14,404,4,4,9,['d'],['k'],N,Y,['space'],Y,,,,,,,f,22,
27,0,405,3,3,9,['d'],['d'],Y,Y,['space'],Y,,,,,,,f,22,
27,1,406,4,4,9,['d'],['k'],N,Y,['space'],Y,,,,,,,f,22,
27,2,407,13,13,9,['k'],['k'],Y,N,None,Y,,,,,,,f,22,
27,3,408,3,3,9,['k'],['k'],Y,Y,['space'],Y,,,,,,,f,22,
27,4,409,12,12,9,['d'],['k'],N,Y,['space'],Y,,,,,,,f,22,
27,5,410,4,4,9,['d'],['k'],N,N,None,Y,,,,,,,f,22,
27,6,411,0,0,9,['k'],['k'],Y,N,None,Y,,,,,,,f,22,
27,7,412,10,10,9,['k'],['k'],Y,N,None,Y,,,,,,,f,22,
27,8,413,3,3,9,['k'],['k'],Y,N,None,Y,,,,,,,f,22,
27,9,414,1,1,9,['k'],['d'],N,N,None,Y,,,,,,,f,22,
27,10,415,12,12,9,['k'],['d'],N,N,None,Y,,,,,,,f,22,
27,11,416,9,9,9,['k'],['d'],N,Y,['space'],Y,,,,,,,f,22,
27,12,417,3,3,9,['d'],['d'],Y,Y,['space'],Y,,,,,,,f,22,
27,13,418,4,4,9,['k'],['k'],Y,Y,['space'],Y,,,,,,,f,22,
27,14,419,14,14,9,['k'],['d'],N,Y,['space'],Y,,,,,,,f,22,
28,0,420,2,2,9,['k'],['k'],Y,N,None,Y,,,,,,,f,22,
28,1,421,8,8,9,['k'],['d'],N,N,None,Y,,,,,,,f,22,
28,2,422,1,1,9,['d'],['k'],N,Y,['space'],Y,,,,,,,f,22,
28,3,423,5,5,9,['d'],['d'],Y,N,None,Y,,,,,,,f,22,
28,4,424,11,11,9,['k'],['k'],Y,N,None,Y,,,,,,,f,22,
28,5,425,4,4,9,['k'],['d'],N,Y,['space'],Y,,,,,,,f,22,
28,6,426,10,10,9,['d'],['k'],N,Y,['space'],Y,,,,,,,f,22,
28,7,427,9,9,9,['k'],['k'],Y,Y,['space'],Y,,,,,,,f,22,
28,8,428,6,6,9,['k'],['k'],Y,Y,['space'],Y,,,,,,,f,22,
28,9,429,10,10,9,['k'],['k'],Y,Y,None,N,,,,,,,f,22,
28,10,430,11,11,9,['k'],['k'],Y,Y,['space'],Y,,,,,,,f,22,
28,11,431,9,9,9,['k'],['k'],Y,N,['space'],N,,,,,,,f,22,
28,12,432,3,3,9,['k'],['d'],N,N,None,Y,,,,,,,f,22,
28,13,433,0,0,9,['d'],['d'],Y,Y,['space'],Y,,,,,,,f,22,
28,14,434,10,10,9,['d'],['k'],N,N,None,Y,,,,,,,f,22,
29,0,435,10,10,9,['d'],['d'],Y,Y,['space'],Y,,,,,,,f,22,
29,1,436,8,8,9,['k'],['k'],Y,N,None,Y,,,,,,,f,22,
29,2,437,11,11,9,['k'],['k'],Y,Y,['space'],Y,,,,,,,f,22,
29,3,438,7,7,9,['d'],['k'],N,N,None,Y,,,,,,,f,22,
29,4,439,10,10,9,['d'],['k'],N,N,['space'],N,,,,,,,f,22,
29,5,440,9,9,9,['k'],['k'],Y,Y,['space'],Y,,,,,,,f,22,
29,6,441,11,11,9,['k'],['d'],N,N,None,Y,,,,,,,f,22,
29,7,442,4,4,9,['k'],['k'],Y,Y,['space'],Y,,,,,,,f,22,
29,8,443,1,1,9,['d'],['d'],Y,Y,['space'],Y,,,,,,,f,22,
29,9,444,1,1,9,['k'],['k'],Y,Y,['space'],Y,,,,,,,f,22,
29,10,445,10,10,9,['k'],['d'],N,Y,['space'],Y,,,,,,,f,22,
29,11,446,0,0,9,['k'],['k'],Y,N,None,Y,,,,,,,f,22,
29,12,447,5,5,9,['d'],['k'],N,N,['space'],N,,,,,,,f,22,
29,13,448,9,9,9,['k'],['k'],Y,N,['space'],N,,,,,,,f,22,
29,14,449,0,0,9,['d'],['d'],Y,N,None,Y,30,43,25,,,,f,22,
30,0,450,1,1,10,['k'],['d'],N,,,,,,,,,,f,22,
30,1,451,0,0,10,['k'],['k'],Y,,,,,,,,,,f,22,
30,2,452,3,3,10,['k'],['d'],N,N,None,Y,,,,,,,f,22,
30,3,453,6,6,10,['k'],['d'],N,Y,['space'],Y,,,,,,,f,22,
30,4,454,0,0,10,['k'],['d'],N,Y,['space'],Y,,,,,,,f,22,
30,5,455,11,11,10,['k'],['d'],N,Y,['space'],Y,,,,,,,f,22,
30,6,456,11,11,10,['k'],['k'],Y,Y,['space'],Y,,,,,,,f,22,
30,7,457,12,12,10,['d'],['d'],Y,N,None,Y,,,,,,,f,22,
30,8,458,0,0,10,['d'],['k'],N,N,['space'],N,,,,,,,f,22,
30,9,459,7,7,10,['d'],['d'],Y,N,None,Y,,,,,,,f,22,
30,10,460,11,11,10,['d'],['d'],Y,N,None,Y,,,,,,,f,22,
30,11,461,3,3,10,['k'],['k'],Y,N,['space'],N,,,,,,,f,22,
30,12,462,2,2,10,['d'],['d'],Y,Y,None,N,,,,,,,f,22,
30,13,463,3,3,10,['d'],['d'],Y,Y,None,N,,,,,,,f,22,
30,14,464,1,1,10,['k'],['k'],Y,N,None,Y,,,,,,,f,22,
31,0,465,2,2,10,['d'],['k'],N,Y,['space'],Y,,,,,,,f,22,
31,1,466,1,1,10,['k'],['d'],N,N,None,Y,,,,,,,f,22,
31,2,467,13,13,10,['k'],['k'],Y,Y,['space'],Y,,,,,,,f,22,
31,3,468,7,7,10,['k'],['d'],N,N,None,Y,,,,,,,f,22,
31,4,469,0,0,10,['d'],['d'],Y,Y,['space'],Y,,,,,,,f,22,
31,5,470,0,0,10,['k'],['k'],Y,N,None,Y,,,,,,,f,22,
31,6,471,7,7,10,['d'],['d'],Y,N,None,Y,,,,,,,f,22,
31,7,472,13,13,10,['k'],['k'],Y,Y,None,N,,,,,,,f,22,
31,8,473,14,14,10,['k'],['d'],N,Y,['space'],Y,,,,,,,f,22,
31,9,474,0,0,10,['k'],['k'],Y,Y,['space'],Y,,,,,,,f,22,
31,10,475,9,9,10,['k'],['k'],Y,Y,None,N,,,,,,,f,22,
31,11,476,8,8,10,['k'],['d'],N,N,None,Y,,,,,,,f,22,
31,12,477,2,2,10,['k'],['k'],Y,Y,['space'],Y,,,,,,,f,22,
31,13,478,8,8,10,['d'],['d'],Y,N,None,Y,,,,,,,f,22,
31,14,479,6,6,10,['k'],['k'],Y,N,None,Y,,,,,,,f,22,
32,0,480,8,8,10,['d'],['k'],N,N,['space'],N,,,,,,,f,22,
32,1,481,13,13,10,['k'],['d'],N,N,None,Y,,,,,,,f,22,
32,2,482,12,12,10,['d'],['d'],Y,N,None,Y,,,,,,,f,22,
32,3,483,8,8,10,['k'],['k'],Y,N,['space'],N,,,,,,,f,22,
32,4,484,13,13,10,['k'],['d'],N,N,None,Y,,,,,,,f,22,
32,5,485,6,6,10,['d'],['d'],Y,Y,['space'],Y,,,,,,,f,22,
32,6,486,9,9,10,['d'],['k'],N,N,['space'],N,,,,,,,f,22,
32,7,487,7,7,10,['d'],['k'],N,N,None,Y,,,,,,,f,22,
32,8,488,5,5,10,['d'],['k'],N,Y,['space'],Y,,,,,,,f,22,
32,9,489,10,10,10,['d'],['k'],N,Y,['space'],Y,,,,,,,f,22,
32,10,490,5,5,10,['k'],['k'],Y,Y,['space'],Y,,,,,,,f,22,
32,11,491,6,6,10,['d'],['k'],N,N,None,Y,,,,,,,f,22,
32,12,492,8,8,10,['d'],['d'],Y,Y,['space'],Y,,,,,,,f,22,
32,13,493,14,14,10,['k'],['d'],N,N,None,Y,,,,,,,f,22,
32,14,494,2,2,10,['k'],['d'],N,N,None,Y,,,,,,,f,22,
33,0,495,11,11,10,['k'],['d'],N,N,None,Y,,,,,,,f,22,
33,1,496,5,5,10,['k'],['k'],Y,N,None,Y,,,,,,,f,22,
33,2,497,3,3,10,['k'],['d'],N,N,None,Y,,,,,,,f,22,
33,3,498,10,10,10,['d'],['d'],Y,N,None,Y,,,,,,,f,22,
33,4,499,6,6,10,['d'],['k'],N,Y,['space'],Y,26,39,20,,,,f,22,
33,5,500,11,11,11,['d'],['k'],Y,,,,,,,Y,Y,Y,f,22,
33,6,501,3,3,11,['k'],['k'],N,,,,,,,,Y,Y,f,22,
33,7,502,8,8,11,['k'],['k'],N,Y,['space'],Y,,,,,Y,Y,f,22,
33,8,503,7,7,11,['d'],['d'],N,N,None,Y,,,,,Y,Y,f,22,
33,9,504,13,13,11,['k'],['d'],Y,Y,None,N,,,,,Y,Y,f,22,
33,10,505,3,3,11,['d'],['k'],Y,Y,['space'],Y,,,,,Y,Y,f,22,
33,11,506,1,1,11,['k'],['d'],Y,Y,None,N,,,,,Y,Y,f,22,
33,12,507,10,10,11,['d'],['d'],N,Y,['space'],Y,,,,,Y,Y,f,22,
33,13,508,1,1,11,['d'],['k'],Y,N,None,Y,,,,,Y,Y,f,22,
33,14,509,6,6,11,['k'],['d'],Y,N,None,Y,,,,,Y,Y,f,22,
34,0,510,8,8,11,['d'],['d'],N,N,None,Y,,,,,Y,Y,f,22,
34,1,511,7,7,11,['d'],['k'],Y,N,None,Y,,,,,Y,Y,f,22,
34,2,512,9,9,11,['d'],['k'],Y,Y,['space'],Y,,,,,Y,Y,f,22,
34,3,513,13,13,11,['d'],['k'],Y,N,None,Y,,,,,Y,Y,f,22,
34,4,514,5,5,11,['d'],['k'],Y,N,None,Y,,,,,Y,Y,f,22,
34,5,515,13,13,11,['k'],['d'],Y,Y,['space'],Y,,,,,Y,Y,f,22,
34,6,516,6,6,11,['k'],['k'],N,Y,None,N,,,,,Y,Y,f,22,
34,7,517,11,11,11,['k'],['k'],N,Y,None,N,,,,,Y,Y,f,22,
34,8,518,11,11,11,['k'],['k'],N,N,['space'],N,,,,,Y,Y,f,22,
34,9,519,1,1,11,['d'],['d'],N,N,None,Y,,,,,Y,Y,f,22,
34,10,520,8,8,11,['k'],['d'],Y,N,None,Y,,,,,Y,Y,f,22,
34,11,521,0,0,11,['k'],['d'],Y,N,None,Y,,,,,Y,Y,f,22,
34,12,522,10,10,11,['k'],['k'],N,N,None,Y,,,,,Y,Y,f,22,
34,13,523,12,12,11,['k'],['d'],Y,Y,['space'],Y,,,,,Y,Y,f,22,
34,14,524,9,9,11,['d'],['d'],N,N,None,Y,,,,,Y,Y,f,22,
35,0,525,2,2,11,['k'],['d'],Y,N,None,Y,,,,,Y,Y,f,22,
35,1,526,2,2,11,['d'],['d'],N,Y,None,N,,,,,Y,Y,f,22,
35,2,527,8,8,11,['d'],['d'],N,N,None,Y,,,,,Y,Y,f,22,
35,3,528,11,11,11,['k'],['k'],N,N,None,Y,,,,,Y,Y,f,22,
35,4,529,6,6,11,['d'],['k'],Y,Y,None,N,,,,,Y,Y,f,22,
35,5,530,14,14,11,['k'],['k'],N,Y,['space'],Y,,,,,Y,Y,f,22,
35,6,531,6,6,11,['k'],['k'],N,Y,['space'],Y,,,,,Y,Y,f,22,
35,7,532,7,7,11,['d'],['k'],Y,N,None,Y,,,,,Y,Y,f,22,
35,8,533,0,0,11,['k'],['d'],Y,Y,['space'],Y,,,,,Y,Y,f,22,
35,9,534,10,10,11,['k'],['k'],N,N,None,Y,,,,,Y,Y,f,22,
35,10,535,4,4,11,['d'],['d'],N,Y,['space'],Y,,,,,Y,Y,f,22,
35,11,536,10,10,11,['d'],['k'],Y,N,None,Y,,,,,Y,Y,f,22,
35,12,537,12,12,11,['k'],['d'],Y,Y,['space'],Y,,,,,Y,Y,f,22,
35,13,538,2,2,11,['k'],['d'],Y,Y,None,N,,,,,Y,Y,f,22,
35,14,539,4,4,11,['d'],['k'],Y,Y,['space'],Y,,,,,Y,Y,f,22,
36,0,540,2,2,11,['k'],['d'],Y,Y,['space'],Y,,,,,Y,Y,f,22,
36,1,541,13,13,11,['d'],['k'],Y,N,None,Y,,,,,Y,Y,f,22,
36,2,542,12,12,11,['k'],['k'],N,Y,None,N,,,,,Y,Y,f,22,
36,3,543,6,6,11,['d'],['d'],N,Y,None,N,,,,,Y,Y,f,22,
36,4,544,1,1,11,['d'],['k'],Y,Y,['space'],Y,,,,,Y,Y,f,22,
36,5,545,12,12,11,['d'],['k'],Y,N,None,Y,,,,,Y,Y,f,22,
36,6,546,1,1,11,['k'],['k'],N,Y,None,N,,,,,Y,Y,f,22,
36,7,547,13,13,11,['k'],['d'],Y,Y,['space'],Y,,,,,Y,Y,f,22,
36,8,548,6,6,11,['d'],['d'],N,N,None,Y,,,,,Y,Y,f,22,
36,9,549,1,1,11,['k'],['k'],N,N,['space'],N,27,36,25,,Y,Y,f,22,
36,10,550,14,14,12,['k'],['k'],N,,,,,,,,Y,Y,f,22,
36,11,551,4,4,12,['d'],['k'],Y,,,,,,,,Y,Y,f,22,
36,12,552,8,8,12,['d'],['k'],Y,N,None,Y,,,,,Y,Y,f,22,
36,13,553,5,5,12,['k'],['k'],N,Y,['space'],Y,,,,,Y,Y,f,22,
36,14,554,6,6,12,['d'],['d'],N,N,None,Y,,,,,Y,Y,f,22,
37,0,555,6,6,12,['k'],['d'],Y,N,None,Y,,,,,Y,Y,f,22,
37,1,556,2,2,12,['k'],['k'],N,Y,None,N,,,,,Y,Y,f,22,
37,2,557,11,11,12,['k'],['d'],Y,N,None,Y,,,,,Y,Y,f,22,
37,3,558,11,11,12,['d'],['k'],Y,Y,['space'],Y,,,,,Y,Y,f,22,
37,4,559,12,12,12,['k'],['d'],Y,Y,['space'],Y,,,,,Y,Y,f,22,
37,5,560,0,0,12,['k'],['k'],N,Y,['space'],Y,,,,,Y,Y,f,22,
37,6,561,10,10,12,['d'],['k'],Y,Y,['space'],Y,,,,,Y,Y,f,22,
37,7,562,0,0,12,['d'],['k'],Y,Y,['space'],Y,,,,,Y,Y,f,22,
37,8,563,4,4,12,['k'],['k'],N,Y,['space'],Y,,,,,Y,Y,f,22,
37,9,564,0,0,12,['k'],['d'],Y,Y,['space'],Y,,,,,Y,Y,f,22,
37,10,565,3,3,12,['k'],['d'],Y,Y,['space'],Y,,,,,Y,Y,f,22,
37,11,566,14,14,12,['d'],['k'],Y,N,None,Y,,,,,Y,Y,f,22,
37,12,567,5,5,12,['k'],['d'],Y,N,None,Y,,,,,Y,Y,f,22,
37,13,568,9,9,12,['k'],['k'],N,N,None,Y,,,,,Y,Y,f,22,
37,14,569,3,3,12,['d'],['d'],N,Y,None,N,,,,,Y,Y,f,22,
38,0,570,3,3,12,['d'],['d'],N,Y,['space'],Y,,,,,Y,Y,f,22,
38,1,571,10,10,12,['k'],['k'],N,Y,['space'],Y,,,,,Y,Y,f,22,
38,2,572,8,8,12,['k'],['k'],N,Y,None,N,,,,,Y,Y,f,22,
38,3,573,4,4,12,['d'],['k'],Y,Y,['space'],Y,,,,,Y,Y,f,22,
38,4,574,11,11,12,['k'],['k'],N,N,['space'],N,,,,,Y,Y,f,22,
38,5,575,9,9,12,['k'],['k'],N,N,['space'],N,,,,,Y,Y,f,22,
38,6,576,11,11,12,['k'],['k'],N,Y,['space'],Y,,,,,Y,Y,f,22,
38,7,577,5,5,12,['k'],['d'],Y,N,['space'],N,,,,,Y,Y,f,22,
38,8,578,8,8,12,['d'],['d'],N,N,None,Y,,,,,Y,Y,f,22,
38,9,579,3,3,12,['d'],['d'],N,Y,['space'],Y,,,,,Y,Y,f,22,
38,10,580,1,1,12,['d'],['k'],Y,Y,None,N,,,,,Y,Y,f,22,
38,11,581,9,9,12,['k'],['k'],N,N,['space'],N,,,,,Y,Y,f,22,
38,12,582,13,13,12,['d'],['k'],Y,Y,['space'],Y,,,,,Y,Y,f,22,
38,13,583,10,10,12,['k'],['k'],N,Y,['space'],Y,,,,,Y,Y,f,22,
38,14,584,8,8,12,['d'],['d'],N,N,None,Y,,,,,Y,Y,f,22,
39,0,585,14,14,12,['k'],['k'],N,N,None,Y,,,,,Y,Y,f,22,
39,1,586,5,5,12,['k'],['d'],Y,N,None,Y,,,,,Y,Y,f,22,
39,2,587,4,4,12,['k'],['d'],Y,N,None,Y,,,,,Y,Y,f,22,
39,3,588,13,13,12,['k'],['d'],Y,N,None,Y,,,,,Y,Y,f,22,
39,4,589,12,12,12,['k'],['d'],Y,N,None,Y,,,,,Y,Y,f,22,
39,5,590,12,12,12,['d'],['k'],Y,N,None,Y,,,,,Y,Y,f,22,
39,6,591,12,12,12,['d'],['d'],N,Y,['space'],Y,,,,,Y,Y,f,22,
39,7,592,8,8,12,['k'],['k'],N,Y,['space'],Y,,,,,Y,Y,f,22,
39,8,593,14,14,12,['d'],['d'],N,Y,['space'],Y,,,,,Y,Y,f,22,
39,9,594,11,11,12,['d'],['d'],N,Y,['space'],Y,,,,,Y,Y,f,22,
39,10,595,12,12,12,['d'],['k'],Y,N,None,Y,,,,,Y,Y,f,22,
39,11,596,14,14,12,['d'],['k'],Y,Y,['space'],Y,,,,,Y,Y,f,22,
39,12,597,12,12,12,None,,Timed out,N,['space'],N,,,,,Y,Y,f,22,
39,13,598,2,2,12,['k'],['d'],Y,N,['space'],N,,,,,Y,Y,f,22,
39,14,599,10,10,12,['k'],['d'],Y,N,None,Y,25,38,25,,Y,Y,f,22,
