.thisRepN,.thisTrialN,.thisN,.thisIndex,.thisTrial,Block Number,Key pressed,Category,Correct?,Int Match?,Int Response,Int Correct?,Line Accuracy,Interference Accuracy,Matching Interferences,New instruction shown?,Buttons switched?,Fast?,gender,age,
0,0,0,1,1,1,['d'],['d'],Y,,,,,,,,,,F,21,
0,1,1,7,7,1,['k'],['k'],Y,,,,,,,,,,F,21,
0,2,2,12,12,1,['k'],['d'],N,Y,['space'],Y,,,,,,,F,21,
0,3,3,0,0,1,['d'],['k'],N,Y,None,N,,,,,,,F,21,
0,4,4,4,4,1,['d'],['d'],Y,N,None,Y,,,,,,,F,21,
0,5,5,8,8,1,['d'],['d'],Y,Y,['k'],N,,,,,,,F,21,
0,6,6,4,4,1,['d'],['k'],N,N,['space'],N,,,,,,,F,21,
0,7,7,1,1,1,['d'],['d'],Y,Y,['space'],Y,,,,,,,F,21,
0,8,8,10,10,1,['k'],['k'],Y,Y,['k'],N,,,,,,,F,21,
0,9,9,0,0,1,['d'],['d'],Y,Y,['space'],Y,,,,,,,F,21,
0,10,10,9,9,1,['k'],['d'],N,N,None,Y,,,,,,,F,21,
0,11,11,2,2,1,['d'],['k'],N,Y,['space'],Y,,,,,,,F,21,
0,12,12,11,11,1,['k'],['k'],Y,Y,['space'],Y,,,,,,,F,21,
0,13,13,1,1,1,['k'],['k'],Y,Y,None,N,,,,,,,F,21,
0,14,14,10,10,1,['k'],['d'],N,N,['space'],N,,,,,,,F,21,
1,0,15,4,4,1,['d'],['d'],Y,N,['d'],N,,,,,,,F,21,
1,1,16,10,10,1,['d'],['k'],N,N,None,Y,,,,,,,F,21,
1,2,17,11,11,1,['d'],['k'],N,Y,['space'],Y,,,,,,,F,21,
1,3,18,5,5,1,['k'],['k'],Y,N,None,Y,,,,,,,F,21,
1,4,19,9,9,1,['d'],['d'],Y,Y,['space'],Y,,,,,,,F,21,
1,5,20,13,13,1,['d'],['d'],Y,N,None,Y,,,,,,,F,21,
1,6,21,12,12,1,['d'],['d'],Y,Y,['space'],Y,,,,,,,F,21,
1,7,22,14,14,1,['k'],['d'],N,N,None,Y,,,,,,,F,21,
1,8,23,3,3,1,['d'],['k'],N,Y,None,N,,,,,,,F,21,
1,9,24,1,1,1,['k'],['k'],Y,N,None,Y,,,,,,,F,21,
1,10,25,4,4,1,['d'],['d'],Y,Y,['space'],Y,,,,,,,F,21,
1,11,26,14,14,1,['k'],['d'],N,N,None,Y,,,,,,,F,21,
1,12,27,7,7,1,['d'],['d'],Y,N,None,Y,,,,,,,F,21,
1,13,28,2,2,1,['d'],['k'],N,N,None,Y,,,,,,,F,21,
1,14,29,5,5,1,['k'],['k'],Y,Y,None,N,,,,,,,F,21,
2,0,30,3,3,1,['k'],['d'],N,Y,None,N,,,,,,,F,21,
2,1,31,7,7,1,['d'],['d'],Y,N,None,Y,,,,,,,F,21,
2,2,32,10,10,1,['d'],['k'],N,N,None,Y,,,,,,,F,21,
2,3,33,4,4,1,['k'],['d'],N,Y,['space'],Y,,,,,,,F,21,
2,4,34,10,10,1,['d'],['k'],N,Y,['space'],Y,,,,,,,F,21,
2,5,35,12,12,1,['d'],['d'],Y,N,None,Y,,,,,,,F,21,
2,6,36,14,14,1,['d'],['k'],N,Y,None,N,,,,,,,F,21,
2,7,37,4,4,1,['k'],['k'],Y,N,['space'],N,,,,,,,F,21,
2,8,38,2,2,1,['d'],['k'],N,N,None,Y,,,,,,,F,21,
2,9,39,6,6,1,['d'],['d'],Y,Y,None,N,,,,,,,F,21,
2,10,40,11,11,1,['k'],['d'],N,N,None,Y,,,,,,,F,21,
2,11,41,9,9,1,['k'],['d'],N,Y,None,N,,,,,,,F,21,
2,12,42,7,7,1,['d'],['d'],Y,Y,None,N,,,,,,,F,21,
2,13,43,1,1,1,['d'],['k'],N,N,None,Y,,,,,,,F,21,
2,14,44,3,3,1,['k'],['d'],N,Y,['space'],Y,,,,,,,F,21,
3,0,45,2,2,1,['k'],['k'],Y,N,None,Y,,,,,,,F,21,
3,1,46,0,0,1,['d'],['d'],Y,Y,None,N,,,,,,,F,21,
3,2,47,14,14,1,['d'],['d'],Y,N,['space'],N,,,,,,,F,21,
3,3,48,12,12,1,['k'],['d'],N,N,None,Y,,,,,,,F,21,
3,4,49,12,12,1,['d'],['k'],N,N,['space'],N,26,30,24,,,,F,21,
3,5,50,1,1,2,['d'],['k'],N,,,,,,,,,,F,21,
3,6,51,6,6,2,['d'],['k'],N,,,,,,,,,,F,21,
3,7,52,5,5,2,['k'],['d'],N,N,['space'],N,,,,,,,F,21,
3,8,53,14,14,2,['d'],['k'],N,N,None,Y,,,,,,,F,21,
3,9,54,12,12,2,['d'],['d'],Y,N,None,Y,,,,,,,F,21,
3,10,55,11,11,2,['d'],['d'],Y,N,None,Y,,,,,,,F,21,
3,11,56,12,12,2,['k'],['d'],N,N,None,Y,,,,,,,F,21,
3,12,57,7,7,2,['k'],['d'],N,N,None,Y,,,,,,,F,21,
3,13,58,1,1,2,['d'],['d'],Y,N,['space'],N,,,,,,,F,21,
3,14,59,7,7,2,['k'],['k'],Y,N,None,Y,,,,,,,F,21,
4,0,60,6,6,2,['d'],['k'],N,Y,['space'],Y,,,,,,,F,21,
4,1,61,0,0,2,['k'],['d'],N,N,None,Y,,,,,,,F,21,
4,2,62,4,4,2,['d'],['k'],N,Y,['space'],Y,,,,,,,F,21,
4,3,63,6,6,2,['d'],['d'],Y,N,None,Y,,,,,,,F,21,
4,4,64,3,3,2,['d'],['d'],Y,Y,['space'],Y,,,,,,,F,21,
4,5,65,14,14,2,['k'],['d'],N,Y,None,N,,,,,,,F,21,
4,6,66,7,7,2,['d'],['d'],Y,N,None,Y,,,,,,,F,21,
4,7,67,10,10,2,['k'],['d'],N,Y,['space'],Y,,,,,,,F,21,
4,8,68,7,7,2,['d'],['k'],N,Y,['space'],Y,,,,,,,F,21,
4,9,69,7,7,2,['k'],['k'],Y,N,['space'],N,,,,,,,F,21,
4,10,70,2,2,2,['d'],['d'],Y,Y,['space'],Y,,,,,,,F,21,
4,11,71,8,8,2,['d'],['k'],N,Y,None,N,,,,,,,F,21,
4,12,72,12,12,2,['k'],['k'],Y,N,None,Y,,,,,,,F,21,
4,13,73,6,6,2,['k'],['k'],Y,Y,['space'],Y,,,,,,,F,21,
4,14,74,5,5,2,['k'],['k'],Y,N,None,Y,,,,,,,F,21,
5,0,75,12,12,2,['k'],['d'],N,N,None,Y,,,,,,,F,21,
5,1,76,6,6,2,['d'],['k'],N,Y,None,N,,,,,,,F,21,
5,2,77,4,4,2,['d'],['k'],N,N,['space'],N,,,,,,,F,21,
5,3,78,2,2,2,['k'],['k'],Y,Y,['space'],Y,,,,,,,F,21,
5,4,79,0,0,2,['d'],['k'],N,Y,['space'],Y,,,,,,,F,21,
5,5,80,1,1,2,['k'],['d'],N,Y,None,N,,,,,,,F,21,
5,6,81,0,0,2,['d'],['k'],N,N,['space'],N,,,,,,,F,21,
5,7,82,2,2,2,['d'],['d'],Y,Y,['space'],Y,,,,,,,F,21,
5,8,83,5,5,2,['d'],['d'],Y,N,None,Y,,,,,,,F,21,
5,9,84,4,4,2,['k'],['k'],Y,N,['space'],N,,,,,,,F,21,
5,10,85,14,14,2,['d'],['d'],Y,N,None,Y,,,,,,,F,21,
5,11,86,9,9,2,['d'],['k'],N,N,['space'],N,,,,,,,F,21,
5,12,87,2,2,2,['d'],['d'],Y,Y,None,N,,,,,,,F,21,
5,13,88,7,7,2,['k'],['k'],Y,Y,['space'],Y,,,,,,,F,21,
5,14,89,6,6,2,['k'],['k'],Y,N,['space'],N,,,,,,,F,21,
6,0,90,14,14,2,['d'],['d'],Y,Y,['space'],Y,,,,,,,F,21,
6,1,91,14,14,2,['d'],['d'],Y,Y,None,N,,,,,,,F,21,
6,2,92,5,5,2,['d'],['d'],Y,N,['space'],N,,,,,,,F,21,
6,3,93,2,2,2,['k'],['d'],N,N,None,Y,,,,,,,F,21,
6,4,94,0,0,2,['k'],['k'],Y,Y,None,N,,,,,,,F,21,
6,5,95,12,12,2,['d'],['d'],Y,Y,['space'],Y,,,,,,,F,21,
6,6,96,2,2,2,['k'],['k'],Y,N,None,Y,,,,,,,F,21,
6,7,97,13,13,2,['d'],['d'],Y,Y,['space'],Y,,,,,,,F,21,
6,8,98,12,12,2,['k'],['k'],Y,N,None,Y,,,,,,,F,21,
6,9,99,14,14,2,['d'],['d'],Y,Y,['space'],Y,29,32,22,,,,F,21,
6,10,100,0,0,3,['d'],['k'],N,,,,,,,,,,F,21,
6,11,101,1,1,3,['d'],['d'],Y,,,,,,,,,,F,21,
6,12,102,6,6,3,['d'],['d'],Y,Y,['space'],Y,,,,,,,F,21,
6,13,103,14,14,3,['k'],['d'],N,N,None,Y,,,,,,,F,21,
6,14,104,5,5,3,['k'],['d'],N,Y,['space'],Y,,,,,,,F,21,
7,0,105,13,13,3,['k'],['k'],Y,N,None,Y,,,,,,,F,21,
7,1,106,10,10,3,['k'],['k'],Y,Y,['space'],Y,,,,,,,F,21,
7,2,107,4,4,3,['d'],['d'],Y,Y,['space'],Y,,,,,,,F,21,
7,3,108,7,7,3,['d'],['d'],Y,N,None,Y,,,,,,,F,21,
7,4,109,9,9,3,['k'],['k'],Y,Y,['space'],Y,,,,,,,F,21,
7,5,110,7,7,3,['k'],['k'],Y,N,None,Y,,,,,,,F,21,
7,6,111,1,1,3,['d'],['d'],Y,N,None,Y,,,,,,,F,21,
7,7,112,10,10,3,['d'],['d'],Y,N,None,Y,,,,,,,F,21,
7,8,113,2,2,3,['k'],['k'],Y,N,None,Y,,,,,,,F,21,
7,9,114,2,2,3,['k'],['k'],Y,Y,['space'],Y,,,,,,,F,21,
7,10,115,9,9,3,['k'],['k'],Y,N,None,Y,,,,,,,F,21,
7,11,116,4,4,3,['k'],['k'],Y,N,None,Y,,,,,,,F,21,
7,12,117,6,6,3,['k'],['k'],Y,N,None,Y,,,,,,,F,21,
7,13,118,13,13,3,['d'],['d'],Y,N,None,Y,,,,,,,F,21,
7,14,119,9,9,3,['k'],['k'],Y,N,None,Y,,,,,,,F,21,
8,0,120,0,0,3,['d'],['d'],Y,N,None,Y,,,,,,,F,21,
8,1,121,6,6,3,['d'],['d'],Y,N,['space'],N,,,,,,,F,21,
8,2,122,4,4,3,['k'],['k'],Y,Y,None,N,,,,,,,F,21,
8,3,123,13,13,3,['k'],['k'],Y,N,None,Y,,,,,,,F,21,
8,4,124,12,12,3,['d'],['d'],Y,Y,['space'],Y,,,,,,,F,21,
8,5,125,12,12,3,['k'],['k'],Y,Y,['space'],Y,,,,,,,F,21,
8,6,126,4,4,3,['d'],['d'],Y,N,None,Y,,,,,,,F,21,
8,7,127,10,10,3,['d'],['d'],Y,Y,None,N,,,,,,,F,21,
8,8,128,0,0,3,['k'],['k'],Y,N,['space'],N,,,,,,,F,21,
8,9,129,11,11,3,['d'],['d'],Y,Y,['space'],Y,,,,,,,F,21,
8,10,130,9,9,3,['d'],['d'],Y,N,None,Y,,,,,,,F,21,
8,11,131,4,4,3,['k'],['k'],Y,Y,['space'],Y,,,,,,,F,21,
8,12,132,1,1,3,['k'],['k'],Y,Y,['space'],Y,,,,,,,F,21,
8,13,133,10,10,3,['k'],['k'],Y,Y,['space'],Y,,,,,,,F,21,
8,14,134,10,10,3,['d'],['d'],Y,N,None,Y,,,,,,,F,21,
9,0,135,11,11,3,['d'],['d'],Y,N,None,Y,,,,,,,F,21,
9,1,136,8,8,3,['k'],['k'],Y,N,None,Y,,,,,,,F,21,
9,2,137,5,5,3,['d'],['d'],Y,Y,['space'],Y,,,,,,,F,21,
9,3,138,6,6,3,['d'],['d'],Y,N,None,Y,,,,,,,F,21,
9,4,139,1,1,3,['k'],['k'],Y,Y,['space'],Y,,,,,,,F,21,
9,5,140,13,13,3,['k'],['k'],Y,Y,None,N,,,,,,,F,21,
9,6,141,8,8,3,['d'],['d'],Y,Y,['space'],Y,,,,,,,F,21,
9,7,142,4,4,3,['k'],['k'],Y,Y,['space'],Y,,,,,,,F,21,
9,8,143,1,1,3,['d'],['d'],Y,Y,['space'],Y,,,,,,,F,21,
9,9,144,4,4,3,['k'],['k'],Y,N,None,Y,,,,,,,F,21,
9,10,145,12,12,3,['k'],['k'],Y,Y,['space'],Y,,,,,,,F,21,
9,11,146,4,4,3,['k'],['k'],Y,Y,['space'],Y,,,,,,,F,21,
9,12,147,6,6,3,['d'],['k'],N,N,None,Y,,,,,,,F,21,
9,13,148,1,1,3,['d'],['d'],Y,N,None,Y,,,,,,,F,21,
9,14,149,11,11,3,['k'],['k'],Y,Y,['space'],Y,46,43,23,,,,F,21,
10,0,150,9,9,4,['d'],['k'],N,,,,,,,,,,F,21,
10,1,151,0,0,4,['k'],['d'],N,,,,,,,,,,F,21,
10,2,152,6,6,4,['d'],['d'],Y,Y,['space'],Y,,,,,,,F,21,
10,3,153,11,11,4,['d'],['d'],Y,N,None,Y,,,,,,,F,21,
10,4,154,1,1,4,['k'],['k'],Y,Y,None,N,,,,,,,F,21,
10,5,155,12,12,4,['d'],['d'],Y,N,None,Y,,,,,,,F,21,
10,6,156,14,14,4,['k'],['k'],Y,Y,None,N,,,,,,,F,21,
10,7,157,5,5,4,['k'],['k'],Y,Y,['space'],Y,,,,,,,F,21,
10,8,158,14,14,4,['d'],['d'],Y,Y,['space'],Y,,,,,,,F,21,
10,9,159,0,0,4,['k'],['k'],Y,Y,['space'],Y,,,,,,,F,21,
10,10,160,14,14,4,['d'],['d'],Y,N,None,Y,,,,,,,F,21,
10,11,161,3,3,4,['d'],['d'],Y,Y,['space'],Y,,,,,,,F,21,
10,12,162,13,13,4,['k'],['k'],Y,N,None,Y,,,,,,,F,21,
10,13,163,8,8,4,['d'],['d'],Y,Y,['space'],Y,,,,,,,F,21,
10,14,164,0,0,4,['k'],['k'],Y,Y,['space'],Y,,,,,,,F,21,
11,0,165,5,5,4,['k'],['k'],Y,Y,['space'],Y,,,,,,,F,21,
11,1,166,10,10,4,['d'],['d'],Y,Y,['space'],Y,,,,,,,F,21,
11,2,167,9,9,4,['k'],['k'],Y,N,None,Y,,,,,,,F,21,
11,3,168,6,6,4,['k'],['k'],Y,N,None,Y,,,,,,,F,21,
11,4,169,10,10,4,['k'],['k'],Y,Y,['space'],Y,,,,,,,F,21,
11,5,170,4,4,4,['k'],['k'],Y,Y,None,N,,,,,,,F,21,
11,6,171,13,13,4,['d'],['d'],Y,Y,['space'],Y,,,,,,,F,21,
11,7,172,12,12,4,['d'],['d'],Y,N,None,Y,,,,,,,F,21,
11,8,173,3,3,4,['k'],['k'],Y,Y,['space'],Y,,,,,,,F,21,
11,9,174,7,7,4,['k'],['k'],Y,N,None,Y,,,,,,,F,21,
11,10,175,8,8,4,['k'],['k'],Y,N,None,Y,,,,,,,F,21,
11,11,176,3,3,4,['k'],['k'],Y,Y,['space'],Y,,,,,,,F,21,
11,12,177,11,11,4,['d'],['d'],Y,N,None,Y,,,,,,,F,21,
11,13,178,4,4,4,['k'],['k'],Y,Y,['space'],Y,,,,,,,F,21,
11,14,179,4,4,4,['k'],['k'],Y,N,None,Y,,,,,,,F,21,
12,0,180,11,11,4,['k'],['k'],Y,Y,['space'],Y,,,,,,,F,21,
12,1,181,12,12,4,['k'],['k'],Y,N,None,Y,,,,,,,F,21,
12,2,182,2,2,4,['k'],['k'],Y,Y,['space'],Y,,,,,,,F,21,
12,3,183,5,5,4,['k'],['k'],Y,Y,None,N,,,,,,,F,21,
12,4,184,7,7,4,['d'],['d'],Y,Y,['space'],Y,,,,,,,F,21,
12,5,185,11,11,4,['d'],['d'],Y,Y,['space'],Y,,,,,,,F,21,
12,6,186,7,7,4,['d'],['d'],Y,Y,['space'],Y,,,,,,,F,21,
12,7,187,14,14,4,['k'],['k'],Y,N,None,Y,,,,,,,F,21,
12,8,188,3,3,4,['d'],['d'],Y,N,None,Y,,,,,,,F,21,
12,9,189,6,6,4,['d'],['d'],Y,Y,None,N,,,,,,,F,21,
12,10,190,8,8,4,['d'],['d'],Y,Y,['space'],Y,,,,,,,F,21,
12,11,191,8,8,4,['d'],['d'],Y,N,None,Y,,,,,,,F,21,
12,12,192,0,0,4,['k'],['k'],Y,N,None,Y,,,,,,,F,21,
12,13,193,8,8,4,['d'],['d'],Y,N,['space'],N,,,,,,,F,21,
12,14,194,14,14,4,['d'],['d'],Y,N,['space'],N,,,,,,,F,21,
13,0,195,3,3,4,['k'],['k'],Y,N,['space'],N,,,,,,,F,21,
13,1,196,9,9,4,['d'],['d'],Y,N,['space'],N,,,,,,,F,21,
13,2,197,5,5,4,['d'],['k'],N,N,None,Y,,,,,,,F,21,
13,3,198,7,7,4,['d'],['d'],Y,N,None,Y,,,,,,,F,21,
13,4,199,6,6,4,['k'],['k'],Y,N,None,Y,47,39,25,,,,F,21,
13,5,200,3,3,5,['k'],['k'],Y,,,,,,,,,,F,21,
13,6,201,9,9,5,['d'],['d'],Y,,,,,,,,,,F,21,
13,7,202,11,11,5,['d'],['d'],Y,Y,None,N,,,,,,,F,21,
13,8,203,13,13,5,['d'],['d'],Y,Y,['space'],Y,,,,,,,F,21,
13,9,204,9,9,5,['d'],['d'],Y,N,None,Y,,,,,,,F,21,
13,10,205,3,3,5,['d'],['d'],Y,Y,['space'],Y,,,,,,,F,21,
13,11,206,14,14,5,['k'],['k'],Y,Y,None,N,,,,,,,F,21,
13,12,207,4,4,5,['d'],['d'],Y,Y,['space'],Y,,,,,,,F,21,
13,13,208,10,10,5,['d'],['d'],Y,Y,['space'],Y,,,,,,,F,21,
13,14,209,3,3,5,['k'],['k'],Y,Y,['space'],Y,,,,,,,F,21,
14,0,210,9,9,5,['d'],['d'],Y,Y,['space'],Y,,,,,,,F,21,
14,1,211,3,3,5,['k'],['k'],Y,Y,['space'],Y,,,,,,,F,21,
14,2,212,13,13,5,['d'],['d'],Y,N,None,Y,,,,,,,F,21,
14,3,213,14,14,5,['k'],['k'],Y,Y,['space'],Y,,,,,,,F,21,
14,4,214,12,12,5,['d'],['d'],Y,Y,None,N,,,,,,,F,21,
14,5,215,1,1,5,['d'],['d'],Y,Y,['space'],Y,,,,,,,F,21,
14,6,216,0,0,5,['d'],['d'],Y,N,None,Y,,,,,,,F,21,
14,7,217,1,1,5,['k'],['k'],Y,N,None,Y,,,,,,,F,21,
14,8,218,10,10,5,['k'],['k'],Y,N,None,Y,,,,,,,F,21,
14,9,219,10,10,5,['d'],['d'],Y,Y,['space'],Y,,,,,,,F,21,
14,10,220,8,8,5,['k'],['k'],Y,N,None,Y,,,,,,,F,21,
14,11,221,8,8,5,['d'],['d'],Y,Y,['space'],Y,,,,,,,F,21,
14,12,222,6,6,5,['d'],['d'],Y,N,None,Y,,,,,,,F,21,
14,13,223,11,11,5,['d'],['d'],Y,N,None,Y,,,,,,,F,21,
14,14,224,14,14,5,['k'],['k'],Y,Y,None,N,,,,,,,F,21,
15,0,225,4,4,5,['d'],['d'],Y,Y,['space'],Y,,,,,,,F,21,
15,1,226,11,11,5,['d'],['d'],Y,Y,['space'],Y,,,,,,,F,21,
15,2,227,2,2,5,['d'],['d'],Y,Y,['space'],Y,,,,,,,F,21,
15,3,228,10,10,5,['k'],['k'],Y,N,None,Y,,,,,,,F,21,
15,4,229,12,12,5,['d'],['d'],Y,N,None,Y,,,,,,,F,21,
15,5,230,14,14,5,['d'],['d'],Y,N,None,Y,,,,,,,F,21,
15,6,231,0,0,5,['k'],['k'],Y,N,['space'],N,,,,,,,F,21,
15,7,232,3,3,5,['k'],['k'],Y,Y,['space'],Y,,,,,,,F,21,
15,8,233,9,9,5,['d'],['d'],Y,N,None,Y,,,,,,,F,21,
15,9,234,12,12,5,['k'],['k'],Y,Y,['space'],Y,,,,,,,F,21,
15,10,235,5,5,5,['k'],['k'],Y,N,None,Y,,,,,,,F,21,
15,11,236,9,9,5,['k'],['k'],Y,N,['space'],N,,,,,,,F,21,
15,12,237,12,12,5,['k'],['k'],Y,Y,['space'],Y,,,,,,,F,21,
15,13,238,10,10,5,['k'],['k'],Y,Y,['space'],Y,,,,,,,F,21,
15,14,239,3,3,5,['k'],['k'],Y,N,None,Y,,,,,,,F,21,
16,0,240,9,9,5,['k'],['k'],Y,Y,['space'],Y,,,,,,,F,21,
16,1,241,8,8,5,['d'],['d'],Y,N,None,Y,,,,,,,F,21,
16,2,242,10,10,5,['d'],['d'],Y,Y,['space'],Y,,,,,,,F,21,
16,3,243,7,7,5,['d'],['d'],Y,Y,['space'],Y,,,,,,,F,21,
16,4,244,13,13,5,['k'],['k'],Y,N,['space'],N,,,,,,,F,21,
16,5,245,1,1,5,['d'],['d'],Y,N,None,Y,,,,,,,F,21,
16,6,246,5,5,5,['k'],['k'],Y,N,['space'],N,,,,,,,F,21,
16,7,247,11,11,5,['d'],['d'],Y,N,None,Y,,,,,,,F,21,
16,8,248,4,4,5,['k'],['k'],Y,N,None,Y,,,,,,,F,21,
16,9,249,1,1,5,['k'],['k'],Y,N,None,Y,50,40,25,,,,F,21,
16,10,250,13,13,6,['d'],['k'],N,,,,,,,,,,F,21,
16,11,251,1,1,6,['d'],['d'],Y,,,,,,,,,,F,21,
16,12,252,11,11,6,['k'],['k'],Y,Y,['space'],Y,,,,,,,F,21,
16,13,253,0,0,6,['k'],['k'],Y,Y,['space'],Y,,,,,,,F,21,
16,14,254,3,3,6,['d'],['d'],Y,Y,['space'],Y,,,,,,,F,21,
17,0,255,4,4,6,['k'],['k'],Y,Y,['space'],Y,,,,,,,F,21,
17,1,256,3,3,6,['d'],['d'],Y,Y,['space'],Y,,,,,,,F,21,
17,2,257,3,3,6,['d'],['d'],Y,N,None,Y,,,,,,,F,21,
17,3,258,13,13,6,['k'],['k'],Y,N,['space'],N,,,,,,,F,21,
17,4,259,3,3,6,['k'],['k'],Y,Y,['space'],Y,,,,,,,F,21,
17,5,260,13,13,6,['k'],['k'],Y,N,['space'],N,,,,,,,F,21,
17,6,261,12,12,6,['d'],['d'],Y,Y,['space'],Y,,,,,,,F,21,
17,7,262,10,10,6,['d'],['d'],Y,Y,None,N,,,,,,,F,21,
17,8,263,7,7,6,['k'],['k'],Y,N,None,Y,,,,,,,F,21,
17,9,264,2,2,6,['d'],['d'],Y,N,None,Y,,,,,,,F,21,
17,10,265,3,3,6,['k'],['k'],Y,N,['space'],N,,,,,,,F,21,
17,11,266,6,6,6,['k'],['k'],Y,N,None,Y,,,,,,,F,21,
17,12,267,14,14,6,['k'],['k'],Y,Y,['space'],Y,,,,,,,F,21,
17,13,268,8,8,6,['d'],['d'],Y,Y,['space'],Y,,,,,,,F,21,
17,14,269,12,12,6,['k'],['k'],Y,Y,None,N,,,,,,,F,21,
18,0,270,9,9,6,['d'],['d'],Y,N,None,Y,,,,,,,F,21,
18,1,271,6,6,6,['d'],['d'],Y,N,['space'],N,,,,,,,F,21,
18,2,272,8,8,6,['d'],['d'],Y,Y,['space'],Y,,,,,,,F,21,
18,3,273,1,1,6,['k'],['k'],Y,Y,['space'],Y,,,,,,,F,21,
18,4,274,12,12,6,['k'],['k'],Y,Y,None,N,,,,,,,F,21,
18,5,275,14,14,6,['d'],['d'],Y,N,None,Y,,,,,,,F,21,
18,6,276,5,5,6,['d'],['d'],Y,Y,None,N,,,,,,,F,21,
18,7,277,0,0,6,['k'],['k'],Y,N,None,Y,,,,,,,F,21,
18,8,278,6,6,6,['d'],['d'],Y,Y,['space'],Y,,,,,,,F,21,
18,9,279,0,0,6,['d'],['d'],Y,N,None,Y,,,,,,,F,21,
18,10,280,12,12,6,['k'],['k'],Y,Y,['space'],Y,,,,,,,F,21,
18,11,281,12,12,6,['k'],['k'],Y,N,None,Y,,,,,,,F,21,
18,12,282,2,2,6,['d'],['d'],Y,N,['space'],N,,,,,,,F,21,
18,13,283,0,0,6,['k'],['k'],Y,N,None,Y,,,,,,,F,21,
18,14,284,8,8,6,['k'],['k'],Y,Y,['space'],Y,,,,,,,F,21,
19,0,285,5,5,6,['d'],['d'],Y,Y,None,N,,,,,,,F,21,
19,1,286,6,6,6,['d'],['d'],Y,Y,['space'],Y,,,,,,,F,21,
19,2,287,9,9,6,['k'],['k'],Y,N,None,Y,,,,,,,F,21,
19,3,288,5,5,6,['k'],['k'],Y,Y,['space'],Y,,,,,,,F,21,
19,4,289,8,8,6,['k'],['k'],Y,N,None,Y,,,,,,,F,21,
19,5,290,5,5,6,['d'],['d'],Y,N,None,Y,,,,,,,F,21,
19,6,291,9,9,6,['k'],['k'],Y,Y,['space'],Y,,,,,,,F,21,
19,7,292,9,9,6,['k'],['k'],Y,Y,None,N,,,,,,,F,21,
19,8,293,2,2,6,['d'],['d'],Y,Y,['space'],Y,,,,,,,F,21,
19,9,294,13,13,6,['d'],['d'],Y,Y,None,N,,,,,,,F,21,
19,10,295,11,11,6,['k'],['k'],Y,N,None,Y,,,,,,,F,21,
19,11,296,1,1,6,['k'],['k'],Y,N,None,Y,,,,,,,F,21,
19,12,297,9,9,6,['d'],['d'],Y,N,None,Y,,,,,,,F,21,
19,13,298,7,7,6,['d'],['d'],Y,N,None,Y,,,,,,,F,21,
19,14,299,10,10,6,['k'],['k'],Y,N,None,Y,49,36,25,,,,F,21,
20,0,300,6,6,7,['k'],['k'],Y,,,,,,,,,,F,21,
20,1,301,12,12,7,['d'],['d'],Y,,,,,,,,,,F,21,
20,2,302,4,4,7,['k'],['k'],Y,N,None,Y,,,,,,,F,21,
20,3,303,2,2,7,['k'],['k'],Y,Y,['space'],Y,,,,,,,F,21,
20,4,304,14,14,7,['d'],['d'],Y,Y,None,N,,,,,,,F,21,
20,5,305,14,14,7,['d'],['d'],Y,N,None,Y,,,,,,,F,21,
20,6,306,1,1,7,['k'],['k'],Y,Y,['space'],Y,,,,,,,F,21,
20,7,307,5,5,7,['d'],['d'],Y,Y,None,N,,,,,,,F,21,
20,8,308,13,13,7,['k'],['k'],Y,Y,None,N,,,,,,,F,21,
20,9,309,11,11,7,['d'],['d'],Y,Y,None,N,,,,,,,F,21,
20,10,310,0,0,7,['k'],['k'],Y,N,None,Y,,,,,,,F,21,
20,11,311,13,13,7,['k'],['k'],Y,Y,['space'],Y,,,,,,,F,21,
20,12,312,14,14,7,['k'],['k'],Y,N,None,Y,,,,,,,F,21,
20,13,313,4,4,7,['k'],['k'],Y,Y,['space'],Y,,,,,,,F,21,
20,14,314,4,4,7,['k'],['k'],Y,N,None,Y,,,,,,,F,21,
21,0,315,7,7,7,['d'],['k'],N,N,None,Y,,,,,,,F,21,
21,1,316,0,0,7,['k'],['k'],Y,N,None,Y,,,,,,,F,21,
21,2,317,14,14,7,['k'],['k'],Y,N,None,Y,,,,,,,F,21,
21,3,318,10,10,7,['d'],['d'],Y,Y,None,N,,,,,,,F,21,
21,4,319,13,13,7,['d'],['d'],Y,N,None,Y,,,,,,,F,21,
21,5,320,11,11,7,['k'],['k'],Y,N,None,Y,,,,,,,F,21,
21,6,321,13,13,7,['d'],['d'],Y,N,None,Y,,,,,,,F,21,
21,7,322,9,9,7,['k'],['k'],Y,Y,['space'],Y,,,,,,,F,21,
21,8,323,1,1,7,['d'],['d'],Y,N,None,Y,,,,,,,F,21,
21,9,324,12,12,7,['k'],['k'],Y,Y,['space'],Y,,,,,,,F,21,
21,10,325,1,1,7,['k'],['k'],Y,Y,None,N,,,,,,,F,21,
21,11,326,4,4,7,['d'],['d'],Y,N,None,Y,,,,,,,F,21,
21,12,327,0,0,7,['d'],['d'],Y,Y,None,N,,,,,,,F,21,
21,13,328,7,7,7,['k'],['k'],Y,N,None,Y,,,,,,,F,21,
21,14,329,2,2,7,['d'],['d'],Y,N,None,Y,,,,,,,F,21,
22,0,330,11,11,7,['k'],['k'],Y,Y,['space'],Y,,,,,,,F,21,
22,1,331,11,11,7,['d'],['d'],Y,N,['space'],N,,,,,,,F,21,
22,2,332,3,3,7,['k'],['k'],Y,Y,['space'],Y,,,,,,,F,21,
22,3,333,14,14,7,['k'],['k'],Y,Y,None,N,,,,,,,F,21,
22,4,334,2,2,7,['k'],['k'],Y,Y,['space'],Y,,,,,,,F,21,
22,5,335,9,9,7,['d'],['d'],Y,N,None,Y,,,,,,,F,21,
22,6,336,13,13,7,['d'],['d'],Y,Y,None,N,,,,,,,F,21,
22,7,337,6,6,7,['d'],['d'],Y,Y,None,N,,,,,,,F,21,
22,8,338,13,13,7,['d'],['d'],Y,Y,['space'],Y,,,,,,,F,21,
22,9,339,2,2,7,['k'],['k'],Y,Y,['space'],Y,,,,,,,F,21,
22,10,340,10,10,7,['d'],['d'],Y,Y,['space'],Y,,,,,,,F,21,
22,11,341,2,2,7,['k'],['k'],Y,N,None,Y,,,,,,,F,21,
22,12,342,12,12,7,['k'],['k'],Y,N,None,Y,,,,,,,F,21,
22,13,343,10,10,7,['d'],['d'],Y,N,None,Y,,,,,,,F,21,
22,14,344,2,2,7,['d'],['d'],Y,N,None,Y,,,,,,,F,21,
23,0,345,3,3,7,['k'],['k'],Y,Y,['space'],Y,,,,,,,F,21,
23,1,346,5,5,7,['k'],['k'],Y,N,None,Y,,,,,,,F,21,
23,2,347,3,3,7,['k'],['k'],Y,Y,['space'],Y,,,,,,,F,21,
23,3,348,11,11,7,['d'],['d'],Y,N,None,Y,,,,,,,F,21,
23,4,349,14,14,7,['d'],['d'],Y,Y,['space'],Y,49,37,25,,,,F,21,
23,5,350,13,13,8,['k'],['k'],Y,,,,,,,,,,F,21,
23,6,351,12,12,8,['k'],['k'],Y,,,,,,,,,,F,21,
23,7,352,14,14,8,['k'],['k'],Y,Y,['space'],Y,,,,,,,F,21,
23,8,353,13,13,8,['k'],['k'],Y,N,None,Y,,,,,,,F,21,
23,9,354,9,9,8,['d'],['d'],Y,N,None,Y,,,,,,,F,21,
23,10,355,6,6,8,['d'],['d'],Y,N,None,Y,,,,,,,F,21,
23,11,356,10,10,8,['d'],['d'],Y,N,None,Y,,,,,,,F,21,
23,12,357,8,8,8,['d'],['d'],Y,Y,None,N,,,,,,,F,21,
23,13,358,7,7,8,['d'],['k'],N,N,['space'],N,,,,,,,F,21,
23,14,359,9,9,8,['d'],['d'],Y,N,['space'],N,,,,,,,F,21,
24,0,360,0,0,8,['k'],['k'],Y,Y,['space'],Y,,,,,,,F,21,
24,1,361,3,3,8,['k'],['k'],Y,N,None,Y,,,,,,,F,21,
24,2,362,11,11,8,['d'],['k'],N,Y,['space'],Y,,,,,,,F,21,
24,3,363,12,12,8,['d'],['d'],Y,N,None,Y,,,,,,,F,21,
24,4,364,7,7,8,['k'],['k'],Y,Y,['space'],Y,,,,,,,F,21,
24,5,365,1,1,8,['d'],['d'],Y,Y,None,N,,,,,,,F,21,
24,6,366,8,8,8,['k'],['k'],Y,N,None,Y,,,,,,,F,21,
24,7,367,4,4,8,['d'],['d'],Y,N,None,Y,,,,,,,F,21,
24,8,368,13,13,8,['d'],['d'],Y,Y,['space'],Y,,,,,,,F,21,
24,9,369,13,13,8,['d'],['d'],Y,Y,['space'],Y,,,,,,,F,21,
24,10,370,8,8,8,['d'],['d'],Y,Y,['space'],Y,,,,,,,F,21,
24,11,371,9,9,8,['k'],['k'],Y,Y,None,N,,,,,,,F,21,
24,12,372,2,2,8,['d'],['d'],Y,N,None,Y,,,,,,,F,21,
24,13,373,7,7,8,['k'],['k'],Y,Y,['space'],Y,,,,,,,F,21,
24,14,374,6,6,8,['d'],['d'],Y,N,None,Y,,,,,,,F,21,
25,0,375,5,5,8,['k'],['k'],Y,N,None,Y,,,,,,,F,21,
25,1,376,11,11,8,['k'],['k'],Y,Y,None,N,,,,,,,F,21,
25,2,377,3,3,8,['d'],['d'],Y,Y,['space'],Y,,,,,,,F,21,
25,3,378,2,2,8,['d'],['d'],Y,N,None,Y,,,,,,,F,21,
25,4,379,14,14,8,['k'],['k'],Y,N,None,Y,,,,,,,F,21,
25,5,380,10,10,8,['d'],['d'],Y,Y,['space'],Y,,,,,,,F,21,
25,6,381,6,6,8,['d'],['d'],Y,Y,['space'],Y,,,,,,,F,21,
25,7,382,8,8,8,['d'],['d'],Y,N,None,Y,,,,,,,F,21,
25,8,383,8,8,8,['k'],['k'],Y,N,None,Y,,,,,,,F,21,
25,9,384,10,10,8,['d'],['d'],Y,N,None,Y,,,,,,,F,21,
25,10,385,11,11,8,['d'],['d'],Y,Y,['space'],Y,,,,,,,F,21,
25,11,386,8,8,8,['k'],['k'],Y,N,None,Y,,,,,,,F,21,
25,12,387,14,14,8,['k'],['k'],Y,Y,['space'],Y,,,,,,,F,21,
25,13,388,2,2,8,['k'],['k'],Y,Y,['space'],Y,,,,,,,F,21,
25,14,389,6,6,8,['k'],['d'],N,Y,['space'],Y,,,,,,,F,21,
26,0,390,11,11,8,['k'],['k'],Y,N,None,Y,,,,,,,F,21,
26,1,391,9,9,8,['k'],['k'],Y,N,None,Y,,,,,,,F,21,
26,2,392,5,5,8,['d'],['d'],Y,Y,['space'],Y,,,,,,,F,21,
26,3,393,13,13,8,['d'],['d'],Y,Y,['space'],Y,,,,,,,F,21,
26,4,394,0,0,8,['k'],['k'],Y,N,None,Y,,,,,,,F,21,
26,5,395,9,9,8,['k'],['k'],Y,Y,['space'],Y,,,,,,,F,21,
26,6,396,8,8,8,['d'],['d'],Y,N,None,Y,,,,,,,F,21,
26,7,397,10,10,8,['k'],['d'],N,Y,['space'],Y,,,,,,,F,21,
26,8,398,5,5,8,['d'],['d'],Y,Y,None,N,,,,,,,F,21,
26,9,399,6,6,8,['k'],['d'],N,Y,['space'],Y,45,41,25,,,,F,21,
26,10,400,12,12,9,['d'],['d'],Y,,,,,,,,,,F,21,
26,11,401,5,5,9,['d'],['d'],Y,,,,,,,,,,F,21,
26,12,402,7,7,9,['k'],['k'],Y,N,None,Y,,,,,,,F,21,
26,13,403,11,11,9,['d'],['d'],Y,Y,['space'],Y,,,,,,,F,21,
26,14,404,4,4,9,['k'],['k'],Y,N,None,Y,,,,,,,F,21,
27,0,405,9,9,9,['d'],['d'],Y,Y,['space'],Y,,,,,,,F,21,
27,1,406,14,14,9,['k'],['k'],Y,Y,['space'],Y,,,,,,,F,21,
27,2,407,14,14,9,['k'],['k'],Y,Y,['space'],Y,,,,,,,F,21,
27,3,408,11,11,9,['k'],['k'],Y,Y,['space'],Y,,,,,,,F,21,
27,4,409,7,7,9,['d'],['d'],Y,Y,['k'],N,,,,,,,F,21,
27,5,410,10,10,9,['d'],['d'],Y,Y,['space'],Y,,,,,,,F,21,
27,6,411,1,1,9,['d'],['d'],Y,N,None,Y,,,,,,,F,21,
27,7,412,3,3,9,['k'],['k'],Y,Y,['space'],Y,,,,,,,F,21,
27,8,413,8,8,9,['k'],['k'],Y,N,None,Y,,,,,,,F,21,
27,9,414,10,10,9,['d'],['d'],Y,Y,None,N,,,,,,,F,21,
27,10,415,9,9,9,['d'],['d'],Y,Y,['space'],Y,,,,,,,F,21,
27,11,416,1,1,9,['k'],['k'],Y,N,None,Y,,,,,,,F,21,
27,12,417,0,0,9,['d'],['k'],N,N,None,Y,,,,,,,F,21,
27,13,418,3,3,9,['d'],['d'],Y,Y,None,N,,,,,,,F,21,
27,14,419,3,3,9,['d'],['d'],Y,N,None,Y,,,,,,,F,21,
28,0,420,8,8,9,['d'],['d'],Y,N,None,Y,,,,,,,F,21,
28,1,421,1,1,9,['k'],['k'],Y,N,None,Y,,,,,,,F,21,
28,2,422,0,0,9,['k'],['k'],Y,N,None,Y,,,,,,,F,21,
28,3,423,5,5,9,['d'],['d'],Y,Y,['space'],Y,,,,,,,F,21,
28,4,424,6,6,9,['d'],['d'],Y,Y,['space'],Y,,,,,,,F,21,
28,5,425,13,13,9,['k'],['k'],Y,Y,None,N,,,,,,,F,21,
28,6,426,5,5,9,['d'],['d'],Y,N,None,Y,,,,,,,F,21,
28,7,427,6,6,9,['d'],['d'],Y,Y,['space'],Y,,,,,,,F,21,
28,8,428,0,0,9,['k'],['k'],Y,Y,None,N,,,,,,,F,21,
28,9,429,2,2,9,['k'],['k'],Y,N,None,Y,,,,,,,F,21,
28,10,430,8,8,9,['k'],['k'],Y,N,None,Y,,,,,,,F,21,
28,11,431,11,11,9,['k'],['k'],Y,N,None,Y,,,,,,,F,21,
28,12,432,11,11,9,['k'],['k'],Y,N,None,Y,,,,,,,F,21,
28,13,433,12,12,9,['d'],['d'],Y,Y,None,N,,,,,,,F,21,
28,14,434,12,12,9,['d'],['d'],Y,Y,['space'],Y,,,,,,,F,21,
29,0,435,1,1,9,['k'],['k'],Y,N,None,Y,,,,,,,F,21,
29,1,436,14,14,9,['d'],['d'],Y,N,None,Y,,,,,,,F,21,
29,2,437,8,8,9,['d'],['d'],Y,N,None,Y,,,,,,,F,21,
29,3,438,8,8,9,['k'],['k'],Y,N,None,Y,,,,,,,F,21,
29,4,439,13,13,9,['d'],['d'],Y,Y,None,N,,,,,,,F,21,
29,5,440,8,8,9,['k'],['k'],Y,Y,['space'],Y,,,,,,,F,21,
29,6,441,5,5,9,['k'],['k'],Y,N,None,Y,,,,,,,F,21,
29,7,442,7,7,9,['d'],['d'],Y,Y,['space'],Y,,,,,,,F,21,
29,8,443,13,13,9,['d'],['d'],Y,Y,None,N,,,,,,,F,21,
29,9,444,3,3,9,['d'],['d'],Y,N,None,Y,,,,,,,F,21,
29,10,445,2,2,9,['k'],['k'],Y,Y,['space'],Y,,,,,,,F,21,
29,11,446,10,10,9,['k'],['k'],Y,Y,['space'],Y,,,,,,,F,21,
29,12,447,6,6,9,['d'],['d'],Y,N,None,Y,,,,,,,F,21,
29,13,448,8,8,9,['k'],['k'],Y,N,None,Y,,,,,,,F,21,
29,14,449,11,11,9,['d'],['d'],Y,N,None,Y,49,40,24,,,,F,21,
30,0,450,2,2,10,['d'],['d'],Y,,,,,,,,,,F,21,
30,1,451,11,11,10,['d'],['d'],Y,,,,,,,,,,F,21,
30,2,452,1,1,10,['k'],['k'],Y,N,None,Y,,,,,,,F,21,
30,3,453,11,11,10,['k'],['k'],Y,Y,['space'],Y,,,,,,,F,21,
30,4,454,7,7,10,['k'],['k'],Y,Y,None,N,,,,,,,F,21,
30,5,455,8,8,10,['k'],['k'],Y,N,None,Y,,,,,,,F,21,
30,6,456,5,5,10,['k'],['k'],Y,N,None,Y,,,,,,,F,21,
30,7,457,2,2,10,['k'],['k'],Y,N,None,Y,,,,,,,F,21,
30,8,458,6,6,10,['k'],['k'],Y,N,None,Y,,,,,,,F,21,
30,9,459,13,13,10,['k'],['k'],Y,N,None,Y,,,,,,,F,21,
30,10,460,0,0,10,['d'],['d'],Y,N,None,Y,,,,,,,F,21,
30,11,461,3,3,10,['d'],['d'],Y,N,None,Y,,,,,,,F,21,
30,12,462,12,12,10,['k'],['k'],Y,N,None,Y,,,,,,,F,21,
30,13,463,2,2,10,['d'],['d'],Y,Y,None,N,,,,,,,F,21,
30,14,464,10,10,10,['d'],['d'],Y,Y,None,N,,,,,,,F,21,
31,0,465,14,14,10,['d'],['d'],Y,Y,None,N,,,,,,,F,21,
31,1,466,9,9,10,['d'],['d'],Y,N,None,Y,,,,,,,F,21,
31,2,467,11,11,10,['k'],['k'],Y,N,None,Y,,,,,,,F,21,
31,3,468,6,6,10,['d'],['k'],N,Y,['space'],Y,,,,,,,F,21,
31,4,469,0,0,10,['d'],['d'],Y,N,None,Y,,,,,,,F,21,
31,5,470,9,9,10,['d'],['d'],Y,N,None,Y,,,,,,,F,21,
31,6,471,4,4,10,['d'],['d'],Y,N,None,Y,,,,,,,F,21,
31,7,472,11,11,10,['k'],['k'],Y,Y,None,N,,,,,,,F,21,
31,8,473,7,7,10,['k'],['k'],Y,N,None,Y,,,,,,,F,21,
31,9,474,8,8,10,['d'],['d'],Y,Y,None,N,,,,,,,F,21,
31,10,475,4,4,10,['k'],['k'],Y,Y,['space'],Y,,,,,,,F,21,
31,11,476,12,12,10,['k'],['k'],Y,N,None,Y,,,,,,,F,21,
31,12,477,7,7,10,['d'],['d'],Y,N,None,Y,,,,,,,F,21,
31,13,478,9,9,10,['d'],['d'],Y,Y,['space'],Y,,,,,,,F,21,
31,14,479,3,3,10,['d'],['d'],Y,N,None,Y,,,,,,,F,21,
32,0,480,0,0,10,['k'],['k'],Y,N,None,Y,,,,,,,F,21,
32,1,481,14,14,10,['k'],['k'],Y,N,None,Y,,,,,,,F,21,
32,2,482,6,6,10,['k'],['k'],Y,N,None,Y,,,,,,,F,21,
32,3,483,12,12,10,['k'],['k'],Y,N,['space'],N,,,,,,,F,21,
32,4,484,1,1,10,['k'],['k'],Y,N,None,Y,,,,,,,F,21,
32,5,485,4,4,10,['d'],['d'],Y,N,None,Y,,,,,,,F,21,
32,6,486,5,5,10,['k'],['k'],Y,Y,None,N,,,,,,,F,21,
32,7,487,13,13,10,['k'],['k'],Y,Y,['space'],Y,,,,,,,F,21,
32,8,488,4,4,10,['d'],['d'],Y,N,['space'],N,,,,,,,F,21,
32,9,489,8,8,10,['k'],['k'],Y,N,None,Y,,,,,,,F,21,
32,10,490,9,9,10,['k'],['k'],Y,N,None,Y,,,,,,,F,21,
32,11,491,0,0,10,['k'],['k'],Y,Y,None,N,,,,,,,F,21,
32,12,492,5,5,10,['d'],['d'],Y,N,None,Y,,,,,,,F,21,
32,13,493,1,1,10,['d'],['d'],Y,Y,None,N,,,,,,,F,21,
32,14,494,10,10,10,['k'],['k'],Y,Y,['space'],Y,,,,,,,F,21,
33,0,495,9,9,10,['k'],['k'],Y,N,['space'],N,,,,,,,F,21,
33,1,496,8,8,10,['d'],['d'],Y,N,['space'],N,,,,,,,F,21,
33,2,497,5,5,10,['k'],['k'],Y,Y,['space'],Y,,,,,,,F,21,
33,3,498,5,5,10,['d'],['d'],Y,Y,['space'],Y,,,,,,,F,21,
33,4,499,8,8,10,['k'],['k'],Y,Y,None,N,49,34,18,,,,F,21,
33,5,500,8,8,11,None,,Timed out,,,,,,,Y,Y,Y,F,21,
33,6,501,9,9,11,['k'],['d'],Y,,,,,,,,Y,Y,F,21,
33,7,502,0,0,11,['k'],['d'],Y,Y,['space'],Y,,,,,Y,Y,F,21,
33,8,503,10,10,11,['d'],['k'],Y,N,None,Y,,,,,Y,Y,F,21,
33,9,504,2,2,11,['d'],['k'],Y,Y,['space'],Y,,,,,Y,Y,F,21,
33,10,505,11,11,11,['k'],['d'],Y,Y,['space'],Y,,,,,Y,Y,F,21,
33,11,506,7,7,11,['k'],['d'],Y,N,None,Y,,,,,Y,Y,F,21,
33,12,507,3,3,11,['k'],['d'],Y,N,None,Y,,,,,Y,Y,F,21,
33,13,508,4,4,11,['k'],['d'],Y,N,None,Y,,,,,Y,Y,F,21,
33,14,509,6,6,11,['d'],['k'],Y,Y,['space'],Y,,,,,Y,Y,F,21,
34,0,510,12,12,11,None,,Timed out,Y,None,N,,,,,Y,Y,F,21,
34,1,511,5,5,11,['d'],['k'],Y,N,None,Y,,,,,Y,Y,F,21,
34,2,512,6,6,11,['d'],['k'],Y,Y,None,N,,,,,Y,Y,F,21,
34,3,513,10,10,11,['k'],['d'],Y,N,None,Y,,,,,Y,Y,F,21,
34,4,514,6,6,11,['d'],['k'],Y,N,None,Y,,,,,Y,Y,F,21,
34,5,515,11,11,11,['d'],['k'],Y,N,None,Y,,,,,Y,Y,F,21,
34,6,516,4,4,11,['k'],['d'],Y,Y,['space'],Y,,,,,Y,Y,F,21,
34,7,517,6,6,11,['k'],['d'],Y,N,None,Y,,,,,Y,Y,F,21,
34,8,518,3,3,11,['k'],['d'],Y,Y,['space'],Y,,,,,Y,Y,F,21,
34,9,519,9,9,11,['d'],['k'],Y,Y,['space'],Y,,,,,Y,Y,F,21,
34,10,520,13,13,11,['d'],['k'],Y,N,None,Y,,,,,Y,Y,F,21,
34,11,521,0,0,11,['k'],['d'],Y,N,None,Y,,,,,Y,Y,F,21,
34,12,522,1,1,11,['k'],['d'],Y,Y,None,N,,,,,Y,Y,F,21,
34,13,523,1,1,11,['d'],['k'],Y,Y,None,N,,,,,Y,Y,F,21,
34,14,524,0,0,11,['k'],['d'],Y,Y,['space'],Y,,,,,Y,Y,F,21,
35,0,525,2,2,11,['d'],['k'],Y,Y,['space'],Y,,,,,Y,Y,F,21,
35,1,526,11,11,11,['d'],['k'],Y,N,None,Y,,,,,Y,Y,F,21,
35,2,527,13,13,11,['k'],['d'],Y,N,None,Y,,,,,Y,Y,F,21,
35,3,528,11,11,11,['d'],['k'],Y,Y,['space'],Y,,,,,Y,Y,F,21,
35,4,529,2,2,11,['d'],['k'],Y,Y,['space'],Y,,,,,Y,Y,F,21,
35,5,530,1,1,11,['k'],['d'],Y,N,None,Y,,,,,Y,Y,F,21,
35,6,531,0,0,11,['k'],['d'],Y,Y,['space'],Y,,,,,Y,Y,F,21,
35,7,532,2,2,11,['k'],['d'],Y,N,None,Y,,,,,Y,Y,F,21,
35,8,533,2,2,11,['k'],['d'],Y,N,None,Y,,,,,Y,Y,F,21,
35,9,534,5,5,11,['k'],['d'],Y,N,None,Y,,,,,Y,Y,F,21,
35,10,535,5,5,11,['k'],['d'],Y,N,None,Y,,,,,Y,Y,F,21,
35,11,536,2,2,11,['k'],['d'],Y,Y,None,N,,,,,Y,Y,F,21,
35,12,537,0,0,11,['k'],['d'],Y,N,None,Y,,,,,Y,Y,F,21,
35,13,538,1,1,11,['k'],['d'],Y,Y,['space'],Y,,,,,Y,Y,F,21,
35,14,539,8,8,11,['k'],['d'],Y,Y,None,N,,,,,Y,Y,F,21,
36,0,540,14,14,11,['d'],['k'],Y,Y,['space'],Y,,,,,Y,Y,F,21,
36,1,541,13,13,11,['k'],['d'],Y,N,None,Y,,,,,Y,Y,F,21,
36,2,542,6,6,11,['d'],['k'],Y,N,None,Y,,,,,Y,Y,F,21,
36,3,543,0,0,11,['d'],['k'],Y,N,None,Y,,,,,Y,Y,F,21,
36,4,544,7,7,11,['k'],['d'],Y,Y,['space'],Y,,,,,Y,Y,F,21,
36,5,545,3,3,11,['d'],['k'],Y,N,None,Y,,,,,Y,Y,F,21,
36,6,546,3,3,11,['k'],['d'],Y,Y,['space'],Y,,,,,Y,Y,F,21,
36,7,547,8,8,11,None,,Timed out,N,None,Y,,,,,Y,Y,F,21,
36,8,548,10,10,11,['d'],['k'],Y,N,None,Y,,,,,Y,Y,F,21,
36,9,549,8,8,11,['k'],['d'],Y,Y,None,N,47,41,23,,Y,Y,F,21,
36,10,550,4,4,12,['d'],['k'],Y,,,,,,,,Y,Y,F,21,
36,11,551,3,3,12,['d'],['k'],Y,,,,,,,,Y,Y,F,21,
36,12,552,6,6,12,['k'],['d'],Y,Y,['space'],Y,,,,,Y,Y,F,21,
36,13,553,5,5,12,['d'],['k'],Y,Y,['space'],Y,,,,,Y,Y,F,21,
36,14,554,10,10,12,['k'],['d'],Y,N,None,Y,,,,,Y,Y,F,21,
37,0,555,13,13,12,['d'],['d'],N,N,None,Y,,,,,Y,Y,F,21,
37,1,556,7,7,12,['k'],['d'],Y,Y,None,N,,,,,Y,Y,F,21,
37,2,557,1,1,12,['k'],['d'],Y,N,None,Y,,,,,Y,Y,F,21,
37,3,558,4,4,12,['k'],['d'],Y,Y,['space'],Y,,,,,Y,Y,F,21,
37,4,559,2,2,12,['d'],['k'],Y,Y,['space'],Y,,,,,Y,Y,F,21,
37,5,560,14,14,12,['d'],['k'],Y,N,None,Y,,,,,Y,Y,F,21,
37,6,561,2,2,12,['k'],['d'],Y,N,None,Y,,,,,Y,Y,F,21,
37,7,562,7,7,12,['d'],['k'],Y,N,None,Y,,,,,Y,Y,F,21,
37,8,563,1,1,12,['k'],['k'],N,Y,None,N,,,,,Y,Y,F,21,
37,9,564,5,5,12,['d'],['k'],Y,N,None,Y,,,,,Y,Y,F,21,
37,10,565,10,10,12,['k'],['d'],Y,Y,None,N,,,,,Y,Y,F,21,
37,11,566,12,12,12,['k'],['d'],Y,N,None,Y,,,,,Y,Y,F,21,
37,12,567,5,5,12,['d'],['k'],Y,N,['space'],N,,,,,Y,Y,F,21,
37,13,568,4,4,12,['k'],['d'],Y,Y,['space'],Y,,,,,Y,Y,F,21,
37,14,569,10,10,12,['k'],['k'],N,N,None,Y,,,,,Y,Y,F,21,
38,0,570,11,11,12,['k'],['d'],Y,N,None,Y,,,,,Y,Y,F,21,
38,1,571,13,13,12,['k'],['d'],Y,Y,['space'],Y,,,,,Y,Y,F,21,
38,2,572,3,3,12,['k'],['d'],Y,Y,None,N,,,,,Y,Y,F,21,
38,3,573,13,13,12,['d'],['k'],Y,Y,['space'],Y,,,,,Y,Y,F,21,
38,4,574,0,0,12,['k'],['d'],Y,Y,None,N,,,,,Y,Y,F,21,
38,5,575,7,7,12,['d'],['k'],Y,N,None,Y,,,,,Y,Y,F,21,
38,6,576,13,13,12,['d'],['k'],Y,N,None,Y,,,,,Y,Y,F,21,
38,7,577,5,5,12,['d'],['k'],Y,Y,None,N,,,,,Y,Y,F,21,
38,8,578,3,3,12,['d'],['k'],Y,Y,['space'],Y,,,,,Y,Y,F,21,
38,9,579,7,7,12,['d'],['k'],Y,Y,['space'],Y,,,,,Y,Y,F,21,
38,10,580,12,12,12,['d'],['k'],Y,Y,['space'],Y,,,,,Y,Y,F,21,
38,11,581,7,7,12,['k'],['d'],Y,Y,None,N,,,,,Y,Y,F,21,
38,12,582,7,7,12,['k'],['d'],Y,Y,None,N,,,,,Y,Y,F,21,
38,13,583,13,13,12,['k'],['d'],Y,N,None,Y,,,,,Y,Y,F,21,
38,14,584,2,2,12,['k'],['d'],Y,N,None,Y,,,,,Y,Y,F,21,
39,0,585,9,9,12,['d'],['k'],Y,N,None,Y,,,,,Y,Y,F,21,
39,1,586,7,7,12,['d'],['k'],Y,N,['space'],N,,,,,Y,Y,F,21,
39,2,587,14,14,12,['k'],['k'],N,N,None,Y,,,,,Y,Y,F,21,
39,3,588,0,0,12,['d'],['d'],N,N,None,Y,,,,,Y,Y,F,21,
39,4,589,10,10,12,['k'],['d'],Y,N,None,Y,,,,,Y,Y,F,21,
39,5,590,7,7,12,['d'],['k'],Y,Y,None,N,,,,,Y,Y,F,21,
39,6,591,3,3,12,['k'],['d'],Y,N,None,Y,,,,,Y,Y,F,21,
39,7,592,13,13,12,['d'],['k'],Y,Y,['space'],Y,,,,,Y,Y,F,21,
39,8,593,8,8,12,['k'],['d'],Y,Y,['space'],Y,,,,,Y,Y,F,21,
39,9,594,5,5,12,['d'],['k'],Y,Y,['space'],Y,,,,,Y,Y,F,21,
39,10,595,9,9,12,['d'],['k'],Y,Y,None,N,,,,,Y,Y,F,21,
39,11,596,1,1,12,['k'],['d'],Y,N,None,Y,,,,,Y,Y,F,21,
39,12,597,14,14,12,['k'],['d'],Y,N,None,Y,,,,,Y,Y,F,21,
39,13,598,4,4,12,['d'],['k'],Y,Y,['space'],Y,,,,,Y,Y,F,21,
39,14,599,3,3,12,['k'],['d'],Y,Y,['space'],Y,45,36,25,,Y,Y,F,21,
