.thisRepN,.thisTrialN,.thisN,.thisIndex,.thisTrial,Block Number,Key pressed,Category,Correct?,Int Match?,Int Response,Int Correct?,Line Accuracy,Interference Accuracy,Matching Interferences,New instruction shown?,Buttons switched?,Fast?,gender,age,
0,0,0,8,8,1,['k'],['d'],N,,,,,,,,,,male,19,
0,1,1,1,1,1,['d'],['k'],N,,,,,,,,,,male,19,
0,2,2,10,10,1,['k'],['d'],N,N,None,Y,,,,,,,male,19,
0,3,3,5,5,1,['k'],['d'],N,N,None,Y,,,,,,,male,19,
0,4,4,8,8,1,['d'],['k'],N,N,None,Y,,,,,,,male,19,
0,5,5,9,9,1,['d'],['d'],Y,Y,['k'],N,,,,,,,male,19,
0,6,6,8,8,1,['k'],['d'],N,N,None,Y,,,,,,,male,19,
0,7,7,4,4,1,['d'],['d'],Y,N,None,Y,,,,,,,male,19,
0,8,8,7,7,1,['k'],['k'],Y,N,None,Y,,,,,,,male,19,
0,9,9,4,4,1,['k'],['d'],N,Y,None,N,,,,,,,male,19,
0,10,10,10,10,1,['k'],['d'],N,Y,['space'],Y,,,,,,,male,19,
0,11,11,1,1,1,['d'],['k'],N,Y,None,N,,,,,,,male,19,
0,12,12,13,13,1,['k'],['k'],Y,Y,None,N,,,,,,,male,19,
0,13,13,5,5,1,None,,Timed out,N,None,Y,,,,,,,male,19,
0,14,14,14,14,1,['k'],['d'],N,Y,None,N,,,,,,,male,19,
1,0,15,3,3,1,['d'],['k'],N,N,None,Y,,,,,,,male,19,
1,1,16,0,0,1,['k'],['d'],N,Y,None,N,,,,,,,male,19,
1,2,17,11,11,1,['d'],['d'],Y,Y,None,N,,,,,,,male,19,
1,3,18,2,2,1,['k'],['k'],Y,N,None,Y,,,,,,,male,19,
1,4,19,0,0,1,['k'],['d'],N,Y,None,N,,,,,,,male,19,
1,5,20,8,8,1,['k'],['k'],Y,N,None,Y,,,,,,,male,19,
1,6,21,0,0,1,['k'],['k'],Y,Y,None,N,,,,,,,male,19,
1,7,22,12,12,1,['k'],['k'],Y,Y,None,N,,,,,,,male,19,
1,8,23,6,6,1,['k'],['d'],N,Y,None,N,,,,,,,male,19,
1,9,24,8,8,1,['d'],['d'],Y,Y,None,N,,,,,,,male,19,
1,10,25,13,13,1,['k'],['k'],Y,N,None,Y,,,,,,,male,19,
1,11,26,11,11,1,['k'],['k'],Y,Y,None,N,,,,,,,male,19,
1,12,27,9,9,1,['d'],['k'],N,Y,None,N,,,,,,,male,19,
1,13,28,7,7,1,['d'],['d'],Y,N,None,Y,,,,,,,male,19,
1,14,29,9,9,1,['d'],['d'],Y,N,None,Y,,,,,,,male,19,
2,0,30,5,5,1,['d'],['k'],N,N,None,Y,,,,,,,male,19,
2,1,31,7,7,1,['k'],['k'],Y,Y,None,N,,,,,,,male,19,
2,2,32,1,1,1,['k'],['k'],Y,N,None,Y,,,,,,,male,19,
2,3,33,10,10,1,['d'],['d'],Y,Y,None,N,,,,,,,male,19,
2,4,34,3,3,1,['k'],['d'],N,Y,None,N,,,,,,,male,19,
2,5,35,8,8,1,['d'],['d'],Y,N,None,Y,,,,,,,male,19,
2,6,36,6,6,1,['k'],['k'],Y,N,None,Y,,,,,,,male,19,
2,7,37,2,2,1,['d'],['d'],Y,N,None,Y,,,,,,,male,19,
2,8,38,5,5,1,['k'],['d'],N,N,None,Y,,,,,,,male,19,
2,9,39,1,1,1,['k'],['k'],Y,Y,['space'],Y,,,,,,,male,19,
2,10,40,8,8,1,['d'],['d'],Y,N,None,Y,,,,,,,male,19,
2,11,41,4,4,1,['d'],['d'],Y,Y,['space'],Y,,,,,,,male,19,
2,12,42,13,13,1,['k'],['k'],Y,N,None,Y,,,,,,,male,19,
2,13,43,4,4,1,['k'],['k'],Y,N,None,Y,,,,,,,male,19,
2,14,44,10,10,1,['d'],['k'],N,Y,None,N,,,,,,,male,19,
3,0,45,1,1,1,['k'],['k'],Y,Y,None,N,,,,,,,male,19,
3,1,46,9,9,1,['d'],['k'],N,N,None,Y,,,,,,,male,19,
3,2,47,7,7,1,['k'],['k'],Y,N,None,Y,,,,,,,male,19,
3,3,48,12,12,1,['d'],['d'],Y,Y,['space'],Y,,,,,,,male,19,
3,4,49,4,4,1,['d'],['k'],N,N,None,Y,28,29,23,,,,male,19,
3,5,50,2,2,2,['k'],['d'],N,,,,,,,,,,male,19,
3,6,51,2,2,2,['k'],['d'],N,,,,,,,,,,male,19,
3,7,52,2,2,2,['k'],['d'],N,Y,['space'],Y,,,,,,,male,19,
3,8,53,1,1,2,['d'],['d'],Y,N,None,Y,,,,,,,male,19,
3,9,54,5,5,2,None,,Timed out,N,None,Y,,,,,,,male,19,
3,10,55,12,12,2,['d'],['k'],N,Y,None,N,,,,,,,male,19,
3,11,56,12,12,2,['k'],['d'],N,N,None,Y,,,,,,,male,19,
3,12,57,4,4,2,['k'],['k'],Y,N,None,Y,,,,,,,male,19,
3,13,58,5,5,2,['d'],['k'],N,N,['space'],N,,,,,,,male,19,
3,14,59,8,8,2,['k'],['k'],Y,Y,None,N,,,,,,,male,19,
4,0,60,9,9,2,['d'],['d'],Y,Y,None,N,,,,,,,male,19,
4,1,61,4,4,2,['k'],['k'],Y,N,None,Y,,,,,,,male,19,
4,2,62,9,9,2,['d'],['d'],Y,Y,None,N,,,,,,,male,19,
4,3,63,1,1,2,['k'],['k'],Y,N,None,Y,,,,,,,male,19,
4,4,64,14,14,2,['k'],['k'],Y,N,None,Y,,,,,,,male,19,
4,5,65,1,1,2,['d'],['k'],N,Y,None,N,,,,,,,male,19,
4,6,66,2,2,2,['k'],['d'],N,N,None,Y,,,,,,,male,19,
4,7,67,9,9,2,['k'],['d'],N,Y,['space'],Y,,,,,,,male,19,
4,8,68,8,8,2,['d'],['k'],N,N,None,Y,,,,,,,male,19,
4,9,69,4,4,2,['d'],['k'],N,N,None,Y,,,,,,,male,19,
4,10,70,7,7,2,['k'],['d'],N,N,None,Y,,,,,,,male,19,
4,11,71,9,9,2,['d'],['d'],Y,N,None,Y,,,,,,,male,19,
4,12,72,10,10,2,['d'],['d'],Y,Y,None,N,,,,,,,male,19,
4,13,73,7,7,2,['k'],['d'],N,N,None,Y,,,,,,,male,19,
4,14,74,3,3,2,['d'],['k'],N,N,None,Y,,,,,,,male,19,
5,0,75,2,2,2,['k'],['d'],N,N,None,Y,,,,,,,male,19,
5,1,76,14,14,2,['k'],['k'],Y,Y,None,N,,,,,,,male,19,
5,2,77,11,11,2,['d'],['d'],Y,N,None,Y,,,,,,,male,19,
5,3,78,7,7,2,['k'],['k'],Y,Y,None,N,,,,,,,male,19,
5,4,79,4,4,2,['k'],['d'],N,Y,None,N,,,,,,,male,19,
5,5,80,13,13,2,['d'],['d'],Y,N,None,Y,,,,,,,male,19,
5,6,81,14,14,2,['d'],['d'],Y,Y,None,N,,,,,,,male,19,
5,7,82,5,5,2,['k'],['d'],N,Y,None,N,,,,,,,male,19,
5,8,83,0,0,2,['k'],['k'],Y,Y,None,N,,,,,,,male,19,
5,9,84,6,6,2,['d'],['k'],N,Y,None,N,,,,,,,male,19,
5,10,85,2,2,2,['k'],['k'],Y,N,None,Y,,,,,,,male,19,
5,11,86,11,11,2,['k'],['d'],N,N,None,Y,,,,,,,male,19,
5,12,87,13,13,2,['d'],['d'],Y,N,None,Y,,,,,,,male,19,
5,13,88,10,10,2,['k'],['k'],Y,N,None,Y,,,,,,,male,19,
5,14,89,12,12,2,['d'],['k'],N,Y,['space'],Y,,,,,,,male,19,
6,0,90,9,9,2,None,,Timed out,Y,None,N,,,,,,,male,19,
6,1,91,1,1,2,['k'],['d'],N,N,None,Y,,,,,,,male,19,
6,2,92,0,0,2,['d'],['d'],Y,Y,None,N,,,,,,,male,19,
6,3,93,2,2,2,['d'],['k'],N,Y,['space'],Y,,,,,,,male,19,
6,4,94,13,13,2,['k'],['d'],N,N,None,Y,,,,,,,male,19,
6,5,95,13,13,2,['d'],['k'],N,Y,['space'],Y,,,,,,,male,19,
6,6,96,5,5,2,['k'],['k'],Y,Y,['space'],Y,,,,,,,male,19,
6,7,97,0,0,2,['k'],['d'],N,N,None,Y,,,,,,,male,19,
6,8,98,11,11,2,['d'],['d'],Y,N,['space'],N,,,,,,,male,19,
6,9,99,8,8,2,['d'],['d'],Y,Y,None,N,23,30,22,,,,male,19,
6,10,100,2,2,3,['k'],['d'],N,,,,,,,,,,male,19,
6,11,101,2,2,3,['d'],['d'],Y,,,,,,,,,,male,19,
6,12,102,7,7,3,['d'],['d'],Y,Y,['space'],Y,,,,,,,male,19,
6,13,103,14,14,3,['k'],['k'],Y,Y,['space'],Y,,,,,,,male,19,
6,14,104,7,7,3,['k'],['k'],Y,N,None,Y,,,,,,,male,19,
7,0,105,4,4,3,['k'],['k'],Y,Y,['space'],Y,,,,,,,male,19,
7,1,106,12,12,3,['d'],['d'],Y,Y,['space'],Y,,,,,,,male,19,
7,2,107,12,12,3,['d'],['d'],Y,Y,['space'],Y,,,,,,,male,19,
7,3,108,8,8,3,['d'],['d'],Y,Y,['space'],Y,,,,,,,male,19,
7,4,109,3,3,3,['k'],['k'],Y,Y,['space'],Y,,,,,,,male,19,
7,5,110,12,12,3,['k'],['d'],N,N,['space'],N,,,,,,,male,19,
7,6,111,1,1,3,['k'],['k'],Y,N,None,Y,,,,,,,male,19,
7,7,112,2,2,3,['k'],['k'],Y,N,None,Y,,,,,,,male,19,
7,8,113,12,12,3,['k'],['k'],Y,N,None,Y,,,,,,,male,19,
7,9,114,12,12,3,['k'],['k'],Y,Y,['space'],Y,,,,,,,male,19,
7,10,115,2,2,3,['k'],['k'],Y,Y,None,N,,,,,,,male,19,
7,11,116,7,7,3,['k'],['k'],Y,Y,['space'],Y,,,,,,,male,19,
7,12,117,4,4,3,['d'],['d'],Y,Y,['space'],Y,,,,,,,male,19,
7,13,118,13,13,3,['k'],['k'],Y,N,None,Y,,,,,,,male,19,
7,14,119,10,10,3,['k'],['d'],N,N,['space'],N,,,,,,,male,19,
8,0,120,9,9,3,None,,Timed out,N,None,Y,,,,,,,male,19,
8,1,121,3,3,3,['k'],['k'],Y,Y,None,N,,,,,,,male,19,
8,2,122,0,0,3,['k'],['k'],Y,Y,['space'],Y,,,,,,,male,19,
8,3,123,8,8,3,['d'],['d'],Y,N,None,Y,,,,,,,male,19,
8,4,124,3,3,3,['k'],['k'],Y,Y,None,N,,,,,,,male,19,
8,5,125,9,9,3,['k'],['k'],Y,Y,None,N,,,,,,,male,19,
8,6,126,13,13,3,['k'],['k'],Y,Y,None,N,,,,,,,male,19,
8,7,127,7,7,3,['d'],['d'],Y,Y,['space'],Y,,,,,,,male,19,
8,8,128,10,10,3,['k'],['k'],Y,Y,None,N,,,,,,,male,19,
8,9,129,1,1,3,['k'],['k'],Y,N,None,Y,,,,,,,male,19,
8,10,130,11,11,3,['d'],['d'],Y,Y,['space'],Y,,,,,,,male,19,
8,11,131,4,4,3,['k'],['k'],Y,Y,['space'],Y,,,,,,,male,19,
8,12,132,10,10,3,['k'],['k'],Y,N,['space'],N,,,,,,,male,19,
8,13,133,7,7,3,['k'],['k'],Y,N,None,Y,,,,,,,male,19,
8,14,134,5,5,3,['d'],['d'],Y,Y,['space'],Y,,,,,,,male,19,
9,0,135,13,13,3,['d'],['d'],Y,N,None,Y,,,,,,,male,19,
9,1,136,3,3,3,['k'],['k'],Y,N,None,Y,,,,,,,male,19,
9,2,137,10,10,3,['k'],['k'],Y,N,None,Y,,,,,,,male,19,
9,3,138,14,14,3,['d'],['d'],Y,Y,['space'],Y,,,,,,,male,19,
9,4,139,8,8,3,['k'],['d'],N,N,None,Y,,,,,,,male,19,
9,5,140,11,11,3,['k'],['k'],Y,Y,['space'],Y,,,,,,,male,19,
9,6,141,1,1,3,['d'],['d'],Y,N,None,Y,,,,,,,male,19,
9,7,142,7,7,3,['d'],['d'],Y,Y,['space'],Y,,,,,,,male,19,
9,8,143,13,13,3,['k'],['k'],Y,N,None,Y,,,,,,,male,19,
9,9,144,5,5,3,['k'],['d'],N,Y,['space'],Y,,,,,,,male,19,
9,10,145,13,13,3,['k'],['k'],Y,N,None,Y,,,,,,,male,19,
9,11,146,13,13,3,['k'],['k'],Y,N,None,Y,,,,,,,male,19,
9,12,147,7,7,3,['d'],['d'],Y,N,None,Y,,,,,,,male,19,
9,13,148,6,6,3,['k'],['d'],N,N,['space'],N,,,,,,,male,19,
9,14,149,4,4,3,['k'],['k'],Y,N,None,Y,43,38,25,,,,male,19,
10,0,150,8,8,4,['k'],['k'],Y,,,,,,,,,,male,19,
10,1,151,5,5,4,['d'],['d'],Y,,,,,,,,,,male,19,
10,2,152,13,13,4,['d'],['d'],Y,Y,None,N,,,,,,,male,19,
10,3,153,0,0,4,['k'],['k'],Y,Y,None,N,,,,,,,male,19,
10,4,154,3,3,4,['d'],['d'],Y,Y,['space'],Y,,,,,,,male,19,
10,5,155,0,0,4,['d'],['d'],Y,Y,['space'],Y,,,,,,,male,19,
10,6,156,0,0,4,['d'],['d'],Y,N,None,Y,,,,,,,male,19,
10,7,157,14,14,4,['k'],['k'],Y,Y,None,N,,,,,,,male,19,
10,8,158,13,13,4,['d'],['d'],Y,N,None,Y,,,,,,,male,19,
10,9,159,1,1,4,['d'],['d'],Y,Y,['space'],Y,,,,,,,male,19,
10,10,160,12,12,4,['d'],['d'],Y,Y,['space'],Y,,,,,,,male,19,
10,11,161,8,8,4,['d'],['d'],Y,Y,['space'],Y,,,,,,,male,19,
10,12,162,8,8,4,['d'],['d'],Y,N,None,Y,,,,,,,male,19,
10,13,163,5,5,4,['k'],['k'],Y,N,['space'],N,,,,,,,male,19,
10,14,164,7,7,4,['d'],['d'],Y,Y,None,N,,,,,,,male,19,
11,0,165,11,11,4,['k'],['k'],Y,Y,None,N,,,,,,,male,19,
11,1,166,1,1,4,['k'],['k'],Y,N,None,Y,,,,,,,male,19,
11,2,167,4,4,4,['d'],['d'],Y,N,None,Y,,,,,,,male,19,
11,3,168,0,0,4,['k'],['k'],Y,Y,None,N,,,,,,,male,19,
11,4,169,10,10,4,['k'],['k'],Y,Y,['space'],Y,,,,,,,male,19,
11,5,170,0,0,4,['d'],['d'],Y,N,None,Y,,,,,,,male,19,
11,6,171,3,3,4,['k'],['k'],Y,N,None,Y,,,,,,,male,19,
11,7,172,5,5,4,['k'],['k'],Y,Y,None,N,,,,,,,male,19,
11,8,173,14,14,4,['k'],['k'],Y,N,None,Y,,,,,,,male,19,
11,9,174,0,0,4,['d'],['d'],Y,N,None,Y,,,,,,,male,19,
11,10,175,6,6,4,['d'],['d'],Y,N,None,Y,,,,,,,male,19,
11,11,176,5,5,4,['k'],['d'],N,N,None,Y,,,,,,,male,19,
11,12,177,9,9,4,['k'],['k'],Y,N,None,Y,,,,,,,male,19,
11,13,178,7,7,4,['d'],['d'],Y,Y,None,N,,,,,,,male,19,
11,14,179,8,8,4,['d'],['d'],Y,N,None,Y,,,,,,,male,19,
12,0,180,6,6,4,['k'],['d'],N,Y,None,N,,,,,,,male,19,
12,1,181,13,13,4,['d'],['d'],Y,Y,None,N,,,,,,,male,19,
12,2,182,7,7,4,['k'],['k'],Y,N,None,Y,,,,,,,male,19,
12,3,183,11,11,4,['d'],['d'],Y,Y,None,N,,,,,,,male,19,
12,4,184,6,6,4,['k'],['k'],Y,Y,None,N,,,,,,,male,19,
12,5,185,13,13,4,['d'],['k'],N,N,None,Y,,,,,,,male,19,
12,6,186,9,9,4,['d'],['d'],Y,Y,None,N,,,,,,,male,19,
12,7,187,2,2,4,['d'],['d'],Y,N,None,Y,,,,,,,male,19,
12,8,188,1,1,4,['k'],['d'],N,Y,None,N,,,,,,,male,19,
12,9,189,11,11,4,['k'],['d'],N,N,None,Y,,,,,,,male,19,
12,10,190,8,8,4,['k'],['k'],Y,Y,None,N,,,,,,,male,19,
12,11,191,6,6,4,['d'],['d'],Y,N,None,Y,,,,,,,male,19,
12,12,192,4,4,4,['d'],['d'],Y,Y,None,N,,,,,,,male,19,
12,13,193,2,2,4,['d'],['d'],Y,Y,['space'],Y,,,,,,,male,19,
12,14,194,10,10,4,['k'],['d'],N,N,None,Y,,,,,,,male,19,
13,0,195,2,2,4,['d'],['d'],Y,Y,None,N,,,,,,,male,19,
13,1,196,11,11,4,['k'],['d'],N,Y,None,N,,,,,,,male,19,
13,2,197,13,13,4,['d'],['d'],Y,N,None,Y,,,,,,,male,19,
13,3,198,13,13,4,['d'],['d'],Y,N,None,Y,,,,,,,male,19,
13,4,199,0,0,4,['d'],['d'],Y,N,None,Y,43,29,25,,,,male,19,
13,5,200,14,14,5,['k'],['k'],Y,,,,,,,,,,male,19,
13,6,201,9,9,5,['k'],['k'],Y,,,,,,,,,,male,19,
13,7,202,10,10,5,['k'],['k'],Y,N,None,Y,,,,,,,male,19,
13,8,203,6,6,5,['d'],['d'],Y,Y,['space'],Y,,,,,,,male,19,
13,9,204,4,4,5,['k'],['d'],N,Y,['space'],Y,,,,,,,male,19,
13,10,205,8,8,5,['d'],['d'],Y,N,None,Y,,,,,,,male,19,
13,11,206,2,2,5,['d'],['d'],Y,Y,['space'],Y,,,,,,,male,19,
13,12,207,7,7,5,['d'],['k'],N,Y,None,N,,,,,,,male,19,
13,13,208,4,4,5,['k'],['k'],Y,N,None,Y,,,,,,,male,19,
13,14,209,1,1,5,['k'],['d'],N,N,None,Y,,,,,,,male,19,
14,0,210,8,8,5,['k'],['k'],Y,N,None,Y,,,,,,,male,19,
14,1,211,0,0,5,['k'],['k'],Y,N,None,Y,,,,,,,male,19,
14,2,212,10,10,5,['k'],['k'],Y,Y,None,N,,,,,,,male,19,
14,3,213,11,11,5,['k'],['k'],Y,N,['space'],N,,,,,,,male,19,
14,4,214,11,11,5,['k'],['k'],Y,N,None,Y,,,,,,,male,19,
14,5,215,9,9,5,['k'],['d'],N,Y,['space'],Y,,,,,,,male,19,
14,6,216,14,14,5,['k'],['k'],Y,Y,['space'],Y,,,,,,,male,19,
14,7,217,0,0,5,['k'],['k'],Y,N,['space'],N,,,,,,,male,19,
14,8,218,14,14,5,['k'],['k'],Y,N,None,Y,,,,,,,male,19,
14,9,219,0,0,5,['d'],['d'],Y,Y,['space'],Y,,,,,,,male,19,
14,10,220,4,4,5,['k'],['k'],Y,N,None,Y,,,,,,,male,19,
14,11,221,8,8,5,['k'],['k'],Y,N,None,Y,,,,,,,male,19,
14,12,222,14,14,5,['k'],['k'],Y,Y,['space'],Y,,,,,,,male,19,
14,13,223,13,13,5,['k'],['k'],Y,N,None,Y,,,,,,,male,19,
14,14,224,10,10,5,['d'],['d'],Y,N,None,Y,,,,,,,male,19,
15,0,225,2,2,5,['d'],['d'],Y,Y,None,N,,,,,,,male,19,
15,1,226,10,10,5,['k'],['k'],Y,N,None,Y,,,,,,,male,19,
15,2,227,13,13,5,['d'],['d'],Y,N,['space'],N,,,,,,,male,19,
15,3,228,4,4,5,['d'],['d'],Y,N,None,Y,,,,,,,male,19,
15,4,229,3,3,5,['k'],['k'],Y,N,None,Y,,,,,,,male,19,
15,5,230,0,0,5,['k'],['k'],Y,N,None,Y,,,,,,,male,19,
15,6,231,6,6,5,['k'],['k'],Y,N,None,Y,,,,,,,male,19,
15,7,232,12,12,5,['k'],['k'],Y,N,['d'],N,,,,,,,male,19,
15,8,233,9,9,5,['k'],['d'],N,N,None,Y,,,,,,,male,19,
15,9,234,9,9,5,['k'],['k'],Y,N,None,Y,,,,,,,male,19,
15,10,235,7,7,5,['k'],['k'],Y,Y,None,N,,,,,,,male,19,
15,11,236,11,11,5,['k'],['k'],Y,N,['k'],N,,,,,,,male,19,
15,12,237,14,14,5,['d'],['d'],Y,Y,['k'],N,,,,,,,male,19,
15,13,238,12,12,5,['d'],['d'],Y,N,None,Y,,,,,,,male,19,
15,14,239,1,1,5,['d'],['d'],Y,Y,None,N,,,,,,,male,19,
16,0,240,0,0,5,['k'],['d'],N,N,None,Y,,,,,,,male,19,
16,1,241,11,11,5,['k'],['k'],Y,N,['space'],N,,,,,,,male,19,
16,2,242,2,2,5,['d'],['d'],Y,N,None,Y,,,,,,,male,19,
16,3,243,2,2,5,['k'],['k'],Y,Y,None,N,,,,,,,male,19,
16,4,244,7,7,5,['d'],['d'],Y,Y,['space'],Y,,,,,,,male,19,
16,5,245,11,11,5,['d'],['d'],Y,Y,None,N,,,,,,,male,19,
16,6,246,8,8,5,['k'],['k'],Y,N,None,Y,,,,,,,male,19,
16,7,247,3,3,5,['d'],['d'],Y,Y,None,N,,,,,,,male,19,
16,8,248,5,5,5,['k'],['k'],Y,Y,None,N,,,,,,,male,19,
16,9,249,2,2,5,['d'],['d'],Y,Y,None,N,44,31,19,,,,male,19,
16,10,250,13,13,6,['k'],['k'],Y,,,,,,,,,,male,19,
16,11,251,7,7,6,['k'],['k'],Y,,,,,,,,,,male,19,
16,12,252,12,12,6,['k'],['k'],Y,Y,None,N,,,,,,,male,19,
16,13,253,4,4,6,['k'],['k'],Y,Y,None,N,,,,,,,male,19,
16,14,254,5,5,6,['d'],['k'],N,Y,['space'],Y,,,,,,,male,19,
17,0,255,6,6,6,['k'],['d'],N,N,None,Y,,,,,,,male,19,
17,1,256,6,6,6,['d'],['d'],Y,N,['space'],N,,,,,,,male,19,
17,2,257,6,6,6,['k'],['k'],Y,Y,None,N,,,,,,,male,19,
17,3,258,2,2,6,['k'],['k'],Y,N,None,Y,,,,,,,male,19,
17,4,259,2,2,6,['k'],['k'],Y,Y,None,N,,,,,,,male,19,
17,5,260,6,6,6,['d'],['d'],Y,N,['space'],N,,,,,,,male,19,
17,6,261,7,7,6,['k'],['d'],N,N,None,Y,,,,,,,male,19,
17,7,262,0,0,6,['d'],['d'],Y,N,None,Y,,,,,,,male,19,
17,8,263,4,4,6,['k'],['k'],Y,N,None,Y,,,,,,,male,19,
17,9,264,8,8,6,['k'],['k'],Y,N,None,Y,,,,,,,male,19,
17,10,265,14,14,6,['d'],['d'],Y,Y,None,N,,,,,,,male,19,
17,11,266,12,12,6,['k'],['k'],Y,N,None,Y,,,,,,,male,19,
17,12,267,7,7,6,['k'],['k'],Y,N,['space'],N,,,,,,,male,19,
17,13,268,10,10,6,['d'],['d'],Y,Y,['space'],Y,,,,,,,male,19,
17,14,269,0,0,6,['k'],['k'],Y,Y,['space'],Y,,,,,,,male,19,
18,0,270,14,14,6,['k'],['k'],Y,N,None,Y,,,,,,,male,19,
18,1,271,12,12,6,['k'],['k'],Y,N,['space'],N,,,,,,,male,19,
18,2,272,10,10,6,['k'],['d'],N,Y,None,N,,,,,,,male,19,
18,3,273,12,12,6,['k'],['k'],Y,N,None,Y,,,,,,,male,19,
18,4,274,14,14,6,['d'],['d'],Y,Y,None,N,,,,,,,male,19,
18,5,275,9,9,6,['d'],['d'],Y,N,None,Y,,,,,,,male,19,
18,6,276,6,6,6,['k'],['k'],Y,Y,['space'],Y,,,,,,,male,19,
18,7,277,0,0,6,['d'],['d'],Y,N,None,Y,,,,,,,male,19,
18,8,278,7,7,6,['k'],['k'],Y,Y,None,N,,,,,,,male,19,
18,9,279,6,6,6,['k'],['k'],Y,N,None,Y,,,,,,,male,19,
18,10,280,4,4,6,['k'],['k'],Y,Y,None,N,,,,,,,male,19,
18,11,281,14,14,6,['k'],['k'],Y,N,['space'],N,,,,,,,male,19,
18,12,282,3,3,6,['k'],['k'],Y,N,['space'],N,,,,,,,male,19,
18,13,283,2,2,6,['d'],['d'],Y,N,None,Y,,,,,,,male,19,
18,14,284,3,3,6,['k'],['k'],Y,N,None,Y,,,,,,,male,19,
19,0,285,14,14,6,['k'],['k'],Y,N,None,Y,,,,,,,male,19,
19,1,286,5,5,6,['k'],['k'],Y,Y,['space'],Y,,,,,,,male,19,
19,2,287,11,11,6,['k'],['k'],Y,N,None,Y,,,,,,,male,19,
19,3,288,11,11,6,['d'],['d'],Y,N,None,Y,,,,,,,male,19,
19,4,289,1,1,6,['d'],['d'],Y,Y,['space'],Y,,,,,,,male,19,
19,5,290,1,1,6,['k'],['k'],Y,N,None,Y,,,,,,,male,19,
19,6,291,0,0,6,['d'],['d'],Y,N,None,Y,,,,,,,male,19,
19,7,292,1,1,6,['k'],['k'],Y,N,None,Y,,,,,,,male,19,
19,8,293,9,9,6,['k'],['k'],Y,N,['space'],N,,,,,,,male,19,
19,9,294,12,12,6,['k'],['k'],Y,Y,None,N,,,,,,,male,19,
19,10,295,10,10,6,['k'],['k'],Y,Y,None,N,,,,,,,male,19,
19,11,296,14,14,6,['d'],['d'],Y,Y,None,N,,,,,,,male,19,
19,12,297,7,7,6,['k'],['k'],Y,N,['space'],N,,,,,,,male,19,
19,13,298,6,6,6,['k'],['k'],Y,N,None,Y,,,,,,,male,19,
19,14,299,3,3,6,['k'],['k'],Y,Y,None,N,46,27,19,,,,male,19,
20,0,300,10,10,7,['k'],['k'],Y,,,,,,,,,,male,19,
20,1,301,5,5,7,['k'],['k'],Y,,,,,,,,,,male,19,
20,2,302,5,5,7,['d'],['d'],Y,Y,['space'],Y,,,,,,,male,19,
20,3,303,14,14,7,['d'],['k'],N,N,None,Y,,,,,,,male,19,
20,4,304,10,10,7,['k'],['d'],N,Y,['space'],Y,,,,,,,male,19,
20,5,305,1,1,7,['k'],['k'],Y,N,None,Y,,,,,,,male,19,
20,6,306,2,2,7,['d'],['d'],Y,N,None,Y,,,,,,,male,19,
20,7,307,7,7,7,['d'],['d'],Y,N,['space'],N,,,,,,,male,19,
20,8,308,10,10,7,['k'],['k'],Y,Y,['space'],Y,,,,,,,male,19,
20,9,309,1,1,7,['k'],['k'],Y,Y,None,N,,,,,,,male,19,
20,10,310,13,13,7,['k'],['k'],Y,Y,['space'],Y,,,,,,,male,19,
20,11,311,12,12,7,['d'],['d'],Y,Y,['space'],Y,,,,,,,male,19,
20,12,312,3,3,7,['k'],['k'],Y,Y,['space'],Y,,,,,,,male,19,
20,13,313,1,1,7,['k'],['k'],Y,N,None,Y,,,,,,,male,19,
20,14,314,10,10,7,['k'],['d'],N,N,None,Y,,,,,,,male,19,
21,0,315,4,4,7,['k'],['d'],N,Y,None,N,,,,,,,male,19,
21,1,316,12,12,7,['d'],['d'],Y,N,None,Y,,,,,,,male,19,
21,2,317,14,14,7,['d'],['d'],Y,N,None,Y,,,,,,,male,19,
21,3,318,1,1,7,['d'],['d'],Y,N,None,Y,,,,,,,male,19,
21,4,319,6,6,7,['d'],['d'],Y,Y,['space'],Y,,,,,,,male,19,
21,5,320,6,6,7,['k'],['k'],Y,Y,['space'],Y,,,,,,,male,19,
21,6,321,1,1,7,['d'],['d'],Y,Y,['space'],Y,,,,,,,male,19,
21,7,322,14,14,7,['d'],['d'],Y,Y,['space'],Y,,,,,,,male,19,
21,8,323,11,11,7,['k'],['k'],Y,N,None,Y,,,,,,,male,19,
21,9,324,11,11,7,['d'],['d'],Y,Y,['space'],Y,,,,,,,male,19,
21,10,325,6,6,7,['k'],['k'],Y,N,None,Y,,,,,,,male,19,
21,11,326,13,13,7,['k'],['d'],N,Y,None,N,,,,,,,male,19,
21,12,327,11,11,7,['d'],['d'],Y,Y,None,N,,,,,,,male,19,
21,13,328,11,11,7,['k'],['k'],Y,Y,None,N,,,,,,,male,19,
21,14,329,12,12,7,['d'],['k'],N,N,['space'],N,,,,,,,male,19,
22,0,330,10,10,7,['d'],['d'],Y,Y,None,N,,,,,,,male,19,
22,1,331,5,5,7,['d'],['d'],Y,Y,None,N,,,,,,,male,19,
22,2,332,6,6,7,['k'],['k'],Y,Y,['space'],Y,,,,,,,male,19,
22,3,333,12,12,7,['d'],['k'],N,N,None,Y,,,,,,,male,19,
22,4,334,11,11,7,['d'],['d'],Y,N,None,Y,,,,,,,male,19,
22,5,335,6,6,7,['k'],['k'],Y,Y,None,N,,,,,,,male,19,
22,6,336,14,14,7,['d'],['k'],N,Y,['space'],Y,,,,,,,male,19,
22,7,337,10,10,7,['k'],['k'],Y,Y,None,N,,,,,,,male,19,
22,8,338,5,5,7,['k'],['k'],Y,N,None,Y,,,,,,,male,19,
22,9,339,4,4,7,['k'],['k'],Y,Y,None,N,,,,,,,male,19,
22,10,340,14,14,7,['k'],['k'],Y,Y,['space'],Y,,,,,,,male,19,
22,11,341,12,12,7,['k'],['k'],Y,N,None,Y,,,,,,,male,19,
22,12,342,3,3,7,['k'],['k'],Y,Y,['space'],Y,,,,,,,male,19,
22,13,343,10,10,7,['d'],['d'],Y,N,['space'],N,,,,,,,male,19,
22,14,344,0,0,7,['d'],['d'],Y,N,None,Y,,,,,,,male,19,
23,0,345,14,14,7,['d'],['d'],Y,N,None,Y,,,,,,,male,19,
23,1,346,2,2,7,['d'],['d'],Y,N,None,Y,,,,,,,male,19,
23,2,347,10,10,7,['k'],['k'],Y,N,None,Y,,,,,,,male,19,
23,3,348,10,10,7,['d'],['d'],Y,N,None,Y,,,,,,,male,19,
23,4,349,7,7,7,['d'],['d'],Y,N,['k'],N,42,34,25,,,,male,19,
23,5,350,12,12,8,['d'],['d'],Y,,,,,,,,,,male,19,
23,6,351,7,7,8,['k'],['k'],Y,,,,,,,,,,male,19,
23,7,352,13,13,8,['d'],['d'],Y,Y,None,N,,,,,,,male,19,
23,8,353,7,7,8,['d'],['d'],Y,Y,['space'],Y,,,,,,,male,19,
23,9,354,4,4,8,['k'],['k'],Y,Y,['space'],Y,,,,,,,male,19,
23,10,355,13,13,8,['k'],['k'],Y,N,None,Y,,,,,,,male,19,
23,11,356,3,3,8,['d'],['d'],Y,N,None,Y,,,,,,,male,19,
23,12,357,11,11,8,['d'],['d'],Y,Y,['space'],Y,,,,,,,male,19,
23,13,358,9,9,8,['d'],['d'],Y,N,None,Y,,,,,,,male,19,
23,14,359,6,6,8,['d'],['d'],Y,Y,None,N,,,,,,,male,19,
24,0,360,0,0,8,['k'],['k'],Y,Y,None,N,,,,,,,male,19,
24,1,361,0,0,8,['k'],['k'],Y,N,None,Y,,,,,,,male,19,
24,2,362,6,6,8,['d'],['d'],Y,N,['space'],N,,,,,,,male,19,
24,3,363,10,10,8,['k'],['k'],Y,N,['space'],N,,,,,,,male,19,
24,4,364,10,10,8,['d'],['d'],Y,Y,None,N,,,,,,,male,19,
24,5,365,12,12,8,['d'],['k'],N,Y,None,N,,,,,,,male,19,
24,6,366,11,11,8,['k'],['k'],Y,N,None,Y,,,,,,,male,19,
24,7,367,12,12,8,['d'],['d'],Y,Y,['space'],Y,,,,,,,male,19,
24,8,368,8,8,8,['k'],['k'],Y,Y,None,N,,,,,,,male,19,
24,9,369,2,2,8,['k'],['k'],Y,Y,['space'],Y,,,,,,,male,19,
24,10,370,1,1,8,['k'],['k'],Y,N,None,Y,,,,,,,male,19,
24,11,371,9,9,8,['k'],['d'],N,N,None,Y,,,,,,,male,19,
24,12,372,13,13,8,['d'],['d'],Y,Y,['space'],Y,,,,,,,male,19,
24,13,373,12,12,8,['d'],['d'],Y,Y,['space'],Y,,,,,,,male,19,
24,14,374,4,4,8,['d'],['d'],Y,N,None,Y,,,,,,,male,19,
25,0,375,6,6,8,['k'],['d'],N,N,['space'],N,,,,,,,male,19,
25,1,376,14,14,8,['k'],['k'],Y,Y,['space'],Y,,,,,,,male,19,
25,2,377,3,3,8,['k'],['k'],Y,Y,['space'],Y,,,,,,,male,19,
25,3,378,1,1,8,['d'],['d'],Y,N,None,Y,,,,,,,male,19,
25,4,379,4,4,8,['k'],['k'],Y,N,None,Y,,,,,,,male,19,
25,5,380,6,6,8,['d'],['d'],Y,N,None,Y,,,,,,,male,19,
25,6,381,1,1,8,['k'],['d'],N,N,None,Y,,,,,,,male,19,
25,7,382,10,10,8,['k'],['k'],Y,N,['space'],N,,,,,,,male,19,
25,8,383,6,6,8,['k'],['k'],Y,N,None,Y,,,,,,,male,19,
25,9,384,12,12,8,['d'],['d'],Y,N,['space'],N,,,,,,,male,19,
25,10,385,13,13,8,['k'],['k'],Y,N,None,Y,,,,,,,male,19,
25,11,386,6,6,8,['k'],['k'],Y,N,['space'],N,,,,,,,male,19,
25,12,387,5,5,8,['k'],['k'],Y,N,['space'],N,,,,,,,male,19,
25,13,388,7,7,8,['d'],['d'],Y,N,['space'],N,,,,,,,male,19,
25,14,389,4,4,8,['d'],['d'],Y,N,None,Y,,,,,,,male,19,
26,0,390,5,5,8,['k'],['k'],Y,N,None,Y,,,,,,,male,19,
26,1,391,1,1,8,['d'],['d'],Y,Y,['space'],Y,,,,,,,male,19,
26,2,392,11,11,8,['k'],['k'],Y,N,None,Y,,,,,,,male,19,
26,3,393,13,13,8,['k'],['k'],Y,N,None,Y,,,,,,,male,19,
26,4,394,3,3,8,['d'],['d'],Y,N,None,Y,,,,,,,male,19,
26,5,395,8,8,8,['d'],['d'],Y,N,None,Y,,,,,,,male,19,
26,6,396,1,1,8,['k'],['k'],Y,N,None,Y,,,,,,,male,19,
26,7,397,11,11,8,['k'],['k'],Y,Y,['space'],Y,,,,,,,male,19,
26,8,398,10,10,8,['k'],['d'],N,Y,['space'],Y,,,,,,,male,19,
26,9,399,9,9,8,['d'],['d'],Y,N,None,Y,45,34,18,,,,male,19,
26,10,400,14,14,9,['d'],['d'],Y,,,,,,,,,,male,19,
26,11,401,7,7,9,['d'],['d'],Y,,,,,,,,,,male,19,
26,12,402,9,9,9,['k'],['k'],Y,N,None,Y,,,,,,,male,19,
26,13,403,3,3,9,['d'],['d'],Y,Y,['space'],Y,,,,,,,male,19,
26,14,404,14,14,9,['k'],['k'],Y,Y,None,N,,,,,,,male,19,
27,0,405,9,9,9,['k'],['k'],Y,N,['space'],N,,,,,,,male,19,
27,1,406,3,3,9,['k'],['k'],Y,Y,None,N,,,,,,,male,19,
27,2,407,14,14,9,['d'],['d'],Y,Y,['space'],Y,,,,,,,male,19,
27,3,408,5,5,9,['k'],['k'],Y,Y,None,N,,,,,,,male,19,
27,4,409,0,0,9,['k'],['d'],N,N,['space'],N,,,,,,,male,19,
27,5,410,1,1,9,['k'],['d'],N,N,None,Y,,,,,,,male,19,
27,6,411,0,0,9,['d'],['d'],Y,N,None,Y,,,,,,,male,19,
27,7,412,12,12,9,['k'],['k'],Y,Y,None,N,,,,,,,male,19,
27,8,413,7,7,9,['d'],['d'],Y,N,None,Y,,,,,,,male,19,
27,9,414,13,13,9,['d'],['d'],Y,Y,['space'],Y,,,,,,,male,19,
27,10,415,4,4,9,['k'],['k'],Y,N,None,Y,,,,,,,male,19,
27,11,416,12,12,9,['d'],['d'],Y,Y,['space'],Y,,,,,,,male,19,
27,12,417,10,10,9,['d'],['d'],Y,Y,['space'],Y,,,,,,,male,19,
27,13,418,3,3,9,['d'],['d'],Y,N,None,Y,,,,,,,male,19,
27,14,419,14,14,9,['k'],['k'],Y,Y,['space'],Y,,,,,,,male,19,
28,0,420,9,9,9,['d'],['k'],N,N,None,Y,,,,,,,male,19,
28,1,421,5,5,9,['d'],['k'],N,Y,None,N,,,,,,,male,19,
28,2,422,8,8,9,['k'],['k'],Y,Y,None,N,,,,,,,male,19,
28,3,423,11,11,9,['k'],['d'],N,Y,None,N,,,,,,,male,19,
28,4,424,1,1,9,['d'],['d'],Y,N,None,Y,,,,,,,male,19,
28,5,425,11,11,9,['d'],['d'],Y,N,None,Y,,,,,,,male,19,
28,6,426,2,2,9,['d'],['d'],Y,Y,['space'],Y,,,,,,,male,19,
28,7,427,2,2,9,['d'],['d'],Y,N,None,Y,,,,,,,male,19,
28,8,428,1,1,9,['d'],['k'],N,N,None,Y,,,,,,,male,19,
28,9,429,3,3,9,['k'],['k'],Y,Y,None,N,,,,,,,male,19,
28,10,430,8,8,9,['k'],['k'],Y,Y,['space'],Y,,,,,,,male,19,
28,11,431,12,12,9,['d'],['d'],Y,N,None,Y,,,,,,,male,19,
28,12,432,5,5,9,['d'],['d'],Y,N,None,Y,,,,,,,male,19,
28,13,433,5,5,9,['k'],['d'],N,N,None,Y,,,,,,,male,19,
28,14,434,11,11,9,['k'],['d'],N,N,None,Y,,,,,,,male,19,
29,0,435,2,2,9,['k'],['k'],Y,Y,['space'],Y,,,,,,,male,19,
29,1,436,14,14,9,['k'],['k'],Y,N,None,Y,,,,,,,male,19,
29,2,437,7,7,9,['k'],['k'],Y,Y,['space'],Y,,,,,,,male,19,
29,3,438,11,11,9,['k'],['k'],Y,Y,['space'],Y,,,,,,,male,19,
29,4,439,1,1,9,['k'],['k'],Y,Y,None,N,,,,,,,male,19,
29,5,440,2,2,9,['d'],['d'],Y,N,None,Y,,,,,,,male,19,
29,6,441,1,1,9,['k'],['k'],Y,Y,['k'],N,,,,,,,male,19,
29,7,442,3,3,9,['d'],['d'],Y,N,None,Y,,,,,,,male,19,
29,8,443,3,3,9,['k'],['d'],N,Y,None,N,,,,,,,male,19,
29,9,444,3,3,9,['k'],['k'],Y,N,None,Y,,,,,,,male,19,
29,10,445,11,11,9,['k'],['k'],Y,N,None,Y,,,,,,,male,19,
29,11,446,8,8,9,['d'],['d'],Y,Y,None,N,,,,,,,male,19,
29,12,447,6,6,9,['k'],['k'],Y,Y,['space'],Y,,,,,,,male,19,
29,13,448,13,13,9,['k'],['k'],Y,N,None,Y,,,,,,,male,19,
29,14,449,10,10,9,['d'],['d'],Y,N,['space'],N,41,33,24,,,,male,19,
30,0,450,11,11,10,['k'],['k'],Y,,,,,,,,,,male,19,
30,1,451,6,6,10,['d'],['d'],Y,,,,,,,,,,male,19,
30,2,452,6,6,10,['k'],['k'],Y,Y,['space'],Y,,,,,,,male,19,
30,3,453,9,9,10,['d'],['d'],Y,Y,['space'],Y,,,,,,,male,19,
30,4,454,9,9,10,['d'],['d'],Y,N,['space'],N,,,,,,,male,19,
30,5,455,13,13,10,['k'],['k'],Y,Y,['space'],Y,,,,,,,male,19,
30,6,456,3,3,10,['k'],['k'],Y,Y,['space'],Y,,,,,,,male,19,
30,7,457,4,4,10,['d'],['d'],Y,N,None,Y,,,,,,,male,19,
30,8,458,14,14,10,['k'],['k'],Y,Y,None,N,,,,,,,male,19,
30,9,459,3,3,10,['k'],['k'],Y,Y,None,N,,,,,,,male,19,
30,10,460,10,10,10,['d'],['d'],Y,Y,['space'],Y,,,,,,,male,19,
30,11,461,14,14,10,['k'],['k'],Y,N,None,Y,,,,,,,male,19,
30,12,462,0,0,10,['k'],['k'],Y,N,['space'],N,,,,,,,male,19,
30,13,463,8,8,10,['d'],['d'],Y,N,None,Y,,,,,,,male,19,
30,14,464,0,0,10,['k'],['k'],Y,N,None,Y,,,,,,,male,19,
31,0,465,1,1,10,['d'],['d'],Y,N,None,Y,,,,,,,male,19,
31,1,466,11,11,10,['k'],['k'],Y,N,None,Y,,,,,,,male,19,
31,2,467,8,8,10,['d'],['d'],Y,Y,['space'],Y,,,,,,,male,19,
31,3,468,6,6,10,['k'],['k'],Y,Y,['space'],Y,,,,,,,male,19,
31,4,469,5,5,10,['k'],['k'],Y,N,None,Y,,,,,,,male,19,
31,5,470,7,7,10,['k'],['d'],N,Y,None,N,,,,,,,male,19,
31,6,471,9,9,10,['d'],['d'],Y,N,['space'],N,,,,,,,male,19,
31,7,472,5,5,10,['k'],['k'],Y,Y,['space'],Y,,,,,,,male,19,
31,8,473,3,3,10,['k'],['k'],Y,Y,None,N,,,,,,,male,19,
31,9,474,14,14,10,['k'],['k'],Y,Y,['space'],Y,,,,,,,male,19,
31,10,475,7,7,10,['d'],['k'],N,N,['space'],N,,,,,,,male,19,
31,11,476,8,8,10,['k'],['k'],Y,Y,['space'],Y,,,,,,,male,19,
31,12,477,1,1,10,['k'],['k'],Y,Y,['space'],Y,,,,,,,male,19,
31,13,478,8,8,10,['k'],['k'],Y,Y,['space'],Y,,,,,,,male,19,
31,14,479,8,8,10,['d'],['d'],Y,Y,['space'],Y,,,,,,,male,19,
32,0,480,14,14,10,['d'],['d'],Y,Y,['space'],Y,,,,,,,male,19,
32,1,481,3,3,10,['k'],['k'],Y,N,None,Y,,,,,,,male,19,
32,2,482,0,0,10,['k'],['k'],Y,Y,['space'],Y,,,,,,,male,19,
32,3,483,3,3,10,['k'],['k'],Y,Y,['space'],Y,,,,,,,male,19,
32,4,484,5,5,10,['k'],['k'],Y,N,None,Y,,,,,,,male,19,
32,5,485,9,9,10,['d'],['d'],Y,N,None,Y,,,,,,,male,19,
32,6,486,9,9,10,['d'],['d'],Y,N,None,Y,,,,,,,male,19,
32,7,487,0,0,10,['k'],['k'],Y,N,['space'],N,,,,,,,male,19,
32,8,488,4,4,10,['k'],['k'],Y,Y,['space'],Y,,,,,,,male,19,
32,9,489,4,4,10,['k'],['k'],Y,N,None,Y,,,,,,,male,19,
32,10,490,7,7,10,['d'],['d'],Y,N,['space'],N,,,,,,,male,19,
32,11,491,6,6,10,['k'],['k'],Y,N,None,Y,,,,,,,male,19,
32,12,492,6,6,10,['k'],['k'],Y,Y,['space'],Y,,,,,,,male,19,
32,13,493,5,5,10,['k'],['k'],Y,N,None,Y,,,,,,,male,19,
32,14,494,7,7,10,['d'],['d'],Y,Y,['space'],Y,,,,,,,male,19,
33,0,495,2,2,10,['d'],['d'],Y,Y,['space'],Y,,,,,,,male,19,
33,1,496,5,5,10,['d'],['d'],Y,Y,['space'],Y,,,,,,,male,19,
33,2,497,12,12,10,['d'],['d'],Y,N,None,Y,,,,,,,male,19,
33,3,498,13,13,10,['d'],['d'],Y,N,None,Y,,,,,,,male,19,
33,4,499,11,11,10,['d'],['d'],Y,N,None,Y,48,38,25,,,,male,19,
33,5,500,9,9,11,None,,Timed out,,,,,,,Y,Y,Y,male,19,
33,6,501,10,10,11,['d'],['k'],Y,,,,,,,,Y,Y,male,19,
33,7,502,13,13,11,['k'],['k'],N,Y,['space'],Y,,,,,Y,Y,male,19,
33,8,503,14,14,11,['d'],['k'],Y,N,None,Y,,,,,Y,Y,male,19,
33,9,504,4,4,11,['k'],['d'],Y,Y,['k'],N,,,,,Y,Y,male,19,
33,10,505,6,6,11,['d'],['d'],N,N,None,Y,,,,,Y,Y,male,19,
33,11,506,3,3,11,['d'],['d'],N,Y,['k'],N,,,,,Y,Y,male,19,
33,12,507,0,0,11,['k'],['d'],Y,Y,['space'],Y,,,,,Y,Y,male,19,
33,13,508,9,9,11,None,,Timed out,Y,None,N,,,,,Y,Y,male,19,
33,14,509,10,10,11,['k'],['d'],Y,Y,['space'],Y,,,,,Y,Y,male,19,
34,0,510,11,11,11,['d'],['d'],N,N,None,Y,,,,,Y,Y,male,19,
34,1,511,3,3,11,['d'],['k'],Y,N,None,Y,,,,,Y,Y,male,19,
34,2,512,1,1,11,None,,Timed out,N,None,Y,,,,,Y,Y,male,19,
34,3,513,8,8,11,['d'],['k'],Y,Y,None,N,,,,,Y,Y,male,19,
34,4,514,2,2,11,['d'],['k'],Y,N,None,Y,,,,,Y,Y,male,19,
34,5,515,12,12,11,['d'],['k'],Y,Y,None,N,,,,,Y,Y,male,19,
34,6,516,5,5,11,['k'],['d'],Y,Y,None,N,,,,,Y,Y,male,19,
34,7,517,13,13,11,['d'],['k'],Y,N,None,Y,,,,,Y,Y,male,19,
34,8,518,14,14,11,['k'],['d'],Y,Y,['space'],Y,,,,,Y,Y,male,19,
34,9,519,11,11,11,['d'],['d'],N,N,None,Y,,,,,Y,Y,male,19,
34,10,520,0,0,11,['d'],['k'],Y,Y,None,N,,,,,Y,Y,male,19,
34,11,521,8,8,11,None,,Timed out,Y,['space'],Y,,,,,Y,Y,male,19,
34,12,522,9,9,11,['k'],['d'],Y,Y,['space'],Y,,,,,Y,Y,male,19,
34,13,523,11,11,11,['d'],['k'],Y,Y,['space'],Y,,,,,Y,Y,male,19,
34,14,524,13,13,11,['d'],['d'],N,Y,['space'],Y,,,,,Y,Y,male,19,
35,0,525,3,3,11,None,,Timed out,Y,['space'],Y,,,,,Y,Y,male,19,
35,1,526,5,5,11,['k'],['d'],Y,Y,['space'],Y,,,,,Y,Y,male,19,
35,2,527,12,12,11,None,,Timed out,N,None,Y,,,,,Y,Y,male,19,
35,3,528,4,4,11,['d'],['k'],Y,N,None,Y,,,,,Y,Y,male,19,
35,4,529,1,1,11,['d'],['k'],Y,N,None,Y,,,,,Y,Y,male,19,
35,5,530,0,0,11,None,,Timed out,Y,['space'],Y,,,,,Y,Y,male,19,
35,6,531,11,11,11,['d'],['k'],Y,Y,['space'],Y,,,,,Y,Y,male,19,
35,7,532,4,4,11,None,,Timed out,Y,['space'],Y,,,,,Y,Y,male,19,
35,8,533,6,6,11,['d'],['k'],Y,Y,['space'],Y,,,,,Y,Y,male,19,
35,9,534,5,5,11,['k'],['d'],Y,Y,['space'],Y,,,,,Y,Y,male,19,
35,10,535,5,5,11,['d'],['k'],Y,N,None,Y,,,,,Y,Y,male,19,
35,11,536,0,0,11,None,,Timed out,N,None,Y,,,,,Y,Y,male,19,
35,12,537,14,14,11,None,,Timed out,N,['space'],N,,,,,Y,Y,male,19,
35,13,538,2,2,11,['k'],['d'],Y,Y,None,N,,,,,Y,Y,male,19,
35,14,539,14,14,11,['d'],['k'],Y,Y,['space'],Y,,,,,Y,Y,male,19,
36,0,540,10,10,11,['k'],['d'],Y,N,['space'],N,,,,,Y,Y,male,19,
36,1,541,3,3,11,['d'],['d'],N,Y,['space'],Y,,,,,Y,Y,male,19,
36,2,542,1,1,11,['d'],['k'],Y,N,None,Y,,,,,Y,Y,male,19,
36,3,543,13,13,11,['k'],['d'],Y,N,None,Y,,,,,Y,Y,male,19,
36,4,544,3,3,11,['d'],['k'],Y,N,None,Y,,,,,Y,Y,male,19,
36,5,545,0,0,11,['k'],['d'],Y,N,None,Y,,,,,Y,Y,male,19,
36,6,546,13,13,11,['d'],['d'],N,N,None,Y,,,,,Y,Y,male,19,
36,7,547,6,6,11,['k'],['k'],N,N,None,Y,,,,,Y,Y,male,19,
36,8,548,3,3,11,['k'],['d'],Y,N,['space'],N,,,,,Y,Y,male,19,
36,9,549,6,6,11,None,,Timed out,N,['space'],N,30,36,25,,Y,Y,male,19,
36,10,550,4,4,12,['k'],['d'],Y,,,,,,,,Y,Y,male,19,
36,11,551,2,2,12,None,,Timed out,,,,,,,,Y,Y,male,19,
36,12,552,5,5,12,['d'],['k'],Y,Y,['space'],Y,,,,,Y,Y,male,19,
36,13,553,11,11,12,['d'],['k'],Y,N,None,Y,,,,,Y,Y,male,19,
36,14,554,12,12,12,['d'],['k'],Y,N,None,Y,,,,,Y,Y,male,19,
37,0,555,3,3,12,['d'],['k'],Y,Y,None,N,,,,,Y,Y,male,19,
37,1,556,4,4,12,['k'],['d'],Y,Y,['space'],Y,,,,,Y,Y,male,19,
37,2,557,7,7,12,['k'],['d'],Y,N,['space'],N,,,,,Y,Y,male,19,
37,3,558,4,4,12,['k'],['d'],Y,N,None,Y,,,,,Y,Y,male,19,
37,4,559,8,8,12,['k'],['d'],Y,Y,None,N,,,,,Y,Y,male,19,
37,5,560,4,4,12,None,,Timed out,Y,['space'],Y,,,,,Y,Y,male,19,
37,6,561,9,9,12,['d'],['k'],Y,N,['space'],N,,,,,Y,Y,male,19,
37,7,562,2,2,12,['k'],['d'],Y,Y,['space'],Y,,,,,Y,Y,male,19,
37,8,563,5,5,12,['d'],['k'],Y,Y,['space'],Y,,,,,Y,Y,male,19,
37,9,564,12,12,12,['d'],['k'],Y,Y,None,N,,,,,Y,Y,male,19,
37,10,565,8,8,12,['k'],['k'],N,Y,['space'],Y,,,,,Y,Y,male,19,
37,11,566,13,13,12,['k'],['k'],N,N,['j'],N,,,,,Y,Y,male,19,
37,12,567,3,3,12,None,,Timed out,Y,['space'],Y,,,,,Y,Y,male,19,
37,13,568,8,8,12,['k'],['d'],Y,N,None,Y,,,,,Y,Y,male,19,
37,14,569,12,12,12,None,,Timed out,Y,None,N,,,,,Y,Y,male,19,
38,0,570,5,5,12,['d'],['k'],Y,Y,['space'],Y,,,,,Y,Y,male,19,
38,1,571,2,2,12,['k'],['d'],Y,Y,['space'],Y,,,,,Y,Y,male,19,
38,2,572,8,8,12,['k'],['d'],Y,N,['space'],N,,,,,Y,Y,male,19,
38,3,573,3,3,12,['k'],['d'],Y,N,['space'],N,,,,,Y,Y,male,19,
38,4,574,2,2,12,['k'],['d'],Y,N,['space'],N,,,,,Y,Y,male,19,
38,5,575,4,4,12,['k'],['d'],Y,N,None,Y,,,,,Y,Y,male,19,
38,6,576,0,0,12,['k'],['d'],Y,N,['space'],N,,,,,Y,Y,male,19,
38,7,577,14,14,12,['d'],['d'],N,Y,['space'],Y,,,,,Y,Y,male,19,
38,8,578,12,12,12,['k'],['d'],Y,Y,['space'],Y,,,,,Y,Y,male,19,
38,9,579,0,0,12,['k'],['d'],Y,N,None,Y,,,,,Y,Y,male,19,
38,10,580,5,5,12,None,,Timed out,Y,['space'],Y,,,,,Y,Y,male,19,
38,11,581,10,10,12,['k'],['d'],Y,Y,['space'],Y,,,,,Y,Y,male,19,
38,12,582,2,2,12,['d'],['k'],Y,Y,['space'],Y,,,,,Y,Y,male,19,
38,13,583,9,9,12,['k'],['d'],Y,Y,['space'],Y,,,,,Y,Y,male,19,
38,14,584,7,7,12,['k'],['d'],Y,Y,['space'],Y,,,,,Y,Y,male,19,
39,0,585,9,9,12,['k'],['d'],Y,N,['space'],N,,,,,Y,Y,male,19,
39,1,586,0,0,12,['k'],['d'],Y,Y,['space'],Y,,,,,Y,Y,male,19,
39,2,587,10,10,12,['d'],['k'],Y,Y,['space'],Y,,,,,Y,Y,male,19,
39,3,588,9,9,12,['d'],['k'],Y,Y,['space'],Y,,,,,Y,Y,male,19,
39,4,589,8,8,12,['d'],['d'],N,Y,['space'],Y,,,,,Y,Y,male,19,
39,5,590,9,9,12,['k'],['d'],Y,N,None,Y,,,,,Y,Y,male,19,
39,6,591,6,6,12,['k'],['k'],N,N,None,Y,,,,,Y,Y,male,19,
39,7,592,12,12,12,['k'],['d'],Y,N,None,Y,,,,,Y,Y,male,19,
39,8,593,12,12,12,['k'],['d'],Y,N,None,Y,,,,,Y,Y,male,19,
39,9,594,13,13,12,None,,Timed out,Y,['k'],N,,,,,Y,Y,male,19,
39,10,595,9,9,12,['k'],['d'],Y,N,['k'],N,,,,,Y,Y,male,19,
39,11,596,2,2,12,['d'],['k'],Y,N,None,Y,,,,,Y,Y,male,19,
39,12,597,7,7,12,None,,Timed out,N,['k'],N,,,,,Y,Y,male,19,
39,13,598,9,9,12,['k'],['d'],Y,N,['k'],N,,,,,Y,Y,male,19,
39,14,599,6,6,12,['k'],['d'],Y,N,None,Y,38,32,25,,Y,Y,male,19,
