.thisRepN,.thisTrialN,.thisN,.thisIndex,.thisTrial,Block Number,Key pressed,Category,Correct?,Int Match?,Int Response,Int Correct?,Line Accuracy,Interference Accuracy,Matching Interferences,New instruction shown?,Buttons switched?,Fast?,gender,age,
0,0,0,1,1,1,['d'],['k'],N,,,,,,,,,,m,20,
0,1,1,3,3,1,['d'],['k'],N,,,,,,,,,,m,20,
0,2,2,12,12,1,['k'],['d'],N,Y,None,N,,,,,,,m,20,
0,3,3,14,14,1,['d'],['d'],Y,N,['space'],N,,,,,,,m,20,
0,4,4,2,2,1,['k'],['d'],N,Y,['space'],Y,,,,,,,m,20,
0,5,5,13,13,1,['d'],['d'],Y,N,None,Y,,,,,,,m,20,
0,6,6,9,9,1,['d'],['k'],N,Y,None,N,,,,,,,m,20,
0,7,7,7,7,1,['k'],['d'],N,Y,['k'],N,,,,,,,m,20,
0,8,8,9,9,1,['d'],['k'],N,Y,['space'],Y,,,,,,,m,20,
0,9,9,3,3,1,['k'],['k'],Y,N,None,Y,,,,,,,m,20,
0,10,10,6,6,1,['k'],['d'],N,Y,['space'],Y,,,,,,,m,20,
0,11,11,3,3,1,['d'],['d'],Y,N,None,Y,,,,,,,m,20,
0,12,12,5,5,1,['d'],['d'],Y,Y,None,N,,,,,,,m,20,
0,13,13,9,9,1,['k'],['d'],N,Y,None,N,,,,,,,m,20,
0,14,14,13,13,1,['k'],['d'],N,N,None,Y,,,,,,,m,20,
1,0,15,0,0,1,['d'],['d'],Y,N,None,Y,,,,,,,m,20,
1,1,16,3,3,1,['d'],['d'],Y,N,None,Y,,,,,,,m,20,
1,2,17,0,0,1,['d'],['d'],Y,N,None,Y,,,,,,,m,20,
1,3,18,2,2,1,['d'],['k'],N,Y,['space'],Y,,,,,,,m,20,
1,4,19,0,0,1,['d'],['d'],Y,N,['space'],N,,,,,,,m,20,
1,5,20,2,2,1,['d'],['d'],Y,N,None,Y,,,,,,,m,20,
1,6,21,9,9,1,['d'],['k'],N,Y,None,N,,,,,,,m,20,
1,7,22,11,11,1,['d'],['k'],N,N,None,Y,,,,,,,m,20,
1,8,23,0,0,1,['d'],['k'],N,Y,None,N,,,,,,,m,20,
1,9,24,5,5,1,['k'],['k'],Y,Y,None,N,,,,,,,m,20,
1,10,25,13,13,1,['d'],['d'],Y,N,None,Y,,,,,,,m,20,
1,11,26,14,14,1,['d'],['d'],Y,N,None,Y,,,,,,,m,20,
1,12,27,2,2,1,['k'],['d'],N,Y,None,N,,,,,,,m,20,
1,13,28,12,12,1,['d'],['k'],N,Y,None,N,,,,,,,m,20,
1,14,29,12,12,1,['d'],['k'],N,N,None,Y,,,,,,,m,20,
2,0,30,9,9,1,['d'],['k'],N,Y,None,N,,,,,,,m,20,
2,1,31,7,7,1,['k'],['d'],N,Y,['space'],Y,,,,,,,m,20,
2,2,32,9,9,1,['d'],['d'],Y,N,None,Y,,,,,,,m,20,
2,3,33,8,8,1,['k'],['k'],Y,Y,None,N,,,,,,,m,20,
2,4,34,11,11,1,['k'],['k'],Y,N,None,Y,,,,,,,m,20,
2,5,35,11,11,1,['d'],['k'],N,Y,None,N,,,,,,,m,20,
2,6,36,11,11,1,['d'],['d'],Y,Y,None,N,,,,,,,m,20,
2,7,37,10,10,1,['d'],['d'],Y,N,None,Y,,,,,,,m,20,
2,8,38,3,3,1,['d'],['d'],Y,N,None,Y,,,,,,,m,20,
2,9,39,6,6,1,['d'],['d'],Y,N,None,Y,,,,,,,m,20,
2,10,40,3,3,1,['d'],['d'],Y,N,None,Y,,,,,,,m,20,
2,11,41,7,7,1,['k'],['d'],N,Y,['space'],Y,,,,,,,m,20,
2,12,42,10,10,1,['k'],['k'],Y,Y,['space'],Y,,,,,,,m,20,
2,13,43,8,8,1,['d'],['d'],Y,Y,None,N,,,,,,,m,20,
2,14,44,14,14,1,['k'],['k'],Y,Y,None,N,,,,,,,m,20,
3,0,45,11,11,1,['d'],['d'],Y,N,None,Y,,,,,,,m,20,
3,1,46,11,11,1,['d'],['d'],Y,N,None,Y,,,,,,,m,20,
3,2,47,4,4,1,['d'],['d'],Y,N,None,Y,,,,,,,m,20,
3,3,48,4,4,1,['k'],['k'],Y,N,None,Y,,,,,,,m,20,
3,4,49,6,6,1,['d'],['k'],N,Y,['space'],Y,28,30,24,,,,m,20,
3,5,50,5,5,2,['d'],['k'],N,,,,,,,,,,m,20,
3,6,51,13,13,2,['d'],['d'],Y,,,,,,,,,,m,20,
3,7,52,3,3,2,['k'],['k'],Y,Y,['space'],Y,,,,,,,m,20,
3,8,53,1,1,2,['k'],['k'],Y,N,['space'],N,,,,,,,m,20,
3,9,54,13,13,2,['k'],['k'],Y,Y,['space'],Y,,,,,,,m,20,
3,10,55,0,0,2,['d'],['d'],Y,N,None,Y,,,,,,,m,20,
3,11,56,0,0,2,['d'],['d'],Y,Y,None,N,,,,,,,m,20,
3,12,57,5,5,2,['k'],['k'],Y,N,['space'],N,,,,,,,m,20,
3,13,58,11,11,2,['d'],['d'],Y,N,None,Y,,,,,,,m,20,
3,14,59,4,4,2,['k'],['k'],Y,Y,['space'],Y,,,,,,,m,20,
4,0,60,3,3,2,['d'],['d'],Y,N,None,Y,,,,,,,m,20,
4,1,61,5,5,2,['d'],['d'],Y,N,None,Y,,,,,,,m,20,
4,2,62,11,11,2,['d'],['d'],Y,N,['space'],N,,,,,,,m,20,
4,3,63,14,14,2,['d'],['d'],Y,Y,None,N,,,,,,,m,20,
4,4,64,9,9,2,['k'],['k'],Y,N,None,Y,,,,,,,m,20,
4,5,65,12,12,2,['d'],['d'],Y,N,None,Y,,,,,,,m,20,
4,6,66,3,3,2,['k'],['k'],Y,Y,['space'],Y,,,,,,,m,20,
4,7,67,0,0,2,['d'],['d'],Y,N,None,Y,,,,,,,m,20,
4,8,68,9,9,2,['d'],['d'],Y,Y,['space'],Y,,,,,,,m,20,
4,9,69,12,12,2,['k'],['d'],N,N,['space'],N,,,,,,,m,20,
4,10,70,4,4,2,['d'],['d'],Y,N,None,Y,,,,,,,m,20,
4,11,71,13,13,2,['d'],['k'],N,Y,None,N,,,,,,,m,20,
4,12,72,12,12,2,['d'],['d'],Y,N,None,Y,,,,,,,m,20,
4,13,73,1,1,2,['d'],['d'],Y,Y,None,N,,,,,,,m,20,
4,14,74,10,10,2,['d'],['k'],N,N,None,Y,,,,,,,m,20,
5,0,75,4,4,2,['d'],['d'],Y,N,None,Y,,,,,,,m,20,
5,1,76,5,5,2,['k'],['k'],Y,Y,None,N,,,,,,,m,20,
5,2,77,10,10,2,['k'],['k'],Y,N,None,Y,,,,,,,m,20,
5,3,78,11,11,2,['k'],['k'],Y,N,None,Y,,,,,,,m,20,
5,4,79,2,2,2,['d'],['d'],Y,N,None,Y,,,,,,,m,20,
5,5,80,5,5,2,['k'],['k'],Y,N,None,Y,,,,,,,m,20,
5,6,81,11,11,2,['k'],['k'],Y,Y,['space'],Y,,,,,,,m,20,
5,7,82,4,4,2,['k'],['k'],Y,Y,['space'],Y,,,,,,,m,20,
5,8,83,9,9,2,['d'],['k'],N,N,None,Y,,,,,,,m,20,
5,9,84,2,2,2,['k'],['k'],Y,N,None,Y,,,,,,,m,20,
5,10,85,5,5,2,['k'],['k'],Y,N,['space'],N,,,,,,,m,20,
5,11,86,13,13,2,['k'],['k'],Y,N,None,Y,,,,,,,m,20,
5,12,87,1,1,2,['k'],['k'],Y,N,None,Y,,,,,,,m,20,
5,13,88,2,2,2,['d'],['d'],Y,Y,None,N,,,,,,,m,20,
5,14,89,0,0,2,['k'],['k'],Y,N,None,Y,,,,,,,m,20,
6,0,90,5,5,2,['k'],['k'],Y,Y,['space'],Y,,,,,,,m,20,
6,1,91,0,0,2,['k'],['k'],Y,Y,None,N,,,,,,,m,20,
6,2,92,10,10,2,['d'],['d'],Y,Y,None,N,,,,,,,m,20,
6,3,93,6,6,2,['k'],['k'],Y,Y,['space'],Y,,,,,,,m,20,
6,4,94,9,9,2,['k'],['d'],N,Y,['space'],Y,,,,,,,m,20,
6,5,95,7,7,2,['k'],['k'],Y,N,None,Y,,,,,,,m,20,
6,6,96,11,11,2,['d'],['d'],Y,N,None,Y,,,,,,,m,20,
6,7,97,1,1,2,['k'],['k'],Y,Y,['space'],Y,,,,,,,m,20,
6,8,98,0,0,2,['k'],['k'],Y,N,None,Y,,,,,,,m,20,
6,9,99,7,7,2,['k'],['k'],Y,Y,['space'],Y,44,35,20,,,,m,20,
6,10,100,12,12,3,['d'],['d'],Y,,,,,,,,,,m,20,
6,11,101,12,12,3,['k'],['k'],Y,,,,,,,,,,m,20,
6,12,102,12,12,3,['k'],['k'],Y,Y,['space'],Y,,,,,,,m,20,
6,13,103,8,8,3,['k'],['k'],Y,Y,['space'],Y,,,,,,,m,20,
6,14,104,8,8,3,['k'],['k'],Y,Y,['space'],Y,,,,,,,m,20,
7,0,105,1,1,3,['d'],['d'],Y,Y,['space'],Y,,,,,,,m,20,
7,1,106,11,11,3,['d'],['d'],Y,N,None,Y,,,,,,,m,20,
7,2,107,6,6,3,['k'],['d'],N,Y,['space'],Y,,,,,,,m,20,
7,3,108,5,5,3,['d'],['d'],Y,N,None,Y,,,,,,,m,20,
7,4,109,0,0,3,['k'],['k'],Y,Y,None,N,,,,,,,m,20,
7,5,110,2,2,3,['k'],['k'],Y,Y,None,N,,,,,,,m,20,
7,6,111,4,4,3,['k'],['k'],Y,N,None,Y,,,,,,,m,20,
7,7,112,6,6,3,['d'],['d'],Y,Y,['space'],Y,,,,,,,m,20,
7,8,113,6,6,3,['k'],['k'],Y,N,None,Y,,,,,,,m,20,
7,9,114,0,0,3,['k'],['k'],Y,N,None,Y,,,,,,,m,20,
7,10,115,0,0,3,['k'],['k'],Y,N,None,Y,,,,,,,m,20,
7,11,116,1,1,3,['d'],['d'],Y,Y,None,N,,,,,,,m,20,
7,12,117,5,5,3,['k'],['k'],Y,Y,['space'],Y,,,,,,,m,20,
7,13,118,11,11,3,['d'],['d'],Y,N,['space'],N,,,,,,,m,20,
7,14,119,14,14,3,['d'],['d'],Y,N,None,Y,,,,,,,m,20,
8,0,120,0,0,3,['d'],['d'],Y,N,['space'],N,,,,,,,m,20,
8,1,121,0,0,3,['k'],['k'],Y,Y,['space'],Y,,,,,,,m,20,
8,2,122,5,5,3,['k'],['k'],Y,N,None,Y,,,,,,,m,20,
8,3,123,10,10,3,['k'],['k'],Y,Y,None,N,,,,,,,m,20,
8,4,124,7,7,3,['d'],['d'],Y,Y,None,N,,,,,,,m,20,
8,5,125,12,12,3,['k'],['k'],Y,N,None,Y,,,,,,,m,20,
8,6,126,7,7,3,['k'],['d'],N,N,['space'],N,,,,,,,m,20,
8,7,127,4,4,3,['k'],['k'],Y,N,None,Y,,,,,,,m,20,
8,8,128,7,7,3,['d'],['d'],Y,Y,['space'],Y,,,,,,,m,20,
8,9,129,5,5,3,['d'],['d'],Y,N,None,Y,,,,,,,m,20,
8,10,130,3,3,3,['d'],['d'],Y,N,None,Y,,,,,,,m,20,
8,11,131,8,8,3,['d'],['d'],Y,Y,['space'],Y,,,,,,,m,20,
8,12,132,13,13,3,['d'],['d'],Y,N,None,Y,,,,,,,m,20,
8,13,133,3,3,3,['d'],['d'],Y,Y,['space'],Y,,,,,,,m,20,
8,14,134,8,8,3,['d'],['d'],Y,Y,None,N,,,,,,,m,20,
9,0,135,12,12,3,['d'],['d'],Y,N,None,Y,,,,,,,m,20,
9,1,136,11,11,3,['d'],['d'],Y,Y,None,N,,,,,,,m,20,
9,2,137,0,0,3,['k'],['k'],Y,Y,None,N,,,,,,,m,20,
9,3,138,6,6,3,['d'],['d'],Y,Y,['space'],Y,,,,,,,m,20,
9,4,139,14,14,3,['d'],['d'],Y,Y,None,N,,,,,,,m,20,
9,5,140,8,8,3,['k'],['k'],Y,Y,None,N,,,,,,,m,20,
9,6,141,11,11,3,['k'],['k'],Y,Y,['space'],Y,,,,,,,m,20,
9,7,142,1,1,3,['d'],['d'],Y,N,None,Y,,,,,,,m,20,
9,8,143,1,1,3,['k'],['k'],Y,Y,['space'],Y,,,,,,,m,20,
9,9,144,6,6,3,['k'],['k'],Y,Y,None,N,,,,,,,m,20,
9,10,145,14,14,3,['d'],['d'],Y,N,None,Y,,,,,,,m,20,
9,11,146,4,4,3,['d'],['d'],Y,N,['space'],N,,,,,,,m,20,
9,12,147,2,2,3,['d'],['d'],Y,N,None,Y,,,,,,,m,20,
9,13,148,8,8,3,['d'],['d'],Y,N,None,Y,,,,,,,m,20,
9,14,149,3,3,3,['d'],['d'],Y,N,None,Y,48,33,25,,,,m,20,
10,0,150,2,2,4,['d'],['d'],Y,,,,,,,,,,m,20,
10,1,151,5,5,4,['k'],['k'],Y,,,,,,,,,,m,20,
10,2,152,2,2,4,['k'],['k'],Y,Y,['space'],Y,,,,,,,m,20,
10,3,153,5,5,4,['d'],['d'],Y,N,None,Y,,,,,,,m,20,
10,4,154,13,13,4,['k'],['k'],Y,N,None,Y,,,,,,,m,20,
10,5,155,6,6,4,['d'],['d'],Y,N,None,Y,,,,,,,m,20,
10,6,156,7,7,4,['k'],['k'],Y,N,None,Y,,,,,,,m,20,
10,7,157,11,11,4,['d'],['d'],Y,Y,None,N,,,,,,,m,20,
10,8,158,2,2,4,['d'],['d'],Y,N,None,Y,,,,,,,m,20,
10,9,159,12,12,4,['k'],['k'],Y,Y,['space'],Y,,,,,,,m,20,
10,10,160,12,12,4,['k'],['k'],Y,N,None,Y,,,,,,,m,20,
10,11,161,0,0,4,['k'],['k'],Y,N,None,Y,,,,,,,m,20,
10,12,162,8,8,4,['k'],['k'],Y,N,None,Y,,,,,,,m,20,
10,13,163,12,12,4,['k'],['k'],Y,Y,['space'],Y,,,,,,,m,20,
10,14,164,14,14,4,['k'],['k'],Y,N,None,Y,,,,,,,m,20,
11,0,165,9,9,4,['d'],['d'],Y,Y,['space'],Y,,,,,,,m,20,
11,1,166,14,14,4,['k'],['k'],Y,Y,['space'],Y,,,,,,,m,20,
11,2,167,6,6,4,['d'],['d'],Y,Y,['space'],Y,,,,,,,m,20,
11,3,168,8,8,4,['k'],['k'],Y,Y,['space'],Y,,,,,,,m,20,
11,4,169,10,10,4,['d'],['d'],Y,N,None,Y,,,,,,,m,20,
11,5,170,0,0,4,['k'],['k'],Y,Y,['space'],Y,,,,,,,m,20,
11,6,171,5,5,4,['k'],['k'],Y,Y,['space'],Y,,,,,,,m,20,
11,7,172,4,4,4,['d'],['d'],Y,Y,['space'],Y,,,,,,,m,20,
11,8,173,0,0,4,['k'],['k'],Y,N,None,Y,,,,,,,m,20,
11,9,174,4,4,4,['k'],['k'],Y,N,None,Y,,,,,,,m,20,
11,10,175,4,4,4,['k'],['k'],Y,Y,['space'],Y,,,,,,,m,20,
11,11,176,8,8,4,['k'],['k'],Y,N,None,Y,,,,,,,m,20,
11,12,177,9,9,4,['d'],['d'],Y,Y,['space'],Y,,,,,,,m,20,
11,13,178,3,3,4,['k'],['k'],Y,Y,None,N,,,,,,,m,20,
11,14,179,12,12,4,['d'],['d'],Y,N,None,Y,,,,,,,m,20,
12,0,180,2,2,4,['k'],['k'],Y,Y,['space'],Y,,,,,,,m,20,
12,1,181,10,10,4,['k'],['k'],Y,N,None,Y,,,,,,,m,20,
12,2,182,2,2,4,['k'],['k'],Y,Y,['space'],Y,,,,,,,m,20,
12,3,183,13,13,4,['k'],['k'],Y,N,None,Y,,,,,,,m,20,
12,4,184,6,6,4,['k'],['k'],Y,N,None,Y,,,,,,,m,20,
12,5,185,14,14,4,['k'],['k'],Y,Y,None,N,,,,,,,m,20,
12,6,186,14,14,4,['k'],['k'],Y,Y,['space'],Y,,,,,,,m,20,
12,7,187,7,7,4,['d'],['d'],Y,N,None,Y,,,,,,,m,20,
12,8,188,14,14,4,['d'],['d'],Y,Y,['space'],Y,,,,,,,m,20,
12,9,189,7,7,4,['k'],['k'],Y,N,None,Y,,,,,,,m,20,
12,10,190,12,12,4,['k'],['k'],Y,Y,['space'],Y,,,,,,,m,20,
12,11,191,14,14,4,['d'],['d'],Y,Y,['space'],Y,,,,,,,m,20,
12,12,192,10,10,4,['d'],['d'],Y,N,None,Y,,,,,,,m,20,
12,13,193,1,1,4,['k'],['k'],Y,Y,['space'],Y,,,,,,,m,20,
12,14,194,1,1,4,['d'],['d'],Y,Y,['space'],Y,,,,,,,m,20,
13,0,195,13,13,4,['d'],['d'],Y,N,None,Y,,,,,,,m,20,
13,1,196,6,6,4,['d'],['d'],Y,Y,['space'],Y,,,,,,,m,20,
13,2,197,6,6,4,['d'],['d'],Y,Y,['space'],Y,,,,,,,m,20,
13,3,198,13,13,4,['k'],['k'],Y,N,None,Y,,,,,,,m,20,
13,4,199,11,11,4,['d'],['d'],Y,N,None,Y,50,45,25,,,,m,20,
13,5,200,3,3,5,['d'],['d'],Y,,,,,,,,,,m,20,
13,6,201,0,0,5,['k'],['k'],Y,,,,,,,,,,m,20,
13,7,202,5,5,5,['k'],['k'],Y,Y,['space'],Y,,,,,,,m,20,
13,8,203,13,13,5,['k'],['d'],N,Y,['space'],Y,,,,,,,m,20,
13,9,204,4,4,5,['d'],['d'],Y,Y,['space'],Y,,,,,,,m,20,
13,10,205,12,12,5,['k'],['k'],Y,Y,['space'],Y,,,,,,,m,20,
13,11,206,9,9,5,['k'],['k'],Y,Y,['space'],Y,,,,,,,m,20,
13,12,207,4,4,5,['d'],['d'],Y,Y,['space'],Y,,,,,,,m,20,
13,13,208,14,14,5,['k'],['k'],Y,N,None,Y,,,,,,,m,20,
13,14,209,12,12,5,['d'],['d'],Y,N,None,Y,,,,,,,m,20,
14,0,210,12,12,5,['k'],['k'],Y,Y,None,N,,,,,,,m,20,
14,1,211,0,0,5,['d'],['d'],Y,Y,['space'],Y,,,,,,,m,20,
14,2,212,13,13,5,['k'],['k'],Y,N,None,Y,,,,,,,m,20,
14,3,213,13,13,5,['d'],['d'],Y,N,None,Y,,,,,,,m,20,
14,4,214,9,9,5,['d'],['d'],Y,N,None,Y,,,,,,,m,20,
14,5,215,9,9,5,['d'],['d'],Y,N,['space'],N,,,,,,,m,20,
14,6,216,1,1,5,['d'],['d'],Y,Y,['space'],Y,,,,,,,m,20,
14,7,217,4,4,5,['k'],['k'],Y,N,None,Y,,,,,,,m,20,
14,8,218,8,8,5,['k'],['k'],Y,N,None,Y,,,,,,,m,20,
14,9,219,3,3,5,['k'],['k'],Y,Y,['space'],Y,,,,,,,m,20,
14,10,220,6,6,5,['k'],['k'],Y,Y,['space'],Y,,,,,,,m,20,
14,11,221,10,10,5,['k'],['k'],Y,Y,['space'],Y,,,,,,,m,20,
14,12,222,5,5,5,['k'],['k'],Y,N,None,Y,,,,,,,m,20,
14,13,223,4,4,5,['k'],['k'],Y,Y,['space'],Y,,,,,,,m,20,
14,14,224,12,12,5,['k'],['k'],Y,N,None,Y,,,,,,,m,20,
15,0,225,2,2,5,['k'],['k'],Y,N,None,Y,,,,,,,m,20,
15,1,226,10,10,5,['d'],['d'],Y,Y,['space'],Y,,,,,,,m,20,
15,2,227,5,5,5,['d'],['d'],Y,Y,['space'],Y,,,,,,,m,20,
15,3,228,0,0,5,['d'],['d'],Y,N,None,Y,,,,,,,m,20,
15,4,229,11,11,5,['k'],['k'],Y,N,None,Y,,,,,,,m,20,
15,5,230,11,11,5,['d'],['d'],Y,Y,['space'],Y,,,,,,,m,20,
15,6,231,0,0,5,['k'],['d'],N,N,None,Y,,,,,,,m,20,
15,7,232,12,12,5,['k'],['k'],Y,N,None,Y,,,,,,,m,20,
15,8,233,1,1,5,['d'],['d'],Y,Y,['space'],Y,,,,,,,m,20,
15,9,234,2,2,5,['k'],['k'],Y,N,None,Y,,,,,,,m,20,
15,10,235,6,6,5,['k'],['k'],Y,Y,['space'],Y,,,,,,,m,20,
15,11,236,12,12,5,['k'],['k'],Y,Y,['space'],Y,,,,,,,m,20,
15,12,237,3,3,5,['d'],['d'],Y,N,None,Y,,,,,,,m,20,
15,13,238,10,10,5,['k'],['k'],Y,Y,['space'],Y,,,,,,,m,20,
15,14,239,2,2,5,['d'],['d'],Y,N,None,Y,,,,,,,m,20,
16,0,240,4,4,5,['k'],['k'],Y,Y,['space'],Y,,,,,,,m,20,
16,1,241,5,5,5,['k'],['k'],Y,N,None,Y,,,,,,,m,20,
16,2,242,2,2,5,['k'],['k'],Y,Y,['space'],Y,,,,,,,m,20,
16,3,243,6,6,5,['k'],['k'],Y,Y,['space'],Y,,,,,,,m,20,
16,4,244,9,9,5,['k'],['k'],Y,N,None,Y,,,,,,,m,20,
16,5,245,8,8,5,['d'],['d'],Y,N,None,Y,,,,,,,m,20,
16,6,246,14,14,5,['d'],['d'],Y,Y,['space'],Y,,,,,,,m,20,
16,7,247,4,4,5,['d'],['d'],Y,N,None,Y,,,,,,,m,20,
16,8,248,9,9,5,['k'],['k'],Y,N,None,Y,,,,,,,m,20,
16,9,249,13,13,5,['d'],['d'],Y,Y,['space'],Y,48,46,25,,,,m,20,
16,10,250,11,11,6,['k'],['k'],Y,,,,,,,,,,m,20,
16,11,251,10,10,6,['k'],['k'],Y,,,,,,,,,,m,20,
16,12,252,14,14,6,['k'],['k'],Y,Y,['space'],Y,,,,,,,m,20,
16,13,253,0,0,6,['d'],['d'],Y,N,None,Y,,,,,,,m,20,
16,14,254,7,7,6,['d'],['d'],Y,Y,None,N,,,,,,,m,20,
17,0,255,6,6,6,['k'],['k'],Y,Y,['space'],Y,,,,,,,m,20,
17,1,256,11,11,6,['d'],['d'],Y,Y,['space'],Y,,,,,,,m,20,
17,2,257,6,6,6,['k'],['k'],Y,N,None,Y,,,,,,,m,20,
17,3,258,2,2,6,['d'],['d'],Y,Y,['space'],Y,,,,,,,m,20,
17,4,259,4,4,6,['k'],['k'],Y,Y,['space'],Y,,,,,,,m,20,
17,5,260,5,5,6,['k'],['k'],Y,N,None,Y,,,,,,,m,20,
17,6,261,12,12,6,['k'],['k'],Y,N,None,Y,,,,,,,m,20,
17,7,262,1,1,6,['d'],['d'],Y,Y,['space'],Y,,,,,,,m,20,
17,8,263,5,5,6,['k'],['d'],N,Y,['k'],N,,,,,,,m,20,
17,9,264,7,7,6,['d'],['d'],Y,Y,None,N,,,,,,,m,20,
17,10,265,5,5,6,['k'],['k'],Y,Y,['space'],Y,,,,,,,m,20,
17,11,266,11,11,6,['d'],['k'],N,Y,['space'],Y,,,,,,,m,20,
17,12,267,12,12,6,['k'],['k'],Y,Y,['space'],Y,,,,,,,m,20,
17,13,268,14,14,6,['d'],['d'],Y,N,None,Y,,,,,,,m,20,
17,14,269,14,14,6,['d'],['d'],Y,N,None,Y,,,,,,,m,20,
18,0,270,11,11,6,['d'],['d'],Y,N,None,Y,,,,,,,m,20,
18,1,271,6,6,6,['k'],['k'],Y,N,None,Y,,,,,,,m,20,
18,2,272,14,14,6,['k'],['k'],Y,N,['space'],N,,,,,,,m,20,
18,3,273,13,13,6,['k'],['k'],Y,Y,['space'],Y,,,,,,,m,20,
18,4,274,13,13,6,['d'],['d'],Y,N,None,Y,,,,,,,m,20,
18,5,275,3,3,6,['d'],['k'],N,N,['space'],N,,,,,,,m,20,
18,6,276,12,12,6,['k'],['k'],Y,Y,['space'],Y,,,,,,,m,20,
18,7,277,14,14,6,['k'],['k'],Y,Y,['space'],Y,,,,,,,m,20,
18,8,278,14,14,6,['d'],['k'],N,Y,['d'],N,,,,,,,m,20,
18,9,279,14,14,6,['k'],['k'],Y,Y,['space'],Y,,,,,,,m,20,
18,10,280,10,10,6,['k'],['k'],Y,N,None,Y,,,,,,,m,20,
18,11,281,13,13,6,['k'],['k'],Y,Y,['space'],Y,,,,,,,m,20,
18,12,282,9,9,6,['d'],['d'],Y,Y,['space'],Y,,,,,,,m,20,
18,13,283,9,9,6,['d'],['d'],Y,N,None,Y,,,,,,,m,20,
18,14,284,2,2,6,['k'],['k'],Y,N,None,Y,,,,,,,m,20,
19,0,285,6,6,6,['d'],['d'],Y,N,None,Y,,,,,,,m,20,
19,1,286,9,9,6,['d'],['d'],Y,Y,['space'],Y,,,,,,,m,20,
19,2,287,4,4,6,['d'],['d'],Y,Y,['space'],Y,,,,,,,m,20,
19,3,288,0,0,6,['d'],['d'],Y,N,None,Y,,,,,,,m,20,
19,4,289,4,4,6,['k'],['k'],Y,N,None,Y,,,,,,,m,20,
19,5,290,10,10,6,['d'],['d'],Y,N,None,Y,,,,,,,m,20,
19,6,291,4,4,6,['k'],['k'],Y,Y,['space'],Y,,,,,,,m,20,
19,7,292,10,10,6,['k'],['k'],Y,N,None,Y,,,,,,,m,20,
19,8,293,6,6,6,['d'],['d'],Y,Y,['space'],Y,,,,,,,m,20,
19,9,294,7,7,6,['d'],['d'],Y,Y,['space'],Y,,,,,,,m,20,
19,10,295,13,13,6,['k'],['k'],Y,Y,['space'],Y,,,,,,,m,20,
19,11,296,9,9,6,['k'],['k'],Y,N,None,Y,,,,,,,m,20,
19,12,297,10,10,6,['k'],['k'],Y,N,None,Y,,,,,,,m,20,
19,13,298,8,8,6,['d'],['d'],Y,N,None,Y,,,,,,,m,20,
19,14,299,4,4,6,['d'],['d'],Y,N,None,Y,46,42,25,,,,m,20,
20,0,300,9,9,7,['d'],['d'],Y,,,,,,,,,,m,20,
20,1,301,8,8,7,['d'],['d'],Y,,,,,,,,,,m,20,
20,2,302,1,1,7,['k'],['k'],Y,Y,['space'],Y,,,,,,,m,20,
20,3,303,6,6,7,['k'],['k'],Y,N,None,Y,,,,,,,m,20,
20,4,304,5,5,7,['k'],['k'],Y,N,None,Y,,,,,,,m,20,
20,5,305,13,13,7,['k'],['k'],Y,Y,['space'],Y,,,,,,,m,20,
20,6,306,6,6,7,['k'],['k'],Y,Y,['space'],Y,,,,,,,m,20,
20,7,307,3,3,7,['k'],['k'],Y,Y,['space'],Y,,,,,,,m,20,
20,8,308,2,2,7,['d'],['d'],Y,N,None,Y,,,,,,,m,20,
20,9,309,12,12,7,['k'],['k'],Y,N,None,Y,,,,,,,m,20,
20,10,310,4,4,7,['d'],['d'],Y,N,None,Y,,,,,,,m,20,
20,11,311,10,10,7,['k'],['k'],Y,Y,['space'],Y,,,,,,,m,20,
20,12,312,9,9,7,['d'],['d'],Y,N,None,Y,,,,,,,m,20,
20,13,313,3,3,7,['k'],['k'],Y,Y,['space'],Y,,,,,,,m,20,
20,14,314,2,2,7,['d'],['d'],Y,Y,['space'],Y,,,,,,,m,20,
21,0,315,11,11,7,['k'],['k'],Y,N,None,Y,,,,,,,m,20,
21,1,316,11,11,7,['d'],['d'],Y,Y,['space'],Y,,,,,,,m,20,
21,2,317,5,5,7,['d'],['d'],Y,N,None,Y,,,,,,,m,20,
21,3,318,3,3,7,['d'],['d'],Y,N,None,Y,,,,,,,m,20,
21,4,319,10,10,7,['k'],['k'],Y,N,None,Y,,,,,,,m,20,
21,5,320,12,12,7,['k'],['k'],Y,N,None,Y,,,,,,,m,20,
21,6,321,5,5,7,['k'],['k'],Y,N,None,Y,,,,,,,m,20,
21,7,322,5,5,7,['d'],['d'],Y,N,None,Y,,,,,,,m,20,
21,8,323,11,11,7,['d'],['d'],Y,N,None,Y,,,,,,,m,20,
21,9,324,11,11,7,['d'],['d'],Y,N,None,Y,,,,,,,m,20,
21,10,325,5,5,7,['d'],['d'],Y,N,None,Y,,,,,,,m,20,
21,11,326,11,11,7,['k'],['k'],Y,N,None,Y,,,,,,,m,20,
21,12,327,8,8,7,['d'],['d'],Y,Y,['space'],Y,,,,,,,m,20,
21,13,328,1,1,7,['k'],['k'],Y,Y,['space'],Y,,,,,,,m,20,
21,14,329,1,1,7,['d'],['d'],Y,N,None,Y,,,,,,,m,20,
22,0,330,10,10,7,['k'],['k'],Y,N,None,Y,,,,,,,m,20,
22,1,331,5,5,7,['d'],['d'],Y,Y,['space'],Y,,,,,,,m,20,
22,2,332,14,14,7,['k'],['d'],N,N,None,Y,,,,,,,m,20,
22,3,333,4,4,7,['d'],['d'],Y,N,None,Y,,,,,,,m,20,
22,4,334,4,4,7,['k'],['k'],Y,Y,['space'],Y,,,,,,,m,20,
22,5,335,6,6,7,['k'],['k'],Y,N,None,Y,,,,,,,m,20,
22,6,336,12,12,7,['d'],['d'],Y,N,None,Y,,,,,,,m,20,
22,7,337,7,7,7,['k'],['k'],Y,N,None,Y,,,,,,,m,20,
22,8,338,8,8,7,['k'],['k'],Y,Y,['space'],Y,,,,,,,m,20,
22,9,339,0,0,7,['k'],['k'],Y,Y,['space'],Y,,,,,,,m,20,
22,10,340,0,0,7,['d'],['d'],Y,Y,['space'],Y,,,,,,,m,20,
22,11,341,9,9,7,['d'],['d'],Y,Y,['space'],Y,,,,,,,m,20,
22,12,342,13,13,7,['k'],['k'],Y,Y,['space'],Y,,,,,,,m,20,
22,13,343,3,3,7,['d'],['d'],Y,Y,['space'],Y,,,,,,,m,20,
22,14,344,13,13,7,['k'],['k'],Y,N,None,Y,,,,,,,m,20,
23,0,345,10,10,7,['d'],['d'],Y,Y,['space'],Y,,,,,,,m,20,
23,1,346,3,3,7,['d'],['d'],Y,Y,['space'],Y,,,,,,,m,20,
23,2,347,9,9,7,['d'],['d'],Y,N,None,Y,,,,,,,m,20,
23,3,348,5,5,7,['k'],['k'],Y,N,None,Y,,,,,,,m,20,
23,4,349,6,6,7,['k'],['k'],Y,Y,['space'],Y,49,48,21,,,,m,20,
23,5,350,8,8,8,['d'],['d'],Y,,,,,,,,,,m,20,
23,6,351,4,4,8,['d'],['d'],Y,,,,,,,,,,m,20,
23,7,352,10,10,8,['k'],['d'],N,N,None,Y,,,,,,,m,20,
23,8,353,2,2,8,['d'],['k'],N,Y,['space'],Y,,,,,,,m,20,
23,9,354,6,6,8,['d'],['d'],Y,Y,['space'],Y,,,,,,,m,20,
23,10,355,10,10,8,['d'],['d'],Y,Y,['space'],Y,,,,,,,m,20,
23,11,356,13,13,8,['d'],['d'],Y,N,None,Y,,,,,,,m,20,
23,12,357,4,4,8,['k'],['k'],Y,N,None,Y,,,,,,,m,20,
23,13,358,10,10,8,['k'],['k'],Y,N,None,Y,,,,,,,m,20,
23,14,359,3,3,8,['k'],['k'],Y,Y,['space'],Y,,,,,,,m,20,
24,0,360,8,8,8,['d'],['d'],Y,Y,['d'],N,,,,,,,m,20,
24,1,361,9,9,8,['d'],['d'],Y,Y,['k'],N,,,,,,,m,20,
24,2,362,13,13,8,['k'],['k'],Y,N,None,Y,,,,,,,m,20,
24,3,363,3,3,8,['d'],['d'],Y,Y,['space'],Y,,,,,,,m,20,
24,4,364,1,1,8,['d'],['d'],Y,Y,['space'],Y,,,,,,,m,20,
24,5,365,8,8,8,['k'],['k'],Y,Y,['space'],Y,,,,,,,m,20,
24,6,366,2,2,8,['d'],['d'],Y,Y,['space'],Y,,,,,,,m,20,
24,7,367,2,2,8,['k'],['k'],Y,N,None,Y,,,,,,,m,20,
24,8,368,5,5,8,['d'],['d'],Y,Y,['space'],Y,,,,,,,m,20,
24,9,369,7,7,8,['d'],['d'],Y,Y,['space'],Y,,,,,,,m,20,
24,10,370,7,7,8,['d'],['d'],Y,Y,['space'],Y,,,,,,,m,20,
24,11,371,7,7,8,['d'],['k'],N,Y,['space'],Y,,,,,,,m,20,
24,12,372,10,10,8,['k'],['k'],Y,N,None,Y,,,,,,,m,20,
24,13,373,13,13,8,['d'],['d'],Y,Y,None,N,,,,,,,m,20,
24,14,374,9,9,8,['k'],['k'],Y,N,None,Y,,,,,,,m,20,
25,0,375,13,13,8,['k'],['k'],Y,N,None,Y,,,,,,,m,20,
25,1,376,3,3,8,['k'],['k'],Y,Y,['space'],Y,,,,,,,m,20,
25,2,377,9,9,8,['d'],['d'],Y,Y,['space'],Y,,,,,,,m,20,
25,3,378,4,4,8,['k'],['k'],Y,Y,['space'],Y,,,,,,,m,20,
25,4,379,7,7,8,['d'],['d'],Y,N,None,Y,,,,,,,m,20,
25,5,380,14,14,8,['d'],['d'],Y,N,None,Y,,,,,,,m,20,
25,6,381,13,13,8,['k'],['k'],Y,Y,['space'],Y,,,,,,,m,20,
25,7,382,0,0,8,['k'],['k'],Y,Y,['space'],Y,,,,,,,m,20,
25,8,383,10,10,8,['k'],['k'],Y,Y,['space'],Y,,,,,,,m,20,
25,9,384,3,3,8,['k'],['k'],Y,Y,['space'],Y,,,,,,,m,20,
25,10,385,10,10,8,['d'],['d'],Y,N,None,Y,,,,,,,m,20,
25,11,386,5,5,8,['k'],['k'],Y,N,None,Y,,,,,,,m,20,
25,12,387,5,5,8,['d'],['d'],Y,N,None,Y,,,,,,,m,20,
25,13,388,8,8,8,['d'],['d'],Y,N,None,Y,,,,,,,m,20,
25,14,389,11,11,8,['k'],['k'],Y,N,None,Y,,,,,,,m,20,
26,0,390,9,9,8,['d'],['d'],Y,N,None,Y,,,,,,,m,20,
26,1,391,13,13,8,['k'],['k'],Y,N,None,Y,,,,,,,m,20,
26,2,392,9,9,8,['k'],['k'],Y,Y,['space'],Y,,,,,,,m,20,
26,3,393,5,5,8,['d'],['d'],Y,Y,['space'],Y,,,,,,,m,20,
26,4,394,6,6,8,['d'],['d'],Y,N,None,Y,,,,,,,m,20,
26,5,395,2,2,8,['k'],['k'],Y,Y,None,N,,,,,,,m,20,
26,6,396,3,3,8,['d'],['d'],Y,N,None,Y,,,,,,,m,20,
26,7,397,11,11,8,['d'],['d'],Y,N,None,Y,,,,,,,m,20,
26,8,398,4,4,8,['k'],['k'],Y,N,None,Y,,,,,,,m,20,
26,9,399,8,8,8,['k'],['k'],Y,N,['space'],N,47,43,25,,,,m,20,
26,10,400,6,6,9,['d'],['d'],Y,,,,,,,,,,m,20,
26,11,401,11,11,9,['d'],['d'],Y,,,,,,,,,,m,20,
26,12,402,2,2,9,['d'],['d'],Y,Y,['space'],Y,,,,,,,m,20,
26,13,403,3,3,9,['d'],['d'],Y,N,None,Y,,,,,,,m,20,
26,14,404,3,3,9,['d'],['d'],Y,Y,['space'],Y,,,,,,,m,20,
27,0,405,7,7,9,['d'],['d'],Y,N,None,Y,,,,,,,m,20,
27,1,406,2,2,9,['d'],['d'],Y,Y,['space'],Y,,,,,,,m,20,
27,2,407,2,2,9,['d'],['d'],Y,N,None,Y,,,,,,,m,20,
27,3,408,4,4,9,['k'],['k'],Y,Y,['space'],Y,,,,,,,m,20,
27,4,409,7,7,9,['d'],['d'],Y,N,['space'],N,,,,,,,m,20,
27,5,410,8,8,9,['d'],['d'],Y,N,None,Y,,,,,,,m,20,
27,6,411,5,5,9,['k'],['k'],Y,N,None,Y,,,,,,,m,20,
27,7,412,1,1,9,['d'],['d'],Y,Y,['space'],Y,,,,,,,m,20,
27,8,413,7,7,9,['k'],['d'],N,N,None,Y,,,,,,,m,20,
27,9,414,13,13,9,['d'],['k'],N,Y,['d'],N,,,,,,,m,20,
27,10,415,14,14,9,['d'],['d'],Y,Y,['space'],Y,,,,,,,m,20,
27,11,416,9,9,9,['k'],['k'],Y,Y,['space'],Y,,,,,,,m,20,
27,12,417,7,7,9,['k'],['k'],Y,Y,['space'],Y,,,,,,,m,20,
27,13,418,14,14,9,['d'],['d'],Y,N,None,Y,,,,,,,m,20,
27,14,419,10,10,9,['k'],['k'],Y,N,None,Y,,,,,,,m,20,
28,0,420,6,6,9,['d'],['d'],Y,N,None,Y,,,,,,,m,20,
28,1,421,2,2,9,['k'],['k'],Y,Y,['space'],Y,,,,,,,m,20,
28,2,422,0,0,9,['d'],['d'],Y,N,None,Y,,,,,,,m,20,
28,3,423,0,0,9,['d'],['d'],Y,Y,['space'],Y,,,,,,,m,20,
28,4,424,2,2,9,['d'],['d'],Y,N,['space'],N,,,,,,,m,20,
28,5,425,10,10,9,['d'],['d'],Y,N,None,Y,,,,,,,m,20,
28,6,426,14,14,9,['k'],['k'],Y,N,None,Y,,,,,,,m,20,
28,7,427,1,1,9,['d'],['d'],Y,N,None,Y,,,,,,,m,20,
28,8,428,10,10,9,['k'],['k'],Y,N,None,Y,,,,,,,m,20,
28,9,429,6,6,9,['k'],['k'],Y,N,None,Y,,,,,,,m,20,
28,10,430,12,12,9,['d'],['d'],Y,Y,['space'],Y,,,,,,,m,20,
28,11,431,8,8,9,['k'],['k'],Y,N,None,Y,,,,,,,m,20,
28,12,432,14,14,9,['k'],['k'],Y,Y,['space'],Y,,,,,,,m,20,
28,13,433,5,5,9,['k'],['k'],Y,Y,['space'],Y,,,,,,,m,20,
28,14,434,12,12,9,['d'],['d'],Y,Y,['space'],Y,,,,,,,m,20,
29,0,435,0,0,9,['k'],['k'],Y,Y,['space'],Y,,,,,,,m,20,
29,1,436,11,11,9,['k'],['k'],Y,Y,['space'],Y,,,,,,,m,20,
29,2,437,6,6,9,['d'],['d'],Y,Y,['space'],Y,,,,,,,m,20,
29,3,438,2,2,9,['k'],['k'],Y,Y,['space'],Y,,,,,,,m,20,
29,4,439,14,14,9,['k'],['k'],Y,N,None,Y,,,,,,,m,20,
29,5,440,11,11,9,['d'],['d'],Y,N,None,Y,,,,,,,m,20,
29,6,441,12,12,9,['k'],['k'],Y,N,None,Y,,,,,,,m,20,
29,7,442,2,2,9,['k'],['k'],Y,Y,['space'],Y,,,,,,,m,20,
29,8,443,1,1,9,['d'],['d'],Y,N,None,Y,,,,,,,m,20,
29,9,444,14,14,9,['k'],['k'],Y,Y,['space'],Y,,,,,,,m,20,
29,10,445,10,10,9,['d'],['d'],Y,Y,['space'],Y,,,,,,,m,20,
29,11,446,12,12,9,['d'],['d'],Y,Y,['space'],Y,,,,,,,m,20,
29,12,447,6,6,9,['d'],['d'],Y,Y,['k'],N,,,,,,,m,20,
29,13,448,8,8,9,['k'],['k'],Y,Y,['space'],Y,,,,,,,m,20,
29,14,449,1,1,9,['k'],['k'],Y,N,None,Y,48,44,25,,,,m,20,
30,0,450,1,1,10,['d'],['d'],Y,,,,,,,,,,m,20,
30,1,451,9,9,10,['k'],['k'],Y,,,,,,,,,,m,20,
30,2,452,9,9,10,['d'],['d'],Y,Y,['space'],Y,,,,,,,m,20,
30,3,453,4,4,10,['k'],['k'],Y,N,None,Y,,,,,,,m,20,
30,4,454,8,8,10,['k'],['k'],Y,N,None,Y,,,,,,,m,20,
30,5,455,11,11,10,['k'],['k'],Y,N,None,Y,,,,,,,m,20,
30,6,456,1,1,10,['d'],['d'],Y,Y,['space'],Y,,,,,,,m,20,
30,7,457,14,14,10,['d'],['d'],Y,Y,None,N,,,,,,,m,20,
30,8,458,14,14,10,['k'],['k'],Y,Y,['space'],Y,,,,,,,m,20,
30,9,459,5,5,10,['k'],['k'],Y,N,None,Y,,,,,,,m,20,
30,10,460,9,9,10,['k'],['k'],Y,N,None,Y,,,,,,,m,20,
30,11,461,10,10,10,['d'],['d'],Y,Y,['space'],Y,,,,,,,m,20,
30,12,462,14,14,10,['k'],['k'],Y,Y,None,N,,,,,,,m,20,
30,13,463,13,13,10,['d'],['d'],Y,Y,['space'],Y,,,,,,,m,20,
30,14,464,12,12,10,['d'],['d'],Y,N,None,Y,,,,,,,m,20,
31,0,465,3,3,10,['d'],['d'],Y,Y,['d'],N,,,,,,,m,20,
31,1,466,7,7,10,['d'],['d'],Y,Y,['space'],Y,,,,,,,m,20,
31,2,467,0,0,10,['d'],['d'],Y,Y,['space'],Y,,,,,,,m,20,
31,3,468,13,13,10,['k'],['k'],Y,Y,['space'],Y,,,,,,,m,20,
31,4,469,5,5,10,['k'],['k'],Y,Y,['space'],Y,,,,,,,m,20,
31,5,470,10,10,10,['k'],['k'],Y,N,None,Y,,,,,,,m,20,
31,6,471,0,0,10,['d'],['d'],Y,Y,['space'],Y,,,,,,,m,20,
31,7,472,8,8,10,['d'],['d'],Y,N,None,Y,,,,,,,m,20,
31,8,473,3,3,10,['d'],['d'],Y,N,None,Y,,,,,,,m,20,
31,9,474,7,7,10,['d'],['d'],Y,N,None,Y,,,,,,,m,20,
31,10,475,2,2,10,['k'],['k'],Y,Y,['space'],Y,,,,,,,m,20,
31,11,476,8,8,10,['d'],['d'],Y,N,None,Y,,,,,,,m,20,
31,12,477,3,3,10,['d'],['d'],Y,N,None,Y,,,,,,,m,20,
31,13,478,7,7,10,['k'],['k'],Y,Y,['space'],Y,,,,,,,m,20,
31,14,479,10,10,10,['d'],['d'],Y,Y,['space'],Y,,,,,,,m,20,
32,0,480,1,1,10,['d'],['d'],Y,N,None,Y,,,,,,,m,20,
32,1,481,13,13,10,['d'],['d'],Y,Y,['space'],Y,,,,,,,m,20,
32,2,482,8,8,10,['d'],['d'],Y,Y,['space'],Y,,,,,,,m,20,
32,3,483,10,10,10,['k'],['k'],Y,N,None,Y,,,,,,,m,20,
32,4,484,2,2,10,['d'],['k'],N,Y,['space'],Y,,,,,,,m,20,
32,5,485,8,8,10,['k'],['k'],Y,Y,['space'],Y,,,,,,,m,20,
32,6,486,8,8,10,['d'],['d'],Y,N,None,Y,,,,,,,m,20,
32,7,487,7,7,10,['k'],['k'],Y,N,None,Y,,,,,,,m,20,
32,8,488,7,7,10,['d'],['d'],Y,Y,['space'],Y,,,,,,,m,20,
32,9,489,12,12,10,['k'],['k'],Y,Y,None,N,,,,,,,m,20,
32,10,490,1,1,10,['d'],['d'],Y,N,None,Y,,,,,,,m,20,
32,11,491,13,13,10,['k'],['k'],Y,N,None,Y,,,,,,,m,20,
32,12,492,8,8,10,['d'],['d'],Y,N,None,Y,,,,,,,m,20,
32,13,493,9,9,10,['k'],['k'],Y,N,None,Y,,,,,,,m,20,
32,14,494,14,14,10,['k'],['k'],Y,N,None,Y,,,,,,,m,20,
33,0,495,3,3,10,['k'],['k'],Y,N,None,Y,,,,,,,m,20,
33,1,496,6,6,10,['k'],['k'],Y,Y,['space'],Y,,,,,,,m,20,
33,2,497,7,7,10,['k'],['k'],Y,Y,['space'],Y,,,,,,,m,20,
33,3,498,11,11,10,['k'],['k'],Y,N,None,Y,,,,,,,m,20,
33,4,499,10,10,10,['d'],['d'],Y,N,None,Y,49,44,24,,,,m,20,
33,5,500,2,2,11,['d'],['k'],Y,,,,,,,Y,Y,Y,m,20,
33,6,501,13,13,11,['d'],['k'],Y,,,,,,,,Y,Y,m,20,
33,7,502,9,9,11,['k'],['d'],Y,Y,['space'],Y,,,,,Y,Y,m,20,
33,8,503,0,0,11,['d'],['k'],Y,Y,['space'],Y,,,,,Y,Y,m,20,
33,9,504,13,13,11,['k'],['d'],Y,Y,['space'],Y,,,,,Y,Y,m,20,
33,10,505,3,3,11,['k'],['d'],Y,N,None,Y,,,,,Y,Y,m,20,
33,11,506,7,7,11,['d'],['d'],N,N,None,Y,,,,,Y,Y,m,20,
33,12,507,7,7,11,['d'],['k'],Y,Y,['space'],Y,,,,,Y,Y,m,20,
33,13,508,14,14,11,['k'],['d'],Y,Y,['space'],Y,,,,,Y,Y,m,20,
33,14,509,6,6,11,['k'],['d'],Y,Y,['space'],Y,,,,,Y,Y,m,20,
34,0,510,11,11,11,['k'],['d'],Y,N,None,Y,,,,,Y,Y,m,20,
34,1,511,4,4,11,['k'],['k'],N,Y,['space'],Y,,,,,Y,Y,m,20,
34,2,512,7,7,11,['k'],['d'],Y,N,['space'],N,,,,,Y,Y,m,20,
34,3,513,7,7,11,['d'],['k'],Y,N,None,Y,,,,,Y,Y,m,20,
34,4,514,9,9,11,['k'],['d'],Y,N,None,Y,,,,,Y,Y,m,20,
34,5,515,8,8,11,['d'],['k'],Y,N,None,Y,,,,,Y,Y,m,20,
34,6,516,3,3,11,['k'],['d'],Y,N,None,Y,,,,,Y,Y,m,20,
34,7,517,1,1,11,['d'],['k'],Y,Y,['space'],Y,,,,,Y,Y,m,20,
34,8,518,11,11,11,['k'],['d'],Y,N,None,Y,,,,,Y,Y,m,20,
34,9,519,7,7,11,None,,Timed out,Y,['space'],Y,,,,,Y,Y,m,20,
34,10,520,4,4,11,['k'],['d'],Y,N,None,Y,,,,,Y,Y,m,20,
34,11,521,3,3,11,['k'],['d'],Y,Y,['space'],Y,,,,,Y,Y,m,20,
34,12,522,2,2,11,['k'],['d'],Y,Y,['space'],Y,,,,,Y,Y,m,20,
34,13,523,12,12,11,['k'],['d'],Y,Y,['space'],Y,,,,,Y,Y,m,20,
34,14,524,4,4,11,['d'],['k'],Y,N,None,Y,,,,,Y,Y,m,20,
35,0,525,13,13,11,['d'],['d'],N,Y,['space'],Y,,,,,Y,Y,m,20,
35,1,526,2,2,11,['d'],['k'],Y,N,None,Y,,,,,Y,Y,m,20,
35,2,527,1,1,11,['k'],['d'],Y,Y,['space'],Y,,,,,Y,Y,m,20,
35,3,528,6,6,11,['d'],['k'],Y,Y,['space'],Y,,,,,Y,Y,m,20,
35,4,529,6,6,11,['k'],['d'],Y,N,None,Y,,,,,Y,Y,m,20,
35,5,530,6,6,11,['d'],['k'],Y,Y,['space'],Y,,,,,Y,Y,m,20,
35,6,531,0,0,11,['d'],['k'],Y,N,None,Y,,,,,Y,Y,m,20,
35,7,532,2,2,11,['k'],['k'],N,N,None,Y,,,,,Y,Y,m,20,
35,8,533,14,14,11,['d'],['k'],Y,N,None,Y,,,,,Y,Y,m,20,
35,9,534,3,3,11,['k'],['d'],Y,Y,['d'],N,,,,,Y,Y,m,20,
35,10,535,1,1,11,['k'],['d'],Y,N,None,Y,,,,,Y,Y,m,20,
35,11,536,9,9,11,['k'],['d'],Y,N,None,Y,,,,,Y,Y,m,20,
35,12,537,11,11,11,['d'],['k'],Y,Y,['space'],Y,,,,,Y,Y,m,20,
35,13,538,12,12,11,['d'],['k'],Y,Y,['space'],Y,,,,,Y,Y,m,20,
35,14,539,0,0,11,['d'],['k'],Y,Y,['space'],Y,,,,,Y,Y,m,20,
36,0,540,0,0,11,['d'],['k'],Y,Y,['space'],Y,,,,,Y,Y,m,20,
36,1,541,13,13,11,['d'],['k'],Y,Y,['space'],Y,,,,,Y,Y,m,20,
36,2,542,8,8,11,['d'],['k'],Y,N,None,Y,,,,,Y,Y,m,20,
36,3,543,1,1,11,['k'],['d'],Y,N,None,Y,,,,,Y,Y,m,20,
36,4,544,14,14,11,['k'],['d'],Y,Y,['space'],Y,,,,,Y,Y,m,20,
36,5,545,3,3,11,['k'],['d'],Y,N,None,Y,,,,,Y,Y,m,20,
36,6,546,0,0,11,['d'],['k'],Y,N,None,Y,,,,,Y,Y,m,20,
36,7,547,9,9,11,['d'],['k'],Y,Y,['space'],Y,,,,,Y,Y,m,20,
36,8,548,1,1,11,['d'],['k'],Y,Y,['space'],Y,,,,,Y,Y,m,20,
36,9,549,5,5,11,['d'],['k'],Y,N,None,Y,45,46,25,,Y,Y,m,20,
36,10,550,10,10,12,['d'],['k'],Y,,,,,,,,Y,Y,m,20,
36,11,551,1,1,12,['d'],['k'],Y,,,,,,,,Y,Y,m,20,
36,12,552,10,10,12,['k'],['d'],Y,Y,None,N,,,,,Y,Y,m,20,
36,13,553,3,3,12,['k'],['d'],Y,Y,['space'],Y,,,,,Y,Y,m,20,
36,14,554,8,8,12,['k'],['d'],Y,N,None,Y,,,,,Y,Y,m,20,
37,0,555,7,7,12,['k'],['d'],Y,N,None,Y,,,,,Y,Y,m,20,
37,1,556,1,1,12,['d'],['k'],Y,N,['space'],N,,,,,Y,Y,m,20,
37,2,557,11,11,12,['k'],['d'],Y,N,['space'],N,,,,,Y,Y,m,20,
37,3,558,7,7,12,['d'],['k'],Y,N,None,Y,,,,,Y,Y,m,20,
37,4,559,7,7,12,None,,Timed out,N,['space'],N,,,,,Y,Y,m,20,
37,5,560,7,7,12,['d'],['k'],Y,Y,['space'],Y,,,,,Y,Y,m,20,
37,6,561,3,3,12,['d'],['k'],Y,Y,['space'],Y,,,,,Y,Y,m,20,
37,7,562,4,4,12,['k'],['d'],Y,N,None,Y,,,,,Y,Y,m,20,
37,8,563,8,8,12,['d'],['d'],N,N,None,Y,,,,,Y,Y,m,20,
37,9,564,4,4,12,['d'],['d'],N,Y,['space'],Y,,,,,Y,Y,m,20,
37,10,565,9,9,12,['k'],['d'],Y,N,None,Y,,,,,Y,Y,m,20,
37,11,566,5,5,12,['d'],['k'],Y,Y,['space'],Y,,,,,Y,Y,m,20,
37,12,567,10,10,12,['k'],['d'],Y,N,None,Y,,,,,Y,Y,m,20,
37,13,568,13,13,12,['d'],['k'],Y,Y,['space'],Y,,,,,Y,Y,m,20,
37,14,569,8,8,12,['d'],['k'],Y,N,None,Y,,,,,Y,Y,m,20,
38,0,570,1,1,12,['d'],['k'],Y,Y,['space'],Y,,,,,Y,Y,m,20,
38,1,571,13,13,12,['k'],['d'],Y,N,None,Y,,,,,Y,Y,m,20,
38,2,572,14,14,12,['d'],['d'],N,Y,['space'],Y,,,,,Y,Y,m,20,
38,3,573,14,14,12,['k'],['d'],Y,N,None,Y,,,,,Y,Y,m,20,
38,4,574,0,0,12,['k'],['k'],N,Y,['space'],Y,,,,,Y,Y,m,20,
38,5,575,1,1,12,['k'],['k'],N,N,None,Y,,,,,Y,Y,m,20,
38,6,576,1,1,12,['k'],['d'],Y,Y,['space'],Y,,,,,Y,Y,m,20,
38,7,577,8,8,12,['d'],['k'],Y,N,None,Y,,,,,Y,Y,m,20,
38,8,578,6,6,12,['d'],['k'],Y,Y,['space'],Y,,,,,Y,Y,m,20,
38,9,579,12,12,12,['k'],['d'],Y,Y,['space'],Y,,,,,Y,Y,m,20,
38,10,580,8,8,12,['d'],['k'],Y,Y,['space'],Y,,,,,Y,Y,m,20,
38,11,581,11,11,12,['d'],['k'],Y,Y,['space'],Y,,,,,Y,Y,m,20,
38,12,582,14,14,12,['k'],['d'],Y,Y,['space'],Y,,,,,Y,Y,m,20,
38,13,583,4,4,12,['d'],['k'],Y,Y,['space'],Y,,,,,Y,Y,m,20,
38,14,584,12,12,12,['k'],['d'],Y,N,None,Y,,,,,Y,Y,m,20,
39,0,585,6,6,12,['d'],['d'],N,Y,['space'],Y,,,,,Y,Y,m,20,
39,1,586,0,0,12,['d'],['k'],Y,Y,None,N,,,,,Y,Y,m,20,
39,2,587,12,12,12,['d'],['k'],Y,Y,['space'],Y,,,,,Y,Y,m,20,
39,3,588,1,1,12,['k'],['d'],Y,N,None,Y,,,,,Y,Y,m,20,
39,4,589,1,1,12,['d'],['k'],Y,Y,['space'],Y,,,,,Y,Y,m,20,
39,5,590,7,7,12,['k'],['d'],Y,Y,['space'],Y,,,,,Y,Y,m,20,
39,6,591,10,10,12,['d'],['k'],Y,N,None,Y,,,,,Y,Y,m,20,
39,7,592,12,12,12,['k'],['d'],Y,N,None,Y,,,,,Y,Y,m,20,
39,8,593,8,8,12,['k'],['d'],Y,N,None,Y,,,,,Y,Y,m,20,
39,9,594,7,7,12,['k'],['d'],Y,N,None,Y,,,,,Y,Y,m,20,
39,10,595,1,1,12,['d'],['k'],Y,N,None,Y,,,,,Y,Y,m,20,
39,11,596,2,2,12,['d'],['k'],Y,N,None,Y,,,,,Y,Y,m,20,
39,12,597,4,4,12,['k'],['d'],Y,Y,['space'],Y,,,,,Y,Y,m,20,
39,13,598,1,1,12,['k'],['d'],Y,Y,['space'],Y,,,,,Y,Y,m,20,
39,14,599,4,4,12,['k'],['d'],Y,N,None,Y,43,43,24,,Y,Y,m,20,
