.thisRepN,.thisTrialN,.thisN,.thisIndex,.thisTrial,Block Number,Key pressed,Category,Correct?,Int Match?,Int Response,Int Correct?,Line Accuracy,Interference Accuracy,Matching Interferences,New instruction shown?,Buttons switched?,Fast?,gender,age,
0,0,0,11,11,1,['k'],['d'],N,,,,,,,,,,Male,20,
0,1,1,1,1,1,['k'],['d'],N,,,,,,,,,,Male,20,
0,2,2,10,10,1,['d'],['d'],Y,Y,None,N,,,,,,,Male,20,
0,3,3,3,3,1,['d'],['k'],N,N,None,Y,,,,,,,Male,20,
0,4,4,0,0,1,['d'],['d'],Y,Y,['space'],Y,,,,,,,Male,20,
0,5,5,1,1,1,['d'],['d'],Y,N,None,Y,,,,,,,Male,20,
0,6,6,7,7,1,['k'],['k'],Y,Y,['space'],Y,,,,,,,Male,20,
0,7,7,14,14,1,['d'],['d'],Y,Y,None,N,,,,,,,Male,20,
0,8,8,10,10,1,['k'],['d'],N,Y,['space'],Y,,,,,,,Male,20,
0,9,9,2,2,1,['d'],['d'],Y,Y,None,N,,,,,,,Male,20,
0,10,10,6,6,1,['d'],['k'],N,Y,None,N,,,,,,,Male,20,
0,11,11,13,13,1,['d'],['d'],Y,Y,None,N,,,,,,,Male,20,
0,12,12,9,9,1,['k'],['k'],Y,N,None,Y,,,,,,,Male,20,
0,13,13,5,5,1,['k'],['d'],N,N,['space'],N,,,,,,,Male,20,
0,14,14,4,4,1,['d'],['d'],Y,Y,None,N,,,,,,,Male,20,
1,0,15,11,11,1,['k'],['d'],N,N,['space'],N,,,,,,,Male,20,
1,1,16,6,6,1,['d'],['k'],N,Y,['space'],Y,,,,,,,Male,20,
1,2,17,0,0,1,['k'],['k'],Y,N,None,Y,,,,,,,Male,20,
1,3,18,7,7,1,['d'],['d'],Y,N,['space'],N,,,,,,,Male,20,
1,4,19,13,13,1,['d'],['k'],N,N,['space'],N,,,,,,,Male,20,
1,5,20,2,2,1,['k'],['d'],N,Y,None,N,,,,,,,Male,20,
1,6,21,3,3,1,['d'],['k'],N,N,['d'],N,,,,,,,Male,20,
1,7,22,14,14,1,['d'],['k'],N,N,['space'],N,,,,,,,Male,20,
1,8,23,14,14,1,['k'],['k'],Y,N,None,Y,,,,,,,Male,20,
1,9,24,8,8,1,['k'],['k'],Y,Y,None,N,,,,,,,Male,20,
1,10,25,3,3,1,['d'],['k'],N,N,None,Y,,,,,,,Male,20,
1,11,26,8,8,1,['k'],['k'],Y,N,['space'],N,,,,,,,Male,20,
1,12,27,14,14,1,['d'],['d'],Y,N,None,Y,,,,,,,Male,20,
1,13,28,12,12,1,['k'],['k'],Y,Y,None,N,,,,,,,Male,20,
1,14,29,13,13,1,['d'],['d'],Y,Y,None,N,,,,,,,Male,20,
2,0,30,11,11,1,['k'],['d'],N,Y,['space'],Y,,,,,,,Male,20,
2,1,31,13,13,1,['d'],['k'],N,Y,None,N,,,,,,,Male,20,
2,2,32,6,6,1,['k'],['d'],N,Y,['space'],Y,,,,,,,Male,20,
2,3,33,6,6,1,['d'],['k'],N,Y,None,N,,,,,,,Male,20,
2,4,34,6,6,1,['k'],['d'],N,N,['space'],N,,,,,,,Male,20,
2,5,35,12,12,1,['k'],['d'],N,N,None,Y,,,,,,,Male,20,
2,6,36,6,6,1,['d'],['k'],N,Y,None,N,,,,,,,Male,20,
2,7,37,1,1,1,['d'],['k'],N,N,None,Y,,,,,,,Male,20,
2,8,38,13,13,1,['k'],['k'],Y,Y,None,N,,,,,,,Male,20,
2,9,39,14,14,1,['d'],['d'],Y,N,['space'],N,,,,,,,Male,20,
2,10,40,5,5,1,['d'],['k'],N,Y,['space'],Y,,,,,,,Male,20,
2,11,41,1,1,1,['k'],['k'],Y,N,['space'],N,,,,,,,Male,20,
2,12,42,14,14,1,['d'],['d'],Y,Y,None,N,,,,,,,Male,20,
2,13,43,0,0,1,['k'],['d'],N,N,None,Y,,,,,,,Male,20,
2,14,44,8,8,1,['k'],['d'],N,N,['space'],N,,,,,,,Male,20,
3,0,45,4,4,1,['d'],['d'],Y,Y,None,N,,,,,,,Male,20,
3,1,46,11,11,1,['d'],['k'],N,N,None,Y,,,,,,,Male,20,
3,2,47,3,3,1,['d'],['d'],Y,N,None,Y,,,,,,,Male,20,
3,3,48,1,1,1,['k'],['k'],Y,Y,None,N,,,,,,,Male,20,
3,4,49,9,9,1,['k'],['k'],Y,Y,None,N,25,19,25,,,,Male,20,
3,5,50,11,11,2,['d'],['k'],N,,,,,,,,,,Male,20,
3,6,51,7,7,2,['d'],['d'],Y,,,,,,,,,,Male,20,
3,7,52,8,8,2,['k'],['k'],Y,Y,['space'],Y,,,,,,,Male,20,
3,8,53,8,8,2,['k'],['d'],N,Y,None,N,,,,,,,Male,20,
3,9,54,2,2,2,['d'],['d'],Y,Y,None,N,,,,,,,Male,20,
3,10,55,6,6,2,['k'],['d'],N,Y,None,N,,,,,,,Male,20,
3,11,56,14,14,2,['d'],['d'],Y,Y,None,N,,,,,,,Male,20,
3,12,57,0,0,2,['k'],['k'],Y,Y,['space'],Y,,,,,,,Male,20,
3,13,58,14,14,2,['d'],['k'],N,Y,None,N,,,,,,,Male,20,
3,14,59,14,14,2,['k'],['d'],N,N,['space'],N,,,,,,,Male,20,
4,0,60,4,4,2,['d'],['d'],Y,Y,['space'],Y,,,,,,,Male,20,
4,1,61,7,7,2,['k'],['d'],N,Y,None,N,,,,,,,Male,20,
4,2,62,12,12,2,['k'],['k'],Y,N,None,Y,,,,,,,Male,20,
4,3,63,9,9,2,['d'],['d'],Y,Y,['space'],Y,,,,,,,Male,20,
4,4,64,6,6,2,['d'],['k'],N,N,['space'],N,,,,,,,Male,20,
4,5,65,3,3,2,['k'],['k'],Y,Y,None,N,,,,,,,Male,20,
4,6,66,2,2,2,['d'],['d'],Y,Y,None,N,,,,,,,Male,20,
4,7,67,9,9,2,['d'],['d'],Y,N,['space'],N,,,,,,,Male,20,
4,8,68,9,9,2,['k'],['d'],N,Y,['k'],N,,,,,,,Male,20,
4,9,69,13,13,2,['d'],['k'],N,N,None,Y,,,,,,,Male,20,
4,10,70,3,3,2,['k'],['d'],N,N,['space'],N,,,,,,,Male,20,
4,11,71,8,8,2,['k'],['d'],N,Y,['space'],Y,,,,,,,Male,20,
4,12,72,11,11,2,['d'],['d'],Y,N,['space'],N,,,,,,,Male,20,
4,13,73,1,1,2,['k'],['d'],N,Y,['space'],Y,,,,,,,Male,20,
4,14,74,4,4,2,['d'],['k'],N,Y,['space'],Y,,,,,,,Male,20,
5,0,75,3,3,2,['k'],['k'],Y,N,None,Y,,,,,,,Male,20,
5,1,76,1,1,2,['k'],['d'],N,N,None,Y,,,,,,,Male,20,
5,2,77,3,3,2,['k'],['k'],Y,N,None,Y,,,,,,,Male,20,
5,3,78,13,13,2,['k'],['k'],Y,Y,None,N,,,,,,,Male,20,
5,4,79,2,2,2,['d'],['d'],Y,Y,['space'],Y,,,,,,,Male,20,
5,5,80,5,5,2,['k'],['k'],Y,N,['space'],N,,,,,,,Male,20,
5,6,81,6,6,2,['k'],['k'],Y,Y,['space'],Y,,,,,,,Male,20,
5,7,82,4,4,2,['d'],['d'],Y,N,None,Y,,,,,,,Male,20,
5,8,83,0,0,2,['k'],['k'],Y,Y,['space'],Y,,,,,,,Male,20,
5,9,84,9,9,2,['k'],['k'],Y,N,None,Y,,,,,,,Male,20,
5,10,85,13,13,2,['d'],['d'],Y,N,None,Y,,,,,,,Male,20,
5,11,86,4,4,2,['k'],['k'],Y,Y,['space'],Y,,,,,,,Male,20,
5,12,87,4,4,2,['d'],['d'],Y,Y,['space'],Y,,,,,,,Male,20,
5,13,88,12,12,2,['k'],['k'],Y,N,None,Y,,,,,,,Male,20,
5,14,89,13,13,2,['d'],['d'],Y,N,['space'],N,,,,,,,Male,20,
6,0,90,1,1,2,['d'],['d'],Y,N,None,Y,,,,,,,Male,20,
6,1,91,11,11,2,['k'],['k'],Y,N,['space'],N,,,,,,,Male,20,
6,2,92,3,3,2,['d'],['d'],Y,Y,None,N,,,,,,,Male,20,
6,3,93,0,0,2,['d'],['d'],Y,Y,None,N,,,,,,,Male,20,
6,4,94,13,13,2,['k'],['d'],N,Y,['space'],Y,,,,,,,Male,20,
6,5,95,5,5,2,['d'],['d'],Y,N,None,Y,,,,,,,Male,20,
6,6,96,2,2,2,['k'],['k'],Y,N,None,Y,,,,,,,Male,20,
6,7,97,12,12,2,['d'],['d'],Y,N,None,Y,,,,,,,Male,20,
6,8,98,13,13,2,['k'],['k'],Y,N,['space'],N,,,,,,,Male,20,
6,9,99,5,5,2,['d'],['d'],Y,N,None,Y,35,27,25,,,,Male,20,
6,10,100,9,9,3,['d'],['d'],Y,,,,,,,,,,Male,20,
6,11,101,0,0,3,['d'],['d'],Y,,,,,,,,,,Male,20,
6,12,102,11,11,3,['k'],['k'],Y,N,None,Y,,,,,,,Male,20,
6,13,103,10,10,3,['d'],['d'],Y,Y,None,N,,,,,,,Male,20,
6,14,104,8,8,3,['k'],['d'],N,N,None,Y,,,,,,,Male,20,
7,0,105,8,8,3,['d'],['d'],Y,Y,['space'],Y,,,,,,,Male,20,
7,1,106,13,13,3,['d'],['d'],Y,Y,['space'],Y,,,,,,,Male,20,
7,2,107,10,10,3,['k'],['k'],Y,N,None,Y,,,,,,,Male,20,
7,3,108,7,7,3,['d'],['d'],Y,Y,['space'],Y,,,,,,,Male,20,
7,4,109,4,4,3,['k'],['k'],Y,Y,['space'],Y,,,,,,,Male,20,
7,5,110,2,2,3,['k'],['k'],Y,Y,None,N,,,,,,,Male,20,
7,6,111,8,8,3,['k'],['d'],N,Y,None,N,,,,,,,Male,20,
7,7,112,3,3,3,['d'],['d'],Y,Y,None,N,,,,,,,Male,20,
7,8,113,3,3,3,['k'],['k'],Y,N,None,Y,,,,,,,Male,20,
7,9,114,7,7,3,['d'],['d'],Y,N,None,Y,,,,,,,Male,20,
7,10,115,2,2,3,['d'],['d'],Y,N,None,Y,,,,,,,Male,20,
7,11,116,7,7,3,['d'],['d'],Y,Y,['space'],Y,,,,,,,Male,20,
7,12,117,8,8,3,['d'],['d'],Y,Y,['space'],Y,,,,,,,Male,20,
7,13,118,12,12,3,['d'],['d'],Y,Y,['space'],Y,,,,,,,Male,20,
7,14,119,5,5,3,['d'],['d'],Y,N,None,Y,,,,,,,Male,20,
8,0,120,0,0,3,['k'],['k'],Y,Y,['space'],Y,,,,,,,Male,20,
8,1,121,9,9,3,['d'],['d'],Y,N,None,Y,,,,,,,Male,20,
8,2,122,9,9,3,['d'],['d'],Y,Y,['space'],Y,,,,,,,Male,20,
8,3,123,2,2,3,['k'],['k'],Y,N,None,Y,,,,,,,Male,20,
8,4,124,4,4,3,['d'],['d'],Y,N,None,Y,,,,,,,Male,20,
8,5,125,14,14,3,['k'],['k'],Y,N,None,Y,,,,,,,Male,20,
8,6,126,1,1,3,['d'],['k'],N,Y,None,N,,,,,,,Male,20,
8,7,127,11,11,3,['k'],['k'],Y,Y,['space'],Y,,,,,,,Male,20,
8,8,128,4,4,3,['k'],['k'],Y,N,None,Y,,,,,,,Male,20,
8,9,129,13,13,3,['d'],['d'],Y,Y,['space'],Y,,,,,,,Male,20,
8,10,130,5,5,3,['k'],['k'],Y,N,['space'],N,,,,,,,Male,20,
8,11,131,7,7,3,['k'],['k'],Y,N,['space'],N,,,,,,,Male,20,
8,12,132,9,9,3,['d'],['d'],Y,N,None,Y,,,,,,,Male,20,
8,13,133,0,0,3,['k'],['k'],Y,N,['space'],N,,,,,,,Male,20,
8,14,134,5,5,3,['k'],['k'],Y,N,None,Y,,,,,,,Male,20,
9,0,135,6,6,3,['d'],['d'],Y,Y,['space'],Y,,,,,,,Male,20,
9,1,136,8,8,3,['d'],['d'],Y,N,['space'],N,,,,,,,Male,20,
9,2,137,5,5,3,['d'],['d'],Y,N,['space'],N,,,,,,,Male,20,
9,3,138,5,5,3,['k'],['k'],Y,Y,['space'],Y,,,,,,,Male,20,
9,4,139,10,10,3,['d'],['d'],Y,Y,['space'],Y,,,,,,,Male,20,
9,5,140,13,13,3,['d'],['d'],Y,N,None,Y,,,,,,,Male,20,
9,6,141,9,9,3,['d'],['d'],Y,Y,['space'],Y,,,,,,,Male,20,
9,7,142,6,6,3,['k'],['k'],Y,Y,None,N,,,,,,,Male,20,
9,8,143,11,11,3,['d'],['d'],Y,Y,['space'],Y,,,,,,,Male,20,
9,9,144,5,5,3,['k'],['d'],N,Y,['space'],Y,,,,,,,Male,20,
9,10,145,8,8,3,['k'],['k'],Y,Y,['space'],Y,,,,,,,Male,20,
9,11,146,13,13,3,['k'],['k'],Y,Y,None,N,,,,,,,Male,20,
9,12,147,0,0,3,['d'],['d'],Y,N,None,Y,,,,,,,Male,20,
9,13,148,14,14,3,['d'],['d'],Y,N,['space'],N,,,,,,,Male,20,
9,14,149,5,5,3,['d'],['d'],Y,N,None,Y,46,35,25,,,,Male,20,
10,0,150,0,0,4,['d'],['d'],Y,,,,,,,,,,Male,20,
10,1,151,10,10,4,['k'],['k'],Y,,,,,,,,,,Male,20,
10,2,152,0,0,4,['k'],['k'],Y,N,None,Y,,,,,,,Male,20,
10,3,153,6,6,4,['k'],['k'],Y,N,None,Y,,,,,,,Male,20,
10,4,154,7,7,4,['k'],['k'],Y,Y,['space'],Y,,,,,,,Male,20,
10,5,155,4,4,4,['d'],['d'],Y,Y,None,N,,,,,,,Male,20,
10,6,156,5,5,4,['k'],['d'],N,N,None,Y,,,,,,,Male,20,
10,7,157,9,9,4,['k'],['k'],Y,N,None,Y,,,,,,,Male,20,
10,8,158,1,1,4,['d'],['d'],Y,Y,['space'],Y,,,,,,,Male,20,
10,9,159,10,10,4,['d'],['d'],Y,Y,['space'],Y,,,,,,,Male,20,
10,10,160,8,8,4,['k'],['k'],Y,N,None,Y,,,,,,,Male,20,
10,11,161,7,7,4,['k'],['k'],Y,N,None,Y,,,,,,,Male,20,
10,12,162,8,8,4,['d'],['d'],Y,N,None,Y,,,,,,,Male,20,
10,13,163,14,14,4,['k'],['d'],N,Y,['space'],Y,,,,,,,Male,20,
10,14,164,8,8,4,['d'],['d'],Y,N,None,Y,,,,,,,Male,20,
11,0,165,13,13,4,['k'],['k'],Y,N,None,Y,,,,,,,Male,20,
11,1,166,13,13,4,['k'],['k'],Y,N,['space'],N,,,,,,,Male,20,
11,2,167,1,1,4,['k'],['k'],Y,N,None,Y,,,,,,,Male,20,
11,3,168,14,14,4,['k'],['k'],Y,N,None,Y,,,,,,,Male,20,
11,4,169,13,13,4,['k'],['k'],Y,N,['space'],N,,,,,,,Male,20,
11,5,170,11,11,4,['d'],['d'],Y,Y,None,N,,,,,,,Male,20,
11,6,171,3,3,4,['k'],['k'],Y,N,None,Y,,,,,,,Male,20,
11,7,172,0,0,4,['d'],['d'],Y,Y,None,N,,,,,,,Male,20,
11,8,173,0,0,4,['k'],['k'],Y,Y,None,N,,,,,,,Male,20,
11,9,174,5,5,4,['d'],['d'],Y,N,None,Y,,,,,,,Male,20,
11,10,175,7,7,4,['k'],['k'],Y,Y,['space'],Y,,,,,,,Male,20,
11,11,176,5,5,4,['k'],['k'],Y,N,['space'],N,,,,,,,Male,20,
11,12,177,12,12,4,['k'],['k'],Y,N,None,Y,,,,,,,Male,20,
11,13,178,4,4,4,['d'],['d'],Y,N,None,Y,,,,,,,Male,20,
11,14,179,0,0,4,['k'],['k'],Y,Y,['space'],Y,,,,,,,Male,20,
12,0,180,6,6,4,['d'],['d'],Y,N,None,Y,,,,,,,Male,20,
12,1,181,5,5,4,['d'],['d'],Y,N,None,Y,,,,,,,Male,20,
12,2,182,5,5,4,['d'],['d'],Y,Y,['space'],Y,,,,,,,Male,20,
12,3,183,4,4,4,['k'],['k'],Y,Y,['space'],Y,,,,,,,Male,20,
12,4,184,3,3,4,['d'],['d'],Y,N,None,Y,,,,,,,Male,20,
12,5,185,10,10,4,['k'],['k'],Y,N,None,Y,,,,,,,Male,20,
12,6,186,2,2,4,['d'],['d'],Y,N,None,Y,,,,,,,Male,20,
12,7,187,1,1,4,['k'],['k'],Y,N,None,Y,,,,,,,Male,20,
12,8,188,14,14,4,['d'],['d'],Y,N,['space'],N,,,,,,,Male,20,
12,9,189,9,9,4,['k'],['k'],Y,N,None,Y,,,,,,,Male,20,
12,10,190,8,8,4,['k'],['k'],Y,N,['space'],N,,,,,,,Male,20,
12,11,191,5,5,4,['d'],['d'],Y,Y,None,N,,,,,,,Male,20,
12,12,192,12,12,4,['d'],['d'],Y,N,['space'],N,,,,,,,Male,20,
12,13,193,3,3,4,['k'],['k'],Y,N,None,Y,,,,,,,Male,20,
12,14,194,3,3,4,['d'],['d'],Y,Y,['space'],Y,,,,,,,Male,20,
13,0,195,9,9,4,['k'],['k'],Y,N,None,Y,,,,,,,Male,20,
13,1,196,7,7,4,['k'],['k'],Y,N,None,Y,,,,,,,Male,20,
13,2,197,11,11,4,['d'],['d'],Y,Y,['space'],Y,,,,,,,Male,20,
13,3,198,1,1,4,['k'],['k'],Y,Y,None,N,,,,,,,Male,20,
13,4,199,14,14,4,['d'],['d'],Y,N,None,Y,48,36,16,,,,Male,20,
13,5,200,1,1,5,['k'],['k'],Y,,,,,,,,,,Male,20,
13,6,201,10,10,5,['k'],['k'],Y,,,,,,,,,,Male,20,
13,7,202,0,0,5,['k'],['k'],Y,Y,None,N,,,,,,,Male,20,
13,8,203,13,13,5,['k'],['k'],Y,N,None,Y,,,,,,,Male,20,
13,9,204,9,9,5,['k'],['k'],Y,N,None,Y,,,,,,,Male,20,
13,10,205,10,10,5,['d'],['d'],Y,Y,None,N,,,,,,,Male,20,
13,11,206,7,7,5,['k'],['k'],Y,Y,None,N,,,,,,,Male,20,
13,12,207,10,10,5,['k'],['k'],Y,Y,['space'],Y,,,,,,,Male,20,
13,13,208,0,0,5,['k'],['k'],Y,Y,['space'],Y,,,,,,,Male,20,
13,14,209,5,5,5,['d'],['d'],Y,N,None,Y,,,,,,,Male,20,
14,0,210,9,9,5,['k'],['d'],N,Y,['space'],Y,,,,,,,Male,20,
14,1,211,1,1,5,['k'],['d'],N,N,['space'],N,,,,,,,Male,20,
14,2,212,14,14,5,['d'],['d'],Y,Y,['space'],Y,,,,,,,Male,20,
14,3,213,0,0,5,['d'],['d'],Y,N,None,Y,,,,,,,Male,20,
14,4,214,9,9,5,['d'],['d'],Y,Y,['space'],Y,,,,,,,Male,20,
14,5,215,11,11,5,['k'],['d'],N,N,None,Y,,,,,,,Male,20,
14,6,216,11,11,5,['k'],['d'],N,Y,['space'],Y,,,,,,,Male,20,
14,7,217,7,7,5,['k'],['k'],Y,N,None,Y,,,,,,,Male,20,
14,8,218,7,7,5,['k'],['d'],N,Y,['space'],Y,,,,,,,Male,20,
14,9,219,1,1,5,['d'],['d'],Y,N,None,Y,,,,,,,Male,20,
14,10,220,2,2,5,['d'],['d'],Y,N,None,Y,,,,,,,Male,20,
14,11,221,0,0,5,['d'],['d'],Y,N,['space'],N,,,,,,,Male,20,
14,12,222,2,2,5,['k'],['k'],Y,Y,['space'],Y,,,,,,,Male,20,
14,13,223,7,7,5,['d'],['d'],Y,Y,['space'],Y,,,,,,,Male,20,
14,14,224,7,7,5,['k'],['k'],Y,N,None,Y,,,,,,,Male,20,
15,0,225,11,11,5,['k'],['k'],Y,Y,['space'],Y,,,,,,,Male,20,
15,1,226,14,14,5,['k'],['k'],Y,Y,['space'],Y,,,,,,,Male,20,
15,2,227,8,8,5,['k'],['k'],Y,N,None,Y,,,,,,,Male,20,
15,3,228,5,5,5,['k'],['k'],Y,Y,['space'],Y,,,,,,,Male,20,
15,4,229,9,9,5,['k'],['k'],Y,N,None,Y,,,,,,,Male,20,
15,5,230,7,7,5,['k'],['k'],Y,Y,['space'],Y,,,,,,,Male,20,
15,6,231,0,0,5,['k'],['d'],N,Y,['space'],Y,,,,,,,Male,20,
15,7,232,14,14,5,['d'],['d'],Y,N,None,Y,,,,,,,Male,20,
15,8,233,14,14,5,['d'],['d'],Y,Y,['space'],Y,,,,,,,Male,20,
15,9,234,5,5,5,['k'],['k'],Y,N,None,Y,,,,,,,Male,20,
15,10,235,7,7,5,['d'],['d'],Y,Y,None,N,,,,,,,Male,20,
15,11,236,7,7,5,['k'],['k'],Y,Y,['space'],Y,,,,,,,Male,20,
15,12,237,13,13,5,['d'],['d'],Y,N,None,Y,,,,,,,Male,20,
15,13,238,1,1,5,['d'],['d'],Y,Y,['space'],Y,,,,,,,Male,20,
15,14,239,4,4,5,['d'],['d'],Y,Y,['space'],Y,,,,,,,Male,20,
16,0,240,0,0,5,['d'],['d'],Y,Y,None,N,,,,,,,Male,20,
16,1,241,0,0,5,['k'],['k'],Y,N,None,Y,,,,,,,Male,20,
16,2,242,10,10,5,['k'],['k'],Y,N,None,Y,,,,,,,Male,20,
16,3,243,13,13,5,['k'],['k'],Y,Y,['space'],Y,,,,,,,Male,20,
16,4,244,6,6,5,['d'],['d'],Y,N,None,Y,,,,,,,Male,20,
16,5,245,6,6,5,['d'],['d'],Y,Y,['space'],Y,,,,,,,Male,20,
16,6,246,4,4,5,['d'],['d'],Y,N,None,Y,,,,,,,Male,20,
16,7,247,1,1,5,['k'],['d'],N,N,None,Y,,,,,,,Male,20,
16,8,248,6,6,5,['d'],['d'],Y,N,['space'],N,,,,,,,Male,20,
16,9,249,10,10,5,['d'],['d'],Y,N,None,Y,43,40,25,,,,Male,20,
16,10,250,11,11,6,['d'],['d'],Y,,,,,,,,,,Male,20,
16,11,251,3,3,6,['d'],['d'],Y,,,,,,,,,,Male,20,
16,12,252,13,13,6,['k'],['k'],Y,N,None,Y,,,,,,,Male,20,
16,13,253,4,4,6,['d'],['d'],Y,Y,['space'],Y,,,,,,,Male,20,
16,14,254,12,12,6,['d'],['d'],Y,Y,None,N,,,,,,,Male,20,
17,0,255,1,1,6,['k'],['k'],Y,N,None,Y,,,,,,,Male,20,
17,1,256,10,10,6,['d'],['d'],Y,N,None,Y,,,,,,,Male,20,
17,2,257,9,9,6,['d'],['d'],Y,Y,None,N,,,,,,,Male,20,
17,3,258,6,6,6,['k'],['k'],Y,Y,None,N,,,,,,,Male,20,
17,4,259,12,12,6,['k'],['d'],N,Y,['space'],Y,,,,,,,Male,20,
17,5,260,8,8,6,['d'],['d'],Y,N,None,Y,,,,,,,Male,20,
17,6,261,12,12,6,['k'],['k'],Y,N,None,Y,,,,,,,Male,20,
17,7,262,6,6,6,['k'],['k'],Y,N,None,Y,,,,,,,Male,20,
17,8,263,2,2,6,['k'],['k'],Y,Y,['space'],Y,,,,,,,Male,20,
17,9,264,12,12,6,['k'],['k'],Y,Y,['space'],Y,,,,,,,Male,20,
17,10,265,8,8,6,['d'],['d'],Y,N,None,Y,,,,,,,Male,20,
17,11,266,13,13,6,['k'],['k'],Y,N,['space'],N,,,,,,,Male,20,
17,12,267,6,6,6,['k'],['d'],N,Y,['space'],Y,,,,,,,Male,20,
17,13,268,7,7,6,['d'],['d'],Y,N,None,Y,,,,,,,Male,20,
17,14,269,10,10,6,['k'],['d'],N,N,None,Y,,,,,,,Male,20,
18,0,270,14,14,6,['k'],['k'],Y,Y,['space'],Y,,,,,,,Male,20,
18,1,271,14,14,6,['k'],['k'],Y,Y,['space'],Y,,,,,,,Male,20,
18,2,272,12,12,6,['k'],['k'],Y,Y,None,N,,,,,,,Male,20,
18,3,273,11,11,6,['k'],['k'],Y,Y,['space'],Y,,,,,,,Male,20,
18,4,274,2,2,6,['k'],['k'],Y,N,None,Y,,,,,,,Male,20,
18,5,275,1,1,6,['k'],['k'],Y,N,['d'],N,,,,,,,Male,20,
18,6,276,8,8,6,['k'],['k'],Y,N,None,Y,,,,,,,Male,20,
18,7,277,14,14,6,['d'],['d'],Y,N,['space'],N,,,,,,,Male,20,
18,8,278,6,6,6,['k'],['d'],N,N,None,Y,,,,,,,Male,20,
18,9,279,10,10,6,['k'],['k'],Y,Y,None,N,,,,,,,Male,20,
18,10,280,13,13,6,['k'],['k'],Y,Y,None,N,,,,,,,Male,20,
18,11,281,6,6,6,['d'],['d'],Y,Y,None,N,,,,,,,Male,20,
18,12,282,7,7,6,['d'],['d'],Y,N,['space'],N,,,,,,,Male,20,
18,13,283,8,8,6,['d'],['d'],Y,N,None,Y,,,,,,,Male,20,
18,14,284,0,0,6,['k'],['k'],Y,N,None,Y,,,,,,,Male,20,
19,0,285,12,12,6,['k'],['k'],Y,Y,['space'],Y,,,,,,,Male,20,
19,1,286,12,12,6,['d'],['d'],Y,N,None,Y,,,,,,,Male,20,
19,2,287,5,5,6,['k'],['k'],Y,N,None,Y,,,,,,,Male,20,
19,3,288,12,12,6,['k'],['k'],Y,N,None,Y,,,,,,,Male,20,
19,4,289,12,12,6,['d'],['d'],Y,N,['space'],N,,,,,,,Male,20,
19,5,290,14,14,6,['d'],['d'],Y,N,['space'],N,,,,,,,Male,20,
19,6,291,4,4,6,['k'],['k'],Y,N,['space'],N,,,,,,,Male,20,
19,7,292,6,6,6,['k'],['d'],N,Y,['space'],Y,,,,,,,Male,20,
19,8,293,6,6,6,['d'],['d'],Y,N,None,Y,,,,,,,Male,20,
19,9,294,7,7,6,['k'],['d'],N,Y,['space'],Y,,,,,,,Male,20,
19,10,295,1,1,6,['d'],['d'],Y,N,None,Y,,,,,,,Male,20,
19,11,296,10,10,6,['d'],['d'],Y,N,None,Y,,,,,,,Male,20,
19,12,297,3,3,6,['k'],['k'],Y,N,None,Y,,,,,,,Male,20,
19,13,298,8,8,6,['k'],['k'],Y,N,None,Y,,,,,,,Male,20,
19,14,299,12,12,6,['d'],['d'],Y,N,None,Y,44,34,18,,,,Male,20,
20,0,300,4,4,7,['k'],['k'],Y,,,,,,,,,,Male,20,
20,1,301,5,5,7,['d'],['d'],Y,,,,,,,,,,Male,20,
20,2,302,9,9,7,['d'],['d'],Y,Y,['space'],Y,,,,,,,Male,20,
20,3,303,12,12,7,['k'],['d'],N,N,['space'],N,,,,,,,Male,20,
20,4,304,2,2,7,['k'],['k'],Y,Y,['space'],Y,,,,,,,Male,20,
20,5,305,10,10,7,['d'],['d'],Y,Y,['space'],Y,,,,,,,Male,20,
20,6,306,4,4,7,['k'],['k'],Y,N,None,Y,,,,,,,Male,20,
20,7,307,6,6,7,['k'],['k'],Y,N,None,Y,,,,,,,Male,20,
20,8,308,11,11,7,['k'],['k'],Y,Y,['space'],Y,,,,,,,Male,20,
20,9,309,5,5,7,['d'],['d'],Y,N,None,Y,,,,,,,Male,20,
20,10,310,12,12,7,['k'],['k'],Y,Y,['space'],Y,,,,,,,Male,20,
20,11,311,11,11,7,['k'],['k'],Y,Y,None,N,,,,,,,Male,20,
20,12,312,14,14,7,['d'],['d'],Y,N,None,Y,,,,,,,Male,20,
20,13,313,0,0,7,['k'],['d'],N,Y,None,N,,,,,,,Male,20,
20,14,314,1,1,7,['d'],['d'],Y,Y,None,N,,,,,,,Male,20,
21,0,315,10,10,7,['d'],['d'],Y,N,['space'],N,,,,,,,Male,20,
21,1,316,13,13,7,['k'],['k'],Y,N,None,Y,,,,,,,Male,20,
21,2,317,5,5,7,['k'],['k'],Y,Y,['space'],Y,,,,,,,Male,20,
21,3,318,12,12,7,['d'],['d'],Y,N,None,Y,,,,,,,Male,20,
21,4,319,4,4,7,['d'],['d'],Y,N,None,Y,,,,,,,Male,20,
21,5,320,14,14,7,['d'],['d'],Y,Y,None,N,,,,,,,Male,20,
21,6,321,5,5,7,['k'],['k'],Y,Y,None,N,,,,,,,Male,20,
21,7,322,10,10,7,['d'],['d'],Y,N,None,Y,,,,,,,Male,20,
21,8,323,14,14,7,['k'],['d'],N,N,['space'],N,,,,,,,Male,20,
21,9,324,11,11,7,['k'],['k'],Y,Y,['space'],Y,,,,,,,Male,20,
21,10,325,8,8,7,['k'],['k'],Y,N,None,Y,,,,,,,Male,20,
21,11,326,9,9,7,['k'],['k'],Y,Y,['space'],Y,,,,,,,Male,20,
21,12,327,5,5,7,['k'],['k'],Y,N,None,Y,,,,,,,Male,20,
21,13,328,12,12,7,['d'],['d'],Y,Y,['space'],Y,,,,,,,Male,20,
21,14,329,4,4,7,['k'],['k'],Y,N,None,Y,,,,,,,Male,20,
22,0,330,6,6,7,['k'],['k'],Y,N,None,Y,,,,,,,Male,20,
22,1,331,10,10,7,['k'],['k'],Y,N,None,Y,,,,,,,Male,20,
22,2,332,13,13,7,['k'],['k'],Y,N,None,Y,,,,,,,Male,20,
22,3,333,9,9,7,['k'],['k'],Y,Y,['space'],Y,,,,,,,Male,20,
22,4,334,14,14,7,['d'],['d'],Y,Y,None,N,,,,,,,Male,20,
22,5,335,7,7,7,['k'],['k'],Y,Y,['space'],Y,,,,,,,Male,20,
22,6,336,3,3,7,['k'],['k'],Y,N,None,Y,,,,,,,Male,20,
22,7,337,5,5,7,['k'],['k'],Y,Y,['space'],Y,,,,,,,Male,20,
22,8,338,2,2,7,['k'],['k'],Y,N,None,Y,,,,,,,Male,20,
22,9,339,8,8,7,['d'],['k'],N,Y,['space'],Y,,,,,,,Male,20,
22,10,340,1,1,7,['k'],['k'],Y,N,None,Y,,,,,,,Male,20,
22,11,341,9,9,7,['k'],['k'],Y,Y,['space'],Y,,,,,,,Male,20,
22,12,342,3,3,7,['d'],['k'],N,Y,None,N,,,,,,,Male,20,
22,13,343,1,1,7,['d'],['d'],Y,N,None,Y,,,,,,,Male,20,
22,14,344,0,0,7,['d'],['d'],Y,N,None,Y,,,,,,,Male,20,
23,0,345,11,11,7,['k'],['k'],Y,Y,None,N,,,,,,,Male,20,
23,1,346,8,8,7,['k'],['k'],Y,Y,None,N,,,,,,,Male,20,
23,2,347,14,14,7,['d'],['d'],Y,Y,['space'],Y,,,,,,,Male,20,
23,3,348,4,4,7,['d'],['d'],Y,N,None,Y,,,,,,,Male,20,
23,4,349,3,3,7,['d'],['d'],Y,Y,['space'],Y,45,36,25,,,,Male,20,
23,5,350,13,13,8,['k'],['k'],Y,,,,,,,,,,Male,20,
23,6,351,14,14,8,['d'],['d'],Y,,,,,,,,,,Male,20,
23,7,352,11,11,8,['k'],['k'],Y,N,None,Y,,,,,,,Male,20,
23,8,353,9,9,8,['k'],['k'],Y,Y,['space'],Y,,,,,,,Male,20,
23,9,354,0,0,8,['k'],['k'],Y,Y,['space'],Y,,,,,,,Male,20,
23,10,355,4,4,8,['d'],['k'],N,Y,['space'],Y,,,,,,,Male,20,
23,11,356,12,12,8,['d'],['d'],Y,N,None,Y,,,,,,,Male,20,
23,12,357,0,0,8,['d'],['d'],Y,Y,['space'],Y,,,,,,,Male,20,
23,13,358,9,9,8,['k'],['d'],N,Y,['space'],Y,,,,,,,Male,20,
23,14,359,3,3,8,['k'],['k'],Y,N,None,Y,,,,,,,Male,20,
24,0,360,6,6,8,['d'],['d'],Y,N,None,Y,,,,,,,Male,20,
24,1,361,12,12,8,['k'],['k'],Y,N,None,Y,,,,,,,Male,20,
24,2,362,14,14,8,['k'],['k'],Y,N,None,Y,,,,,,,Male,20,
24,3,363,0,0,8,['k'],['k'],Y,Y,['space'],Y,,,,,,,Male,20,
24,4,364,5,5,8,['k'],['k'],Y,N,None,Y,,,,,,,Male,20,
24,5,365,8,8,8,['k'],['k'],Y,Y,None,N,,,,,,,Male,20,
24,6,366,14,14,8,['k'],['d'],N,Y,['space'],Y,,,,,,,Male,20,
24,7,367,9,9,8,['d'],['d'],Y,Y,['space'],Y,,,,,,,Male,20,
24,8,368,12,12,8,['k'],['d'],N,N,['space'],N,,,,,,,Male,20,
24,9,369,8,8,8,['d'],['d'],Y,Y,['space'],Y,,,,,,,Male,20,
24,10,370,9,9,8,['k'],['k'],Y,Y,['space'],Y,,,,,,,Male,20,
24,11,371,7,7,8,['k'],['k'],Y,N,None,Y,,,,,,,Male,20,
24,12,372,8,8,8,['d'],['d'],Y,N,None,Y,,,,,,,Male,20,
24,13,373,11,11,8,['k'],['k'],Y,Y,None,N,,,,,,,Male,20,
24,14,374,10,10,8,['d'],['d'],Y,N,None,Y,,,,,,,Male,20,
25,0,375,2,2,8,['d'],['d'],Y,N,None,Y,,,,,,,Male,20,
25,1,376,7,7,8,['k'],['k'],Y,Y,['space'],Y,,,,,,,Male,20,
25,2,377,7,7,8,['d'],['d'],Y,N,None,Y,,,,,,,Male,20,
25,3,378,3,3,8,['d'],['d'],Y,N,None,Y,,,,,,,Male,20,
25,4,379,4,4,8,['k'],['k'],Y,Y,['space'],Y,,,,,,,Male,20,
25,5,380,0,0,8,['k'],['k'],Y,N,None,Y,,,,,,,Male,20,
25,6,381,9,9,8,['k'],['k'],Y,N,None,Y,,,,,,,Male,20,
25,7,382,9,9,8,['d'],['d'],Y,Y,None,N,,,,,,,Male,20,
25,8,383,11,11,8,['k'],['k'],Y,Y,None,N,,,,,,,Male,20,
25,9,384,6,6,8,['k'],['k'],Y,N,None,Y,,,,,,,Male,20,
25,10,385,11,11,8,['d'],['d'],Y,N,None,Y,,,,,,,Male,20,
25,11,386,6,6,8,['k'],['k'],Y,N,['space'],N,,,,,,,Male,20,
25,12,387,9,9,8,['k'],['k'],Y,N,['space'],N,,,,,,,Male,20,
25,13,388,13,13,8,['k'],['k'],Y,Y,['space'],Y,,,,,,,Male,20,
25,14,389,10,10,8,['k'],['k'],Y,N,None,Y,,,,,,,Male,20,
26,0,390,0,0,8,['d'],['d'],Y,Y,None,N,,,,,,,Male,20,
26,1,391,3,3,8,['k'],['d'],N,Y,None,N,,,,,,,Male,20,
26,2,392,6,6,8,['d'],['d'],Y,N,['space'],N,,,,,,,Male,20,
26,3,393,10,10,8,['k'],['k'],Y,N,None,Y,,,,,,,Male,20,
26,4,394,13,13,8,['d'],['d'],Y,N,['space'],N,,,,,,,Male,20,
26,5,395,3,3,8,['d'],['d'],Y,Y,None,N,,,,,,,Male,20,
26,6,396,9,9,8,['d'],['d'],Y,Y,['space'],Y,,,,,,,Male,20,
26,7,397,8,8,8,['k'],['k'],Y,N,None,Y,,,,,,,Male,20,
26,8,398,10,10,8,['k'],['k'],Y,Y,['space'],Y,,,,,,,Male,20,
26,9,399,11,11,8,['d'],['d'],Y,N,None,Y,45,36,22,,,,Male,20,
26,10,400,12,12,9,['k'],['k'],Y,,,,,,,,,,Male,20,
26,11,401,5,5,9,['d'],['d'],Y,,,,,,,,,,Male,20,
26,12,402,10,10,9,['k'],['k'],Y,N,None,Y,,,,,,,Male,20,
26,13,403,8,8,9,['d'],['d'],Y,N,None,Y,,,,,,,Male,20,
26,14,404,9,9,9,['k'],['k'],Y,N,None,Y,,,,,,,Male,20,
27,0,405,13,13,9,['d'],['d'],Y,Y,['space'],Y,,,,,,,Male,20,
27,1,406,1,1,9,['d'],['d'],Y,Y,None,N,,,,,,,Male,20,
27,2,407,0,0,9,['d'],['d'],Y,N,None,Y,,,,,,,Male,20,
27,3,408,0,0,9,['d'],['d'],Y,N,None,Y,,,,,,,Male,20,
27,4,409,3,3,9,['d'],['d'],Y,Y,['space'],Y,,,,,,,Male,20,
27,5,410,11,11,9,['k'],['k'],Y,N,None,Y,,,,,,,Male,20,
27,6,411,3,3,9,['d'],['d'],Y,Y,['space'],Y,,,,,,,Male,20,
27,7,412,7,7,9,['k'],['k'],Y,Y,['space'],Y,,,,,,,Male,20,
27,8,413,9,9,9,['k'],['k'],Y,N,None,Y,,,,,,,Male,20,
27,9,414,12,12,9,['k'],['k'],Y,Y,['space'],Y,,,,,,,Male,20,
27,10,415,2,2,9,['d'],['d'],Y,Y,['space'],Y,,,,,,,Male,20,
27,11,416,6,6,9,['k'],['k'],Y,Y,['space'],Y,,,,,,,Male,20,
27,12,417,1,1,9,['k'],['k'],Y,Y,['space'],Y,,,,,,,Male,20,
27,13,418,1,1,9,['k'],['k'],Y,Y,['space'],Y,,,,,,,Male,20,
27,14,419,8,8,9,['d'],['d'],Y,N,None,Y,,,,,,,Male,20,
28,0,420,6,6,9,['k'],['k'],Y,N,None,Y,,,,,,,Male,20,
28,1,421,4,4,9,['k'],['k'],Y,N,None,Y,,,,,,,Male,20,
28,2,422,1,1,9,['d'],['d'],Y,N,None,Y,,,,,,,Male,20,
28,3,423,5,5,9,['d'],['d'],Y,Y,['space'],Y,,,,,,,Male,20,
28,4,424,11,11,9,['d'],['d'],Y,N,None,Y,,,,,,,Male,20,
28,5,425,10,10,9,['k'],['k'],Y,N,None,Y,,,,,,,Male,20,
28,6,426,8,8,9,['d'],['d'],Y,N,None,Y,,,,,,,Male,20,
28,7,427,4,4,9,['k'],['k'],Y,N,None,Y,,,,,,,Male,20,
28,8,428,3,3,9,['k'],['k'],Y,Y,None,N,,,,,,,Male,20,
28,9,429,1,1,9,['k'],['k'],Y,N,None,Y,,,,,,,Male,20,
28,10,430,5,5,9,['k'],['k'],Y,N,None,Y,,,,,,,Male,20,
28,11,431,13,13,9,['k'],['k'],Y,N,['space'],N,,,,,,,Male,20,
28,12,432,1,1,9,['k'],['k'],Y,N,None,Y,,,,,,,Male,20,
28,13,433,10,10,9,['d'],['d'],Y,N,None,Y,,,,,,,Male,20,
28,14,434,14,14,9,['k'],['k'],Y,N,None,Y,,,,,,,Male,20,
29,0,435,2,2,9,['k'],['k'],Y,Y,['space'],Y,,,,,,,Male,20,
29,1,436,13,13,9,['k'],['k'],Y,Y,['space'],Y,,,,,,,Male,20,
29,2,437,4,4,9,['k'],['k'],Y,Y,['space'],Y,,,,,,,Male,20,
29,3,438,14,14,9,['d'],['d'],Y,N,None,Y,,,,,,,Male,20,
29,4,439,14,14,9,['d'],['d'],Y,N,None,Y,,,,,,,Male,20,
29,5,440,13,13,9,['k'],['k'],Y,N,None,Y,,,,,,,Male,20,
29,6,441,4,4,9,['d'],['d'],Y,N,None,Y,,,,,,,Male,20,
29,7,442,0,0,9,['k'],['k'],Y,Y,None,N,,,,,,,Male,20,
29,8,443,2,2,9,['k'],['k'],Y,N,None,Y,,,,,,,Male,20,
29,9,444,13,13,9,['d'],['d'],Y,Y,['space'],Y,,,,,,,Male,20,
29,10,445,12,12,9,['d'],['d'],Y,Y,['space'],Y,,,,,,,Male,20,
29,11,446,8,8,9,['k'],['k'],Y,N,None,Y,,,,,,,Male,20,
29,12,447,6,6,9,['k'],['k'],Y,Y,None,N,,,,,,,Male,20,
29,13,448,5,5,9,['k'],['k'],Y,Y,['space'],Y,,,,,,,Male,20,
29,14,449,11,11,9,['d'],['d'],Y,N,None,Y,50,43,20,,,,Male,20,
30,0,450,1,1,10,['d'],['d'],Y,,,,,,,,,,Male,20,
30,1,451,8,8,10,['k'],['k'],Y,,,,,,,,,,Male,20,
30,2,452,8,8,10,['k'],['k'],Y,N,['space'],N,,,,,,,Male,20,
30,3,453,13,13,10,['k'],['k'],Y,Y,['space'],Y,,,,,,,Male,20,
30,4,454,0,0,10,['k'],['k'],Y,Y,['space'],Y,,,,,,,Male,20,
30,5,455,7,7,10,['d'],['d'],Y,N,None,Y,,,,,,,Male,20,
30,6,456,1,1,10,['d'],['d'],Y,Y,['space'],Y,,,,,,,Male,20,
30,7,457,1,1,10,['k'],['d'],N,Y,None,N,,,,,,,Male,20,
30,8,458,3,3,10,['d'],['d'],Y,Y,['space'],Y,,,,,,,Male,20,
30,9,459,14,14,10,['k'],['d'],N,N,None,Y,,,,,,,Male,20,
30,10,460,8,8,10,['k'],['k'],Y,Y,['space'],Y,,,,,,,Male,20,
30,11,461,9,9,10,['d'],['d'],Y,Y,['space'],Y,,,,,,,Male,20,
30,12,462,1,1,10,['d'],['d'],Y,Y,['space'],Y,,,,,,,Male,20,
30,13,463,11,11,10,['d'],['d'],Y,N,None,Y,,,,,,,Male,20,
30,14,464,4,4,10,['d'],['d'],Y,N,None,Y,,,,,,,Male,20,
31,0,465,5,5,10,['k'],['k'],Y,Y,['space'],Y,,,,,,,Male,20,
31,1,466,6,6,10,['k'],['k'],Y,N,None,Y,,,,,,,Male,20,
31,2,467,5,5,10,['d'],['d'],Y,Y,['space'],Y,,,,,,,Male,20,
31,3,468,2,2,10,['k'],['k'],Y,N,None,Y,,,,,,,Male,20,
31,4,469,5,5,10,['d'],['d'],Y,N,None,Y,,,,,,,Male,20,
31,5,470,2,2,10,['k'],['k'],Y,N,None,Y,,,,,,,Male,20,
31,6,471,10,10,10,['d'],['d'],Y,N,None,Y,,,,,,,Male,20,
31,7,472,2,2,10,['k'],['k'],Y,Y,None,N,,,,,,,Male,20,
31,8,473,12,12,10,['k'],['k'],Y,Y,None,N,,,,,,,Male,20,
31,9,474,3,3,10,['d'],['d'],Y,Y,['space'],Y,,,,,,,Male,20,
31,10,475,6,6,10,['k'],['k'],Y,Y,['space'],Y,,,,,,,Male,20,
31,11,476,2,2,10,['d'],['d'],Y,N,None,Y,,,,,,,Male,20,
31,12,477,2,2,10,['k'],['k'],Y,N,None,Y,,,,,,,Male,20,
31,13,478,13,13,10,['k'],['d'],N,N,None,Y,,,,,,,Male,20,
31,14,479,4,4,10,['k'],['k'],Y,N,None,Y,,,,,,,Male,20,
32,0,480,6,6,10,['k'],['k'],Y,N,None,Y,,,,,,,Male,20,
32,1,481,10,10,10,['d'],['k'],N,N,None,Y,,,,,,,Male,20,
32,2,482,1,1,10,['k'],['k'],Y,N,None,Y,,,,,,,Male,20,
32,3,483,13,13,10,['d'],['d'],Y,Y,['space'],Y,,,,,,,Male,20,
32,4,484,7,7,10,['k'],['k'],Y,N,None,Y,,,,,,,Male,20,
32,5,485,3,3,10,['k'],['k'],Y,Y,None,N,,,,,,,Male,20,
32,6,486,10,10,10,['k'],['k'],Y,Y,['space'],Y,,,,,,,Male,20,
32,7,487,11,11,10,['d'],['d'],Y,N,None,Y,,,,,,,Male,20,
32,8,488,1,1,10,['k'],['k'],Y,Y,['space'],Y,,,,,,,Male,20,
32,9,489,2,2,10,['d'],['d'],Y,Y,['space'],Y,,,,,,,Male,20,
32,10,490,14,14,10,['d'],['d'],Y,Y,['space'],Y,,,,,,,Male,20,
32,11,491,8,8,10,['k'],['k'],Y,N,None,Y,,,,,,,Male,20,
32,12,492,6,6,10,['d'],['d'],Y,Y,['space'],Y,,,,,,,Male,20,
32,13,493,9,9,10,['d'],['d'],Y,N,None,Y,,,,,,,Male,20,
32,14,494,0,0,10,['k'],['k'],Y,N,None,Y,,,,,,,Male,20,
33,0,495,9,9,10,['k'],['k'],Y,N,None,Y,,,,,,,Male,20,
33,1,496,4,4,10,['k'],['k'],Y,N,None,Y,,,,,,,Male,20,
33,2,497,11,11,10,['d'],['d'],Y,N,None,Y,,,,,,,Male,20,
33,3,498,0,0,10,['k'],['d'],N,N,None,Y,,,,,,,Male,20,
33,4,499,11,11,10,['k'],['k'],Y,Y,None,N,45,42,22,,,,Male,20,
33,5,500,9,9,11,['d'],['k'],Y,,,,,,,Y,Y,Y,Male,20,
33,6,501,9,9,11,['d'],['k'],Y,,,,,,,,Y,Y,Male,20,
33,7,502,10,10,11,['k'],['d'],Y,Y,None,N,,,,,Y,Y,Male,20,
33,8,503,0,0,11,['k'],['d'],Y,N,None,Y,,,,,Y,Y,Male,20,
33,9,504,11,11,11,['k'],['d'],Y,N,None,Y,,,,,Y,Y,Male,20,
33,10,505,4,4,11,['d'],['d'],N,N,['space'],N,,,,,Y,Y,Male,20,
33,11,506,2,2,11,['k'],['d'],Y,Y,['space'],Y,,,,,Y,Y,Male,20,
33,12,507,1,1,11,['k'],['d'],Y,Y,['space'],Y,,,,,Y,Y,Male,20,
33,13,508,11,11,11,['k'],['d'],Y,Y,['space'],Y,,,,,Y,Y,Male,20,
33,14,509,1,1,11,['d'],['k'],Y,N,None,Y,,,,,Y,Y,Male,20,
34,0,510,3,3,11,['k'],['d'],Y,Y,['space'],Y,,,,,Y,Y,Male,20,
34,1,511,0,0,11,['d'],['k'],Y,Y,['space'],Y,,,,,Y,Y,Male,20,
34,2,512,4,4,11,['d'],['k'],Y,Y,['space'],Y,,,,,Y,Y,Male,20,
34,3,513,7,7,11,['d'],['k'],Y,Y,['space'],Y,,,,,Y,Y,Male,20,
34,4,514,3,3,11,['d'],['k'],Y,Y,None,N,,,,,Y,Y,Male,20,
34,5,515,10,10,11,['d'],['k'],Y,N,None,Y,,,,,Y,Y,Male,20,
34,6,516,2,2,11,['d'],['k'],Y,Y,['space'],Y,,,,,Y,Y,Male,20,
34,7,517,12,12,11,['k'],['d'],Y,Y,['space'],Y,,,,,Y,Y,Male,20,
34,8,518,14,14,11,['k'],['d'],Y,Y,['space'],Y,,,,,Y,Y,Male,20,
34,9,519,10,10,11,['d'],['k'],Y,Y,['space'],Y,,,,,Y,Y,Male,20,
34,10,520,4,4,11,['d'],['k'],Y,N,None,Y,,,,,Y,Y,Male,20,
34,11,521,12,12,11,['k'],['d'],Y,N,None,Y,,,,,Y,Y,Male,20,
34,12,522,7,7,11,None,,Timed out,N,None,Y,,,,,Y,Y,Male,20,
34,13,523,5,5,11,['d'],['d'],N,Y,['space'],Y,,,,,Y,Y,Male,20,
34,14,524,10,10,11,['d'],['k'],Y,Y,['space'],Y,,,,,Y,Y,Male,20,
35,0,525,13,13,11,['k'],['d'],Y,Y,['space'],Y,,,,,Y,Y,Male,20,
35,1,526,12,12,11,['k'],['d'],Y,Y,['space'],Y,,,,,Y,Y,Male,20,
35,2,527,8,8,11,['k'],['k'],N,N,None,Y,,,,,Y,Y,Male,20,
35,3,528,7,7,11,['k'],['d'],Y,N,None,Y,,,,,Y,Y,Male,20,
35,4,529,10,10,11,['d'],['k'],Y,Y,['space'],Y,,,,,Y,Y,Male,20,
35,5,530,3,3,11,['k'],['d'],Y,Y,None,N,,,,,Y,Y,Male,20,
35,6,531,11,11,11,['k'],['d'],Y,N,['space'],N,,,,,Y,Y,Male,20,
35,7,532,3,3,11,['k'],['d'],Y,Y,['space'],Y,,,,,Y,Y,Male,20,
35,8,533,4,4,11,['d'],['k'],Y,N,['space'],N,,,,,Y,Y,Male,20,
35,9,534,3,3,11,['k'],['d'],Y,Y,['space'],Y,,,,,Y,Y,Male,20,
35,10,535,3,3,11,['d'],['k'],Y,Y,['space'],Y,,,,,Y,Y,Male,20,
35,11,536,13,13,11,None,,Timed out,N,None,Y,,,,,Y,Y,Male,20,
35,12,537,12,12,11,['d'],['k'],Y,N,['space'],N,,,,,Y,Y,Male,20,
35,13,538,3,3,11,['k'],['d'],Y,N,None,Y,,,,,Y,Y,Male,20,
35,14,539,14,14,11,['d'],['k'],Y,Y,['space'],Y,,,,,Y,Y,Male,20,
36,0,540,4,4,11,['k'],['d'],Y,N,['space'],N,,,,,Y,Y,Male,20,
36,1,541,2,2,11,['k'],['d'],Y,N,None,Y,,,,,Y,Y,Male,20,
36,2,542,12,12,11,['d'],['k'],Y,Y,['space'],Y,,,,,Y,Y,Male,20,
36,3,543,8,8,11,['d'],['k'],Y,Y,None,N,,,,,Y,Y,Male,20,
36,4,544,10,10,11,['d'],['k'],Y,N,['space'],N,,,,,Y,Y,Male,20,
36,5,545,9,9,11,['k'],['d'],Y,N,None,Y,,,,,Y,Y,Male,20,
36,6,546,1,1,11,['d'],['k'],Y,N,None,Y,,,,,Y,Y,Male,20,
36,7,547,1,1,11,['k'],['d'],Y,N,None,Y,,,,,Y,Y,Male,20,
36,8,548,2,2,11,['k'],['d'],Y,N,['space'],N,,,,,Y,Y,Male,20,
36,9,549,7,7,11,['d'],['k'],Y,N,['space'],N,45,36,25,,Y,Y,Male,20,
36,10,550,7,7,12,['d'],['k'],Y,,,,,,,,Y,Y,Male,20,
36,11,551,3,3,12,['d'],['k'],Y,,,,,,,,Y,Y,Male,20,
36,12,552,11,11,12,['k'],['d'],Y,N,None,Y,,,,,Y,Y,Male,20,
36,13,553,2,2,12,['d'],['k'],Y,N,['space'],N,,,,,Y,Y,Male,20,
36,14,554,2,2,12,None,,Timed out,N,None,Y,,,,,Y,Y,Male,20,
37,0,555,7,7,12,['k'],['d'],Y,Y,['space'],Y,,,,,Y,Y,Male,20,
37,1,556,14,14,12,['d'],['k'],Y,N,['space'],N,,,,,Y,Y,Male,20,
37,2,557,4,4,12,['d'],['k'],Y,Y,['space'],Y,,,,,Y,Y,Male,20,
37,3,558,3,3,12,['d'],['k'],Y,N,None,Y,,,,,Y,Y,Male,20,
37,4,559,11,11,12,['k'],['d'],Y,Y,['space'],Y,,,,,Y,Y,Male,20,
37,5,560,2,2,12,['d'],['k'],Y,Y,None,N,,,,,Y,Y,Male,20,
37,6,561,4,4,12,['k'],['k'],N,Y,None,N,,,,,Y,Y,Male,20,
37,7,562,5,5,12,['k'],['d'],Y,N,None,Y,,,,,Y,Y,Male,20,
37,8,563,7,7,12,['k'],['d'],Y,N,['space'],N,,,,,Y,Y,Male,20,
37,9,564,6,6,12,['d'],['k'],Y,N,None,Y,,,,,Y,Y,Male,20,
37,10,565,14,14,12,['k'],['d'],Y,Y,None,N,,,,,Y,Y,Male,20,
37,11,566,6,6,12,['d'],['k'],Y,Y,None,N,,,,,Y,Y,Male,20,
37,12,567,6,6,12,['d'],['k'],Y,Y,['space'],Y,,,,,Y,Y,Male,20,
37,13,568,10,10,12,['d'],['k'],Y,Y,None,N,,,,,Y,Y,Male,20,
37,14,569,8,8,12,['k'],['d'],Y,Y,['space'],Y,,,,,Y,Y,Male,20,
38,0,570,10,10,12,['d'],['k'],Y,Y,None,N,,,,,Y,Y,Male,20,
38,1,571,7,7,12,['k'],['d'],Y,Y,['space'],Y,,,,,Y,Y,Male,20,
38,2,572,2,2,12,['k'],['d'],Y,Y,['space'],Y,,,,,Y,Y,Male,20,
38,3,573,2,2,12,['d'],['k'],Y,Y,['space'],Y,,,,,Y,Y,Male,20,
38,4,574,13,13,12,['k'],['d'],Y,N,['space'],N,,,,,Y,Y,Male,20,
38,5,575,10,10,12,['d'],['d'],N,N,['space'],N,,,,,Y,Y,Male,20,
38,6,576,0,0,12,['d'],['k'],Y,N,None,Y,,,,,Y,Y,Male,20,
38,7,577,4,4,12,['k'],['d'],Y,N,None,Y,,,,,Y,Y,Male,20,
38,8,578,11,11,12,['d'],['k'],Y,Y,['space'],Y,,,,,Y,Y,Male,20,
38,9,579,12,12,12,['d'],['k'],Y,Y,['space'],Y,,,,,Y,Y,Male,20,
38,10,580,0,0,12,['d'],['k'],Y,N,['space'],N,,,,,Y,Y,Male,20,
38,11,581,12,12,12,['d'],['k'],Y,N,None,Y,,,,,Y,Y,Male,20,
38,12,582,7,7,12,['k'],['d'],Y,N,None,Y,,,,,Y,Y,Male,20,
38,13,583,2,2,12,['d'],['d'],N,Y,['space'],Y,,,,,Y,Y,Male,20,
38,14,584,11,11,12,['d'],['k'],Y,N,None,Y,,,,,Y,Y,Male,20,
39,0,585,6,6,12,['d'],['k'],Y,N,None,Y,,,,,Y,Y,Male,20,
39,1,586,12,12,12,['d'],['k'],Y,Y,['space'],Y,,,,,Y,Y,Male,20,
39,2,587,12,12,12,['k'],['d'],Y,Y,['space'],Y,,,,,Y,Y,Male,20,
39,3,588,2,2,12,['k'],['d'],Y,Y,['space'],Y,,,,,Y,Y,Male,20,
39,4,589,5,5,12,['k'],['k'],N,N,None,Y,,,,,Y,Y,Male,20,
39,5,590,9,9,12,['k'],['d'],Y,N,None,Y,,,,,Y,Y,Male,20,
39,6,591,12,12,12,['k'],['d'],Y,N,None,Y,,,,,Y,Y,Male,20,
39,7,592,2,2,12,['d'],['k'],Y,N,None,Y,,,,,Y,Y,Male,20,
39,8,593,2,2,12,['d'],['k'],Y,N,None,Y,,,,,Y,Y,Male,20,
39,9,594,7,7,12,None,,Timed out,Y,['space'],Y,,,,,Y,Y,Male,20,
39,10,595,12,12,12,['d'],['k'],Y,N,None,Y,,,,,Y,Y,Male,20,
39,11,596,5,5,12,['d'],['k'],Y,Y,['space'],Y,,,,,Y,Y,Male,20,
39,12,597,2,2,12,['k'],['d'],Y,Y,['space'],Y,,,,,Y,Y,Male,20,
39,13,598,4,4,12,['k'],['d'],Y,Y,['space'],Y,,,,,Y,Y,Male,20,
39,14,599,3,3,12,['d'],['k'],Y,Y,['space'],Y,44,36,25,,Y,Y,Male,20,
