.thisRepN,.thisTrialN,.thisN,.thisIndex,.thisTrial,Block Number,Key pressed,Category,Correct?,Int Match?,Int Response,Int Correct?,Line Accuracy,Interference Accuracy,Matching Interferences,New instruction shown?,Buttons switched?,Fast?,gender,age,
0,0,0,10,10,1,['k'],['k'],Y,,,,,,,,,,F,20,
0,1,1,5,5,1,['d'],['d'],Y,,,,,,,,,,F,20,
0,2,2,2,2,1,['k'],['d'],N,Y,None,N,,,,,,,F,20,
0,3,3,10,10,1,['d'],['d'],Y,N,['space'],N,,,,,,,F,20,
0,4,4,3,3,1,['k'],['d'],N,N,None,Y,,,,,,,F,20,
0,5,5,2,2,1,['d'],['d'],Y,Y,['space'],Y,,,,,,,F,20,
0,6,6,4,4,1,['k'],['k'],Y,N,None,Y,,,,,,,F,20,
0,7,7,0,0,1,['d'],['d'],Y,N,None,Y,,,,,,,F,20,
0,8,8,10,10,1,['k'],['k'],Y,Y,['space'],Y,,,,,,,F,20,
0,9,9,0,0,1,['d'],['k'],N,N,None,Y,,,,,,,F,20,
0,10,10,6,6,1,['k'],['k'],Y,N,['space'],N,,,,,,,F,20,
0,11,11,6,6,1,['d'],['k'],N,Y,None,N,,,,,,,F,20,
0,12,12,14,14,1,['k'],['k'],Y,Y,None,N,,,,,,,F,20,
0,13,13,13,13,1,['d'],['k'],N,N,None,Y,,,,,,,F,20,
0,14,14,11,11,1,['k'],['k'],Y,N,None,Y,,,,,,,F,20,
1,0,15,7,7,1,['d'],['d'],Y,Y,['space'],Y,,,,,,,F,20,
1,1,16,1,1,1,['k'],['d'],N,Y,None,N,,,,,,,F,20,
1,2,17,13,13,1,['d'],['k'],N,N,['space'],N,,,,,,,F,20,
1,3,18,14,14,1,['k'],['k'],Y,N,['space'],N,,,,,,,F,20,
1,4,19,3,3,1,['d'],['d'],Y,Y,['space'],Y,,,,,,,F,20,
1,5,20,0,0,1,['k'],['k'],Y,Y,['space'],Y,,,,,,,F,20,
1,6,21,5,5,1,['d'],['k'],N,N,None,Y,,,,,,,F,20,
1,7,22,2,2,1,['k'],['d'],N,Y,None,N,,,,,,,F,20,
1,8,23,4,4,1,['d'],['d'],Y,Y,['space'],Y,,,,,,,F,20,
1,9,24,4,4,1,['k'],['k'],Y,Y,None,N,,,,,,,F,20,
1,10,25,14,14,1,['d'],['d'],Y,Y,['space'],Y,,,,,,,F,20,
1,11,26,1,1,1,['k'],['k'],Y,N,None,Y,,,,,,,F,20,
1,12,27,13,13,1,['d'],['k'],N,Y,['space'],Y,,,,,,,F,20,
1,13,28,3,3,1,['k'],['d'],N,N,['space'],N,,,,,,,F,20,
1,14,29,11,11,1,['d'],['d'],Y,Y,['space'],Y,,,,,,,F,20,
2,0,30,9,9,1,['k'],['d'],N,N,None,Y,,,,,,,F,20,
2,1,31,13,13,1,['d'],['d'],Y,N,['space'],N,,,,,,,F,20,
2,2,32,11,11,1,['k'],['k'],Y,Y,None,N,,,,,,,F,20,
2,3,33,8,8,1,['d'],['k'],N,Y,['space'],Y,,,,,,,F,20,
2,4,34,11,11,1,['k'],['d'],N,N,None,Y,,,,,,,F,20,
2,5,35,14,14,1,['d'],['k'],N,Y,['space'],Y,,,,,,,F,20,
2,6,36,13,13,1,['k'],['d'],N,N,None,Y,,,,,,,F,20,
2,7,37,6,6,1,['d'],['k'],N,N,None,Y,,,,,,,F,20,
2,8,38,7,7,1,['k'],['d'],N,Y,None,N,,,,,,,F,20,
2,9,39,4,4,1,['d'],['d'],Y,Y,['space'],Y,,,,,,,F,20,
2,10,40,8,8,1,['k'],['d'],N,N,None,Y,,,,,,,F,20,
2,11,41,7,7,1,['k'],['d'],N,N,None,Y,,,,,,,F,20,
2,12,42,7,7,1,['d'],['d'],Y,N,None,Y,,,,,,,F,20,
2,13,43,3,3,1,['k'],['d'],N,N,['space'],N,,,,,,,F,20,
2,14,44,0,0,1,['d'],['d'],Y,N,None,Y,,,,,,,F,20,
3,0,45,10,10,1,['d'],['k'],N,N,None,Y,,,,,,,F,20,
3,1,46,0,0,1,['k'],['k'],Y,N,['space'],N,,,,,,,F,20,
3,2,47,5,5,1,['k'],['k'],Y,N,None,Y,,,,,,,F,20,
3,3,48,7,7,1,['d'],['d'],Y,N,['space'],N,,,,,,,F,20,
3,4,49,13,13,1,['k'],['d'],N,Y,['space'],Y,27,31,21,,,,F,20,
3,5,50,6,6,2,['d'],['k'],N,,,,,,,,,,F,20,
3,6,51,5,5,2,['k'],['k'],Y,,,,,,,,,,F,20,
3,7,52,5,5,2,['d'],['k'],N,Y,['space'],Y,,,,,,,F,20,
3,8,53,8,8,2,['k'],['k'],Y,N,None,Y,,,,,,,F,20,
3,9,54,13,13,2,['k'],['d'],N,Y,None,N,,,,,,,F,20,
3,10,55,7,7,2,['d'],['d'],Y,Y,['space'],Y,,,,,,,F,20,
3,11,56,5,5,2,['k'],['d'],N,Y,None,N,,,,,,,F,20,
3,12,57,8,8,2,['d'],['k'],N,N,['d'],N,,,,,,,F,20,
3,13,58,9,9,2,['k'],['d'],N,N,['k'],N,,,,,,,F,20,
3,14,59,7,7,2,['d'],['k'],N,Y,['space'],Y,,,,,,,F,20,
4,0,60,14,14,2,['k'],['d'],N,Y,None,N,,,,,,,F,20,
4,1,61,13,13,2,['d'],['k'],N,Y,None,N,,,,,,,F,20,
4,2,62,7,7,2,['k'],['k'],Y,N,None,Y,,,,,,,F,20,
4,3,63,13,13,2,['d'],['d'],Y,N,None,Y,,,,,,,F,20,
4,4,64,11,11,2,['k'],['d'],N,N,None,Y,,,,,,,F,20,
4,5,65,1,1,2,['d'],['d'],Y,Y,None,N,,,,,,,F,20,
4,6,66,2,2,2,['k'],['d'],N,N,None,Y,,,,,,,F,20,
4,7,67,7,7,2,['d'],['k'],N,N,None,Y,,,,,,,F,20,
4,8,68,9,9,2,['k'],['d'],N,N,None,Y,,,,,,,F,20,
4,9,69,5,5,2,['k'],['k'],Y,N,['space'],N,,,,,,,F,20,
4,10,70,8,8,2,['d'],['k'],N,N,None,Y,,,,,,,F,20,
4,11,71,14,14,2,['d'],['k'],N,N,['space'],N,,,,,,,F,20,
4,12,72,9,9,2,['k'],['k'],Y,N,None,Y,,,,,,,F,20,
4,13,73,7,7,2,['d'],['d'],Y,N,None,Y,,,,,,,F,20,
4,14,74,3,3,2,['k'],['d'],N,Y,None,N,,,,,,,F,20,
5,0,75,7,7,2,['d'],['d'],Y,Y,['space'],Y,,,,,,,F,20,
5,1,76,10,10,2,['k'],['k'],Y,Y,['space'],Y,,,,,,,F,20,
5,2,77,9,9,2,['d'],['d'],Y,Y,None,N,,,,,,,F,20,
5,3,78,2,2,2,['k'],['d'],N,Y,['space'],Y,,,,,,,F,20,
5,4,79,0,0,2,['k'],['d'],N,Y,['space'],Y,,,,,,,F,20,
5,5,80,6,6,2,['k'],['k'],Y,Y,None,N,,,,,,,F,20,
5,6,81,4,4,2,['d'],['k'],N,N,None,Y,,,,,,,F,20,
5,7,82,11,11,2,['k'],['d'],N,Y,['space'],Y,,,,,,,F,20,
5,8,83,1,1,2,['d'],['k'],N,Y,['space'],Y,,,,,,,F,20,
5,9,84,4,4,2,['k'],['d'],N,Y,['space'],Y,,,,,,,F,20,
5,10,85,7,7,2,['d'],['d'],Y,N,None,Y,,,,,,,F,20,
5,11,86,13,13,2,['k'],['d'],N,Y,['space'],Y,,,,,,,F,20,
5,12,87,11,11,2,['d'],['d'],Y,Y,['space'],Y,,,,,,,F,20,
5,13,88,10,10,2,['k'],['d'],N,N,None,Y,,,,,,,F,20,
5,14,89,5,5,2,['d'],['d'],Y,N,None,Y,,,,,,,F,20,
6,0,90,5,5,2,['k'],['k'],Y,N,['space'],N,,,,,,,F,20,
6,1,91,11,11,2,['d'],['k'],N,N,None,Y,,,,,,,F,20,
6,2,92,0,0,2,['k'],['d'],N,N,None,Y,,,,,,,F,20,
6,3,93,5,5,2,['k'],['d'],N,Y,None,N,,,,,,,F,20,
6,4,94,14,14,2,['d'],['d'],Y,N,['space'],N,,,,,,,F,20,
6,5,95,10,10,2,['d'],['d'],Y,Y,['space'],Y,,,,,,,F,20,
6,6,96,2,2,2,['k'],['k'],Y,Y,None,N,,,,,,,F,20,
6,7,97,2,2,2,['d'],['k'],N,N,None,Y,,,,,,,F,20,
6,8,98,10,10,2,['k'],['k'],Y,N,['space'],N,,,,,,,F,20,
6,9,99,11,11,2,['d'],['d'],Y,Y,['space'],Y,22,31,24,,,,F,20,
6,10,100,3,3,3,['k'],['d'],N,,,,,,,,,,F,20,
6,11,101,4,4,3,['d'],['k'],N,,,,,,,,,,F,20,
6,12,102,12,12,3,['k'],['k'],Y,N,None,Y,,,,,,,F,20,
6,13,103,3,3,3,['d'],['k'],N,N,None,Y,,,,,,,F,20,
6,14,104,10,10,3,['k'],['d'],N,Y,None,N,,,,,,,F,20,
7,0,105,0,0,3,['d'],['d'],Y,Y,['space'],Y,,,,,,,F,20,
7,1,106,4,4,3,['k'],['d'],N,N,None,Y,,,,,,,F,20,
7,2,107,14,14,3,['k'],['d'],N,Y,None,N,,,,,,,F,20,
7,3,108,0,0,3,['d'],['d'],Y,N,None,Y,,,,,,,F,20,
7,4,109,13,13,3,['k'],['k'],Y,Y,['space'],Y,,,,,,,F,20,
7,5,110,0,0,3,['d'],['k'],N,N,None,Y,,,,,,,F,20,
7,6,111,10,10,3,['k'],['k'],Y,Y,['space'],Y,,,,,,,F,20,
7,7,112,14,14,3,['d'],['k'],N,Y,None,N,,,,,,,F,20,
7,8,113,4,4,3,['k'],['k'],Y,Y,['k'],N,,,,,,,F,20,
7,9,114,1,1,3,['d'],['d'],Y,N,['space'],N,,,,,,,F,20,
7,10,115,3,3,3,['k'],['d'],N,N,None,Y,,,,,,,F,20,
7,11,116,14,14,3,['d'],['k'],N,Y,['space'],Y,,,,,,,F,20,
7,12,117,3,3,3,['k'],['d'],N,N,['space'],N,,,,,,,F,20,
7,13,118,4,4,3,['d'],['k'],N,N,None,Y,,,,,,,F,20,
7,14,119,12,12,3,['k'],['d'],N,N,None,Y,,,,,,,F,20,
8,0,120,14,14,3,['d'],['k'],N,Y,['space'],Y,,,,,,,F,20,
8,1,121,11,11,3,['k'],['k'],Y,N,None,Y,,,,,,,F,20,
8,2,122,0,0,3,['k'],['k'],Y,Y,['space'],Y,,,,,,,F,20,
8,3,123,10,10,3,['d'],['d'],Y,Y,['space'],Y,,,,,,,F,20,
8,4,124,12,12,3,['d'],['k'],N,N,['space'],N,,,,,,,F,20,
8,5,125,2,2,3,['d'],['d'],Y,N,None,Y,,,,,,,F,20,
8,6,126,9,9,3,['k'],['d'],N,N,None,Y,,,,,,,F,20,
8,7,127,4,4,3,['k'],['d'],N,Y,['space'],Y,,,,,,,F,20,
8,8,128,6,6,3,['k'],['k'],Y,N,None,Y,,,,,,,F,20,
8,9,129,10,10,3,['d'],['d'],Y,Y,['space'],Y,,,,,,,F,20,
8,10,130,1,1,3,['d'],['d'],Y,Y,['space'],Y,,,,,,,F,20,
8,11,131,1,1,3,['k'],['k'],Y,Y,['space'],Y,,,,,,,F,20,
8,12,132,2,2,3,['k'],['k'],Y,N,None,Y,,,,,,,F,20,
8,13,133,6,6,3,['d'],['d'],Y,Y,['space'],Y,,,,,,,F,20,
8,14,134,10,10,3,['k'],['k'],Y,N,None,Y,,,,,,,F,20,
9,0,135,0,0,3,['k'],['k'],Y,Y,['space'],Y,,,,,,,F,20,
9,1,136,10,10,3,['k'],['k'],Y,Y,['space'],Y,,,,,,,F,20,
9,2,137,6,6,3,['d'],['d'],Y,N,['space'],N,,,,,,,F,20,
9,3,138,4,4,3,['k'],['d'],N,N,['space'],N,,,,,,,F,20,
9,4,139,11,11,3,['k'],['d'],N,Y,None,N,,,,,,,F,20,
9,5,140,2,2,3,['k'],['k'],Y,N,None,Y,,,,,,,F,20,
9,6,141,13,13,3,['d'],['d'],Y,N,None,Y,,,,,,,F,20,
9,7,142,11,11,3,['k'],['k'],Y,N,None,Y,,,,,,,F,20,
9,8,143,2,2,3,['d'],['d'],Y,N,None,Y,,,,,,,F,20,
9,9,144,5,5,3,['d'],['d'],Y,Y,['space'],Y,,,,,,,F,20,
9,10,145,10,10,3,['k'],['k'],Y,Y,['space'],Y,,,,,,,F,20,
9,11,146,3,3,3,['k'],['d'],N,N,None,Y,,,,,,,F,20,
9,12,147,12,12,3,['k'],['k'],Y,N,['space'],N,,,,,,,F,20,
9,13,148,0,0,3,['d'],['d'],Y,N,None,Y,,,,,,,F,20,
9,14,149,10,10,3,['k'],['k'],Y,N,['space'],N,30,36,21,,,,F,20,
10,0,150,6,6,4,['d'],['d'],Y,,,,,,,,,,F,20,
10,1,151,13,13,4,['k'],['k'],Y,,,,,,,,,,F,20,
10,2,152,2,2,4,['k'],['k'],Y,Y,['space'],Y,,,,,,,F,20,
10,3,153,9,9,4,['d'],['d'],Y,Y,None,N,,,,,,,F,20,
10,4,154,8,8,4,['k'],['k'],Y,N,None,Y,,,,,,,F,20,
10,5,155,3,3,4,['d'],['d'],Y,Y,['space'],Y,,,,,,,F,20,
10,6,156,3,3,4,['k'],['k'],Y,N,None,Y,,,,,,,F,20,
10,7,157,4,4,4,['d'],['d'],Y,Y,['space'],Y,,,,,,,F,20,
10,8,158,8,8,4,['k'],['k'],Y,Y,['space'],Y,,,,,,,F,20,
10,9,159,10,10,4,['k'],['k'],Y,N,None,Y,,,,,,,F,20,
10,10,160,1,1,4,['d'],['d'],Y,Y,['space'],Y,,,,,,,F,20,
10,11,161,11,11,4,['k'],['k'],Y,N,None,Y,,,,,,,F,20,
10,12,162,9,9,4,['d'],['d'],Y,Y,['space'],Y,,,,,,,F,20,
10,13,163,2,2,4,['d'],['d'],Y,Y,['space'],Y,,,,,,,F,20,
10,14,164,7,7,4,['k'],['k'],Y,N,None,Y,,,,,,,F,20,
11,0,165,11,11,4,['d'],['k'],N,Y,['space'],Y,,,,,,,F,20,
11,1,166,13,13,4,['k'],['k'],Y,Y,['space'],Y,,,,,,,F,20,
11,2,167,5,5,4,['d'],['d'],Y,N,None,Y,,,,,,,F,20,
11,3,168,3,3,4,['k'],['k'],Y,N,None,Y,,,,,,,F,20,
11,4,169,7,7,4,['d'],['d'],Y,N,['space'],N,,,,,,,F,20,
11,5,170,12,12,4,['k'],['k'],Y,N,None,Y,,,,,,,F,20,
11,6,171,13,13,4,['k'],['k'],Y,Y,['space'],Y,,,,,,,F,20,
11,7,172,11,11,4,['k'],['k'],Y,Y,None,N,,,,,,,F,20,
11,8,173,12,12,4,['d'],['d'],Y,Y,['space'],Y,,,,,,,F,20,
11,9,174,10,10,4,['d'],['d'],Y,Y,['space'],Y,,,,,,,F,20,
11,10,175,3,3,4,['k'],['k'],Y,Y,['space'],Y,,,,,,,F,20,
11,11,176,12,12,4,['k'],['k'],Y,N,None,Y,,,,,,,F,20,
11,12,177,0,0,4,['k'],['k'],Y,N,None,Y,,,,,,,F,20,
11,13,178,10,10,4,['k'],['k'],Y,N,None,Y,,,,,,,F,20,
11,14,179,5,5,4,['k'],['k'],Y,Y,['space'],Y,,,,,,,F,20,
12,0,180,5,5,4,['d'],['d'],Y,Y,['space'],Y,,,,,,,F,20,
12,1,181,1,1,4,['k'],['k'],Y,Y,None,N,,,,,,,F,20,
12,2,182,0,0,4,['d'],['d'],Y,N,None,Y,,,,,,,F,20,
12,3,183,13,13,4,['k'],['d'],N,Y,['space'],Y,,,,,,,F,20,
12,4,184,0,0,4,['d'],['d'],Y,Y,None,N,,,,,,,F,20,
12,5,185,1,1,4,['k'],['k'],Y,Y,['space'],Y,,,,,,,F,20,
12,6,186,7,7,4,['d'],['d'],Y,Y,['space'],Y,,,,,,,F,20,
12,7,187,12,12,4,['k'],['k'],Y,Y,['space'],Y,,,,,,,F,20,
12,8,188,13,13,4,['d'],['d'],Y,N,None,Y,,,,,,,F,20,
12,9,189,6,6,4,['k'],['d'],N,Y,['space'],Y,,,,,,,F,20,
12,10,190,5,5,4,['k'],['k'],Y,Y,None,N,,,,,,,F,20,
12,11,191,2,2,4,['k'],['d'],N,N,None,Y,,,,,,,F,20,
12,12,192,5,5,4,['k'],['k'],Y,N,None,Y,,,,,,,F,20,
12,13,193,14,14,4,['k'],['k'],Y,N,None,Y,,,,,,,F,20,
12,14,194,0,0,4,['k'],['k'],Y,N,['space'],N,,,,,,,F,20,
13,0,195,3,3,4,['k'],['k'],Y,N,None,Y,,,,,,,F,20,
13,1,196,6,6,4,['d'],['d'],Y,N,None,Y,,,,,,,F,20,
13,2,197,5,5,4,['k'],['k'],Y,N,None,Y,,,,,,,F,20,
13,3,198,1,1,4,['k'],['d'],N,N,None,Y,,,,,,,F,20,
13,4,199,8,8,4,['d'],['d'],Y,N,None,Y,45,41,25,,,,F,20,
13,5,200,8,8,5,['d'],['d'],Y,,,,,,,,,,F,20,
13,6,201,12,12,5,['k'],['k'],Y,,,,,,,,,,F,20,
13,7,202,11,11,5,['k'],['k'],Y,N,None,Y,,,,,,,F,20,
13,8,203,6,6,5,['d'],['d'],Y,N,None,Y,,,,,,,F,20,
13,9,204,0,0,5,['k'],['k'],Y,Y,None,N,,,,,,,F,20,
13,10,205,9,9,5,['d'],['d'],Y,N,None,Y,,,,,,,F,20,
13,11,206,8,8,5,['d'],['d'],Y,N,None,Y,,,,,,,F,20,
13,12,207,7,7,5,['d'],['d'],Y,N,None,Y,,,,,,,F,20,
13,13,208,8,8,5,['d'],['d'],Y,Y,['space'],Y,,,,,,,F,20,
13,14,209,13,13,5,['k'],['k'],Y,N,None,Y,,,,,,,F,20,
14,0,210,10,10,5,['d'],['d'],Y,Y,['space'],Y,,,,,,,F,20,
14,1,211,4,4,5,['k'],['d'],N,Y,['space'],Y,,,,,,,F,20,
14,2,212,12,12,5,['k'],['k'],Y,Y,['space'],Y,,,,,,,F,20,
14,3,213,3,3,5,['d'],['d'],Y,N,None,Y,,,,,,,F,20,
14,4,214,11,11,5,['d'],['d'],Y,Y,['space'],Y,,,,,,,F,20,
14,5,215,9,9,5,['d'],['d'],Y,Y,['space'],Y,,,,,,,F,20,
14,6,216,3,3,5,['k'],['k'],Y,Y,['space'],Y,,,,,,,F,20,
14,7,217,14,14,5,['k'],['k'],Y,N,None,Y,,,,,,,F,20,
14,8,218,8,8,5,['k'],['k'],Y,N,None,Y,,,,,,,F,20,
14,9,219,0,0,5,['d'],['d'],Y,N,None,Y,,,,,,,F,20,
14,10,220,14,14,5,['k'],['k'],Y,N,None,Y,,,,,,,F,20,
14,11,221,6,6,5,['d'],['d'],Y,Y,None,N,,,,,,,F,20,
14,12,222,13,13,5,['d'],['d'],Y,N,None,Y,,,,,,,F,20,
14,13,223,3,3,5,['d'],['d'],Y,Y,['space'],Y,,,,,,,F,20,
14,14,224,13,13,5,['k'],['k'],Y,N,None,Y,,,,,,,F,20,
15,0,225,5,5,5,['d'],['d'],Y,N,None,Y,,,,,,,F,20,
15,1,226,8,8,5,['d'],['d'],Y,Y,['space'],Y,,,,,,,F,20,
15,2,227,3,3,5,['k'],['k'],Y,N,None,Y,,,,,,,F,20,
15,3,228,3,3,5,['d'],['d'],Y,Y,['space'],Y,,,,,,,F,20,
15,4,229,14,14,5,['k'],['k'],Y,N,None,Y,,,,,,,F,20,
15,5,230,2,2,5,['d'],['k'],N,N,None,Y,,,,,,,F,20,
15,6,231,8,8,5,['k'],['k'],Y,Y,['space'],Y,,,,,,,F,20,
15,7,232,9,9,5,['k'],['k'],Y,N,None,Y,,,,,,,F,20,
15,8,233,13,13,5,['k'],['k'],Y,Y,['space'],Y,,,,,,,F,20,
15,9,234,8,8,5,['d'],['d'],Y,Y,['space'],Y,,,,,,,F,20,
15,10,235,6,6,5,['d'],['d'],Y,N,None,Y,,,,,,,F,20,
15,11,236,14,14,5,['d'],['d'],Y,Y,['space'],Y,,,,,,,F,20,
15,12,237,2,2,5,['d'],['d'],Y,Y,['space'],Y,,,,,,,F,20,
15,13,238,5,5,5,['k'],['k'],Y,Y,['space'],Y,,,,,,,F,20,
15,14,239,2,2,5,['d'],['d'],Y,N,None,Y,,,,,,,F,20,
16,0,240,14,14,5,['d'],['d'],Y,Y,['space'],Y,,,,,,,F,20,
16,1,241,8,8,5,['k'],['k'],Y,Y,['space'],Y,,,,,,,F,20,
16,2,242,6,6,5,['k'],['k'],Y,Y,['space'],Y,,,,,,,F,20,
16,3,243,11,11,5,['d'],['d'],Y,N,None,Y,,,,,,,F,20,
16,4,244,5,5,5,['d'],['d'],Y,Y,['space'],Y,,,,,,,F,20,
16,5,245,1,1,5,['d'],['d'],Y,Y,['space'],Y,,,,,,,F,20,
16,6,246,5,5,5,['k'],['k'],Y,N,None,Y,,,,,,,F,20,
16,7,247,13,13,5,['d'],['d'],Y,N,None,Y,,,,,,,F,20,
16,8,248,12,12,5,['k'],['k'],Y,N,None,Y,,,,,,,F,20,
16,9,249,12,12,5,['d'],['d'],Y,Y,['space'],Y,48,46,24,,,,F,20,
16,10,250,8,8,6,['k'],['k'],Y,,,,,,,,,,F,20,
16,11,251,0,0,6,['d'],['d'],Y,,,,,,,,,,F,20,
16,12,252,14,14,6,['d'],['k'],N,Y,['space'],Y,,,,,,,F,20,
16,13,253,10,10,6,['k'],['k'],Y,Y,None,N,,,,,,,F,20,
16,14,254,3,3,6,['d'],['d'],Y,N,None,Y,,,,,,,F,20,
17,0,255,8,8,6,['k'],['k'],Y,Y,['space'],Y,,,,,,,F,20,
17,1,256,5,5,6,['d'],['d'],Y,N,None,Y,,,,,,,F,20,
17,2,257,6,6,6,['k'],['k'],Y,N,None,Y,,,,,,,F,20,
17,3,258,8,8,6,['k'],['d'],N,N,None,Y,,,,,,,F,20,
17,4,259,6,6,6,['d'],['d'],Y,N,None,Y,,,,,,,F,20,
17,5,260,13,13,6,['k'],['k'],Y,Y,['space'],Y,,,,,,,F,20,
17,6,261,7,7,6,['d'],['d'],Y,Y,['space'],Y,,,,,,,F,20,
17,7,262,1,1,6,['k'],['k'],Y,Y,['space'],Y,,,,,,,F,20,
17,8,263,6,6,6,['d'],['d'],Y,N,['space'],N,,,,,,,F,20,
17,9,264,14,14,6,['d'],['k'],N,N,None,Y,,,,,,,F,20,
17,10,265,14,14,6,['k'],['d'],N,N,None,Y,,,,,,,F,20,
17,11,266,4,4,6,['d'],['d'],Y,Y,['space'],Y,,,,,,,F,20,
17,12,267,8,8,6,['d'],['d'],Y,N,None,Y,,,,,,,F,20,
17,13,268,9,9,6,['k'],['k'],Y,N,None,Y,,,,,,,F,20,
17,14,269,12,12,6,['k'],['k'],Y,Y,['space'],Y,,,,,,,F,20,
18,0,270,11,11,6,['k'],['k'],Y,N,None,Y,,,,,,,F,20,
18,1,271,8,8,6,['d'],['d'],Y,Y,['space'],Y,,,,,,,F,20,
18,2,272,14,14,6,['k'],['k'],Y,Y,['space'],Y,,,,,,,F,20,
18,3,273,14,14,6,['k'],['k'],Y,Y,['space'],Y,,,,,,,F,20,
18,4,274,5,5,6,['d'],['d'],Y,Y,['space'],Y,,,,,,,F,20,
18,5,275,7,7,6,['k'],['k'],Y,N,None,Y,,,,,,,F,20,
18,6,276,4,4,6,['k'],['k'],Y,Y,['space'],Y,,,,,,,F,20,
18,7,277,6,6,6,['k'],['k'],Y,N,None,Y,,,,,,,F,20,
18,8,278,3,3,6,['d'],['d'],Y,Y,['space'],Y,,,,,,,F,20,
18,9,279,7,7,6,['k'],['k'],Y,N,None,Y,,,,,,,F,20,
18,10,280,10,10,6,['d'],['d'],Y,Y,['space'],Y,,,,,,,F,20,
18,11,281,3,3,6,['k'],['k'],Y,Y,['space'],Y,,,,,,,F,20,
18,12,282,13,13,6,['k'],['k'],Y,N,None,Y,,,,,,,F,20,
18,13,283,12,12,6,['k'],['k'],Y,N,None,Y,,,,,,,F,20,
18,14,284,0,0,6,['d'],['k'],N,Y,['space'],Y,,,,,,,F,20,
19,0,285,10,10,6,['k'],['k'],Y,Y,['space'],Y,,,,,,,F,20,
19,1,286,11,11,6,['k'],['k'],Y,Y,['space'],Y,,,,,,,F,20,
19,2,287,5,5,6,['k'],['k'],Y,N,None,Y,,,,,,,F,20,
19,3,288,11,11,6,['k'],['k'],Y,N,None,Y,,,,,,,F,20,
19,4,289,8,8,6,['d'],['d'],Y,N,None,Y,,,,,,,F,20,
19,5,290,12,12,6,['d'],['d'],Y,N,None,Y,,,,,,,F,20,
19,6,291,13,13,6,['k'],['k'],Y,Y,['space'],Y,,,,,,,F,20,
19,7,292,2,2,6,['k'],['k'],Y,Y,['space'],Y,,,,,,,F,20,
19,8,293,7,7,6,['d'],['d'],Y,N,None,Y,,,,,,,F,20,
19,9,294,9,9,6,['d'],['d'],Y,Y,['space'],Y,,,,,,,F,20,
19,10,295,2,2,6,['d'],['d'],Y,Y,['space'],Y,,,,,,,F,20,
19,11,296,2,2,6,['d'],['d'],Y,N,None,Y,,,,,,,F,20,
19,12,297,13,13,6,['d'],['d'],Y,Y,['space'],Y,,,,,,,F,20,
19,13,298,3,3,6,['k'],['k'],Y,N,None,Y,,,,,,,F,20,
19,14,299,0,0,6,['d'],['d'],Y,N,None,Y,45,46,24,,,,F,20,
20,0,300,3,3,7,['d'],['d'],Y,,,,,,,,,,F,20,
20,1,301,5,5,7,['d'],['d'],Y,,,,,,,,,,F,20,
20,2,302,9,9,7,['k'],['k'],Y,N,None,Y,,,,,,,F,20,
20,3,303,0,0,7,['d'],['d'],Y,Y,None,N,,,,,,,F,20,
20,4,304,12,12,7,['k'],['k'],Y,Y,['k'],N,,,,,,,F,20,
20,5,305,10,10,7,['d'],['d'],Y,N,None,Y,,,,,,,F,20,
20,6,306,13,13,7,['d'],['d'],Y,Y,['space'],Y,,,,,,,F,20,
20,7,307,12,12,7,['k'],['k'],Y,Y,['space'],Y,,,,,,,F,20,
20,8,308,1,1,7,['d'],['d'],Y,Y,None,N,,,,,,,F,20,
20,9,309,5,5,7,['k'],['k'],Y,N,None,Y,,,,,,,F,20,
20,10,310,2,2,7,['k'],['k'],Y,Y,['space'],Y,,,,,,,F,20,
20,11,311,9,9,7,['k'],['k'],Y,N,None,Y,,,,,,,F,20,
20,12,312,9,9,7,['k'],['k'],Y,Y,['space'],Y,,,,,,,F,20,
20,13,313,8,8,7,['k'],['k'],Y,Y,['space'],Y,,,,,,,F,20,
20,14,314,3,3,7,['k'],['k'],Y,Y,['space'],Y,,,,,,,F,20,
21,0,315,2,2,7,['k'],['k'],Y,N,None,Y,,,,,,,F,20,
21,1,316,2,2,7,['k'],['k'],Y,N,None,Y,,,,,,,F,20,
21,2,317,5,5,7,['k'],['k'],Y,N,None,Y,,,,,,,F,20,
21,3,318,10,10,7,['k'],['k'],Y,N,None,Y,,,,,,,F,20,
21,4,319,12,12,7,['k'],['k'],Y,Y,['space'],Y,,,,,,,F,20,
21,5,320,11,11,7,['d'],['d'],Y,Y,None,N,,,,,,,F,20,
21,6,321,10,10,7,['k'],['k'],Y,N,['space'],N,,,,,,,F,20,
21,7,322,6,6,7,['k'],['k'],Y,Y,['space'],Y,,,,,,,F,20,
21,8,323,6,6,7,['k'],['k'],Y,Y,['space'],Y,,,,,,,F,20,
21,9,324,7,7,7,['k'],['k'],Y,Y,['space'],Y,,,,,,,F,20,
21,10,325,4,4,7,['d'],['d'],Y,N,None,Y,,,,,,,F,20,
21,11,326,2,2,7,['d'],['d'],Y,Y,['space'],Y,,,,,,,F,20,
21,12,327,8,8,7,['k'],['k'],Y,Y,['space'],Y,,,,,,,F,20,
21,13,328,3,3,7,['k'],['k'],Y,N,None,Y,,,,,,,F,20,
21,14,329,9,9,7,['d'],['d'],Y,N,None,Y,,,,,,,F,20,
22,0,330,9,9,7,['k'],['k'],Y,N,None,Y,,,,,,,F,20,
22,1,331,4,4,7,['k'],['k'],Y,Y,['space'],Y,,,,,,,F,20,
22,2,332,10,10,7,['k'],['k'],Y,N,None,Y,,,,,,,F,20,
22,3,333,12,12,7,['k'],['k'],Y,N,None,Y,,,,,,,F,20,
22,4,334,14,14,7,['k'],['k'],Y,Y,['space'],Y,,,,,,,F,20,
22,5,335,12,12,7,['k'],['k'],Y,N,None,Y,,,,,,,F,20,
22,6,336,12,12,7,['k'],['k'],Y,Y,['space'],Y,,,,,,,F,20,
22,7,337,0,0,7,['d'],['d'],Y,N,None,Y,,,,,,,F,20,
22,8,338,4,4,7,['k'],['k'],Y,N,['space'],N,,,,,,,F,20,
22,9,339,4,4,7,['k'],['k'],Y,N,None,Y,,,,,,,F,20,
22,10,340,10,10,7,['k'],['k'],Y,Y,['space'],Y,,,,,,,F,20,
22,11,341,6,6,7,['d'],['d'],Y,N,None,Y,,,,,,,F,20,
22,12,342,3,3,7,['k'],['k'],Y,Y,['space'],Y,,,,,,,F,20,
22,13,343,8,8,7,['d'],['d'],Y,N,None,Y,,,,,,,F,20,
22,14,344,8,8,7,['k'],['k'],Y,Y,None,N,,,,,,,F,20,
23,0,345,13,13,7,['d'],['d'],Y,N,None,Y,,,,,,,F,20,
23,1,346,9,9,7,['d'],['d'],Y,Y,['space'],Y,,,,,,,F,20,
23,2,347,12,12,7,['d'],['d'],Y,N,['space'],N,,,,,,,F,20,
23,3,348,5,5,7,['d'],['d'],Y,Y,['space'],Y,,,,,,,F,20,
23,4,349,2,2,7,['k'],['k'],Y,N,None,Y,50,40,24,,,,F,20,
23,5,350,8,8,8,['d'],['d'],Y,,,,,,,,,,F,20,
23,6,351,9,9,8,['d'],['d'],Y,,,,,,,,,,F,20,
23,7,352,1,1,8,['k'],['k'],Y,N,None,Y,,,,,,,F,20,
23,8,353,1,1,8,['k'],['k'],Y,N,None,Y,,,,,,,F,20,
23,9,354,14,14,8,['k'],['k'],Y,N,None,Y,,,,,,,F,20,
23,10,355,7,7,8,['k'],['k'],Y,N,None,Y,,,,,,,F,20,
23,11,356,2,2,8,['d'],['d'],Y,Y,['space'],Y,,,,,,,F,20,
23,12,357,9,9,8,['d'],['d'],Y,N,None,Y,,,,,,,F,20,
23,13,358,9,9,8,['k'],['d'],N,Y,['space'],Y,,,,,,,F,20,
23,14,359,1,1,8,['k'],['k'],Y,Y,['space'],Y,,,,,,,F,20,
24,0,360,11,11,8,['k'],['d'],N,Y,['space'],Y,,,,,,,F,20,
24,1,361,7,7,8,['k'],['k'],Y,Y,['space'],Y,,,,,,,F,20,
24,2,362,12,12,8,['d'],['d'],Y,N,None,Y,,,,,,,F,20,
24,3,363,7,7,8,['k'],['k'],Y,N,None,Y,,,,,,,F,20,
24,4,364,8,8,8,['d'],['d'],Y,Y,None,N,,,,,,,F,20,
24,5,365,6,6,8,['d'],['d'],Y,Y,['space'],Y,,,,,,,F,20,
24,6,366,9,9,8,['d'],['d'],Y,N,None,Y,,,,,,,F,20,
24,7,367,1,1,8,['d'],['d'],Y,Y,['space'],Y,,,,,,,F,20,
24,8,368,9,9,8,['d'],['d'],Y,Y,['space'],Y,,,,,,,F,20,
24,9,369,5,5,8,['d'],['d'],Y,N,None,Y,,,,,,,F,20,
24,10,370,14,14,8,['k'],['k'],Y,Y,['space'],Y,,,,,,,F,20,
24,11,371,12,12,8,['d'],['k'],N,N,None,Y,,,,,,,F,20,
24,12,372,7,7,8,['d'],['d'],Y,N,None,Y,,,,,,,F,20,
24,13,373,1,1,8,['k'],['k'],Y,N,None,Y,,,,,,,F,20,
24,14,374,14,14,8,['k'],['k'],Y,Y,['space'],Y,,,,,,,F,20,
25,0,375,6,6,8,['d'],['d'],Y,Y,['space'],Y,,,,,,,F,20,
25,1,376,0,0,8,['k'],['k'],Y,N,None,Y,,,,,,,F,20,
25,2,377,4,4,8,['k'],['k'],Y,Y,['space'],Y,,,,,,,F,20,
25,3,378,1,1,8,['k'],['k'],Y,N,None,Y,,,,,,,F,20,
25,4,379,4,4,8,['d'],['d'],Y,Y,['space'],Y,,,,,,,F,20,
25,5,380,0,0,8,['d'],['d'],Y,N,None,Y,,,,,,,F,20,
25,6,381,10,10,8,['k'],['k'],Y,N,None,Y,,,,,,,F,20,
25,7,382,7,7,8,['k'],['k'],Y,Y,['space'],Y,,,,,,,F,20,
25,8,383,5,5,8,['d'],['d'],Y,Y,['space'],Y,,,,,,,F,20,
25,9,384,5,5,8,['d'],['d'],Y,Y,['space'],Y,,,,,,,F,20,
25,10,385,6,6,8,['k'],['k'],Y,Y,['space'],Y,,,,,,,F,20,
25,11,386,12,12,8,['k'],['k'],Y,Y,['space'],Y,,,,,,,F,20,
25,12,387,1,1,8,['k'],['d'],N,N,['space'],N,,,,,,,F,20,
25,13,388,10,10,8,['k'],['k'],Y,N,['space'],N,,,,,,,F,20,
25,14,389,10,10,8,['k'],['d'],N,N,['space'],N,,,,,,,F,20,
26,0,390,11,11,8,['d'],['d'],Y,N,None,Y,,,,,,,F,20,
26,1,391,5,5,8,['k'],['k'],Y,Y,['space'],Y,,,,,,,F,20,
26,2,392,8,8,8,['k'],['d'],N,Y,['space'],Y,,,,,,,F,20,
26,3,393,8,8,8,['k'],['k'],Y,Y,['space'],Y,,,,,,,F,20,
26,4,394,8,8,8,['k'],['k'],Y,N,None,Y,,,,,,,F,20,
26,5,395,5,5,8,['d'],['d'],Y,N,None,Y,,,,,,,F,20,
26,6,396,2,2,8,['d'],['d'],Y,N,None,Y,,,,,,,F,20,
26,7,397,8,8,8,['d'],['d'],Y,N,None,Y,,,,,,,F,20,
26,8,398,5,5,8,['d'],['d'],Y,Y,['space'],Y,,,,,,,F,20,
26,9,399,6,6,8,['k'],['d'],N,Y,['space'],Y,43,44,24,,,,F,20,
26,10,400,6,6,9,['k'],['k'],Y,,,,,,,,,,F,20,
26,11,401,1,1,9,['k'],['k'],Y,,,,,,,,,,F,20,
26,12,402,1,1,9,['d'],['d'],Y,N,None,Y,,,,,,,F,20,
26,13,403,11,11,9,['d'],['d'],Y,N,None,Y,,,,,,,F,20,
26,14,404,11,11,9,['k'],['k'],Y,Y,['space'],Y,,,,,,,F,20,
27,0,405,11,11,9,['d'],['d'],Y,N,None,Y,,,,,,,F,20,
27,1,406,9,9,9,['k'],['k'],Y,N,None,Y,,,,,,,F,20,
27,2,407,3,3,9,['d'],['d'],Y,N,None,Y,,,,,,,F,20,
27,3,408,9,9,9,['d'],['d'],Y,Y,['space'],Y,,,,,,,F,20,
27,4,409,2,2,9,['k'],['k'],Y,N,None,Y,,,,,,,F,20,
27,5,410,0,0,9,['d'],['d'],Y,N,None,Y,,,,,,,F,20,
27,6,411,1,1,9,['k'],['k'],Y,Y,None,N,,,,,,,F,20,
27,7,412,1,1,9,['d'],['d'],Y,N,None,Y,,,,,,,F,20,
27,8,413,13,13,9,['d'],['d'],Y,Y,['space'],Y,,,,,,,F,20,
27,9,414,11,11,9,['k'],['k'],Y,N,None,Y,,,,,,,F,20,
27,10,415,0,0,9,['d'],['d'],Y,N,None,Y,,,,,,,F,20,
27,11,416,8,8,9,['d'],['d'],Y,Y,['space'],Y,,,,,,,F,20,
27,12,417,13,13,9,['k'],['k'],Y,Y,['space'],Y,,,,,,,F,20,
27,13,418,6,6,9,['k'],['k'],Y,Y,['space'],Y,,,,,,,F,20,
27,14,419,11,11,9,['k'],['k'],Y,N,None,Y,,,,,,,F,20,
28,0,420,7,7,9,['d'],['d'],Y,Y,['space'],Y,,,,,,,F,20,
28,1,421,7,7,9,['k'],['k'],Y,N,None,Y,,,,,,,F,20,
28,2,422,1,1,9,['d'],['d'],Y,Y,['space'],Y,,,,,,,F,20,
28,3,423,2,2,9,['k'],['k'],Y,N,None,Y,,,,,,,F,20,
28,4,424,12,12,9,['k'],['k'],Y,Y,['space'],Y,,,,,,,F,20,
28,5,425,6,6,9,['k'],['k'],Y,Y,['space'],Y,,,,,,,F,20,
28,6,426,7,7,9,['d'],['d'],Y,N,None,Y,,,,,,,F,20,
28,7,427,9,9,9,['d'],['d'],Y,N,None,Y,,,,,,,F,20,
28,8,428,11,11,9,['k'],['k'],Y,Y,['space'],Y,,,,,,,F,20,
28,9,429,4,4,9,['k'],['k'],Y,Y,['space'],Y,,,,,,,F,20,
28,10,430,6,6,9,['k'],['k'],Y,Y,['space'],Y,,,,,,,F,20,
28,11,431,4,4,9,['k'],['k'],Y,N,None,Y,,,,,,,F,20,
28,12,432,3,3,9,['d'],['d'],Y,Y,['space'],Y,,,,,,,F,20,
28,13,433,5,5,9,['k'],['k'],Y,Y,['k'],N,,,,,,,F,20,
28,14,434,6,6,9,['d'],['d'],Y,Y,['space'],Y,,,,,,,F,20,
29,0,435,11,11,9,['k'],['k'],Y,Y,['space'],Y,,,,,,,F,20,
29,1,436,11,11,9,['d'],['d'],Y,Y,['space'],Y,,,,,,,F,20,
29,2,437,12,12,9,['k'],['k'],Y,Y,['space'],Y,,,,,,,F,20,
29,3,438,13,13,9,['d'],['d'],Y,N,None,Y,,,,,,,F,20,
29,4,439,10,10,9,['k'],['k'],Y,Y,None,N,,,,,,,F,20,
29,5,440,2,2,9,['d'],['d'],Y,Y,['space'],Y,,,,,,,F,20,
29,6,441,11,11,9,['k'],['k'],Y,Y,['space'],Y,,,,,,,F,20,
29,7,442,7,7,9,['k'],['k'],Y,N,None,Y,,,,,,,F,20,
29,8,443,7,7,9,['k'],['d'],N,Y,['space'],Y,,,,,,,F,20,
29,9,444,13,13,9,['d'],['d'],Y,N,None,Y,,,,,,,F,20,
29,10,445,2,2,9,['d'],['d'],Y,Y,['space'],Y,,,,,,,F,20,
29,11,446,12,12,9,['k'],['k'],Y,N,None,Y,,,,,,,F,20,
29,12,447,2,2,9,['d'],['k'],N,N,None,Y,,,,,,,F,20,
29,13,448,3,3,9,['k'],['k'],Y,N,None,Y,,,,,,,F,20,
29,14,449,14,14,9,['d'],['d'],Y,N,None,Y,48,45,25,,,,F,20,
30,0,450,14,14,10,['d'],['d'],Y,,,,,,,,,,F,20,
30,1,451,10,10,10,['k'],['k'],Y,,,,,,,,,,F,20,
30,2,452,2,2,10,['d'],['d'],Y,Y,['space'],Y,,,,,,,F,20,
30,3,453,14,14,10,['d'],['d'],Y,Y,['space'],Y,,,,,,,F,20,
30,4,454,4,4,10,['d'],['d'],Y,N,None,Y,,,,,,,F,20,
30,5,455,9,9,10,['d'],['d'],Y,N,None,Y,,,,,,,F,20,
30,6,456,1,1,10,['k'],['k'],Y,Y,['space'],Y,,,,,,,F,20,
30,7,457,6,6,10,['d'],['d'],Y,Y,['space'],Y,,,,,,,F,20,
30,8,458,7,7,10,['d'],['d'],Y,Y,['space'],Y,,,,,,,F,20,
30,9,459,7,7,10,['d'],['d'],Y,Y,['space'],Y,,,,,,,F,20,
30,10,460,8,8,10,['k'],['k'],Y,Y,['space'],Y,,,,,,,F,20,
30,11,461,1,1,10,['d'],['d'],Y,Y,['space'],Y,,,,,,,F,20,
30,12,462,2,2,10,['d'],['d'],Y,N,None,Y,,,,,,,F,20,
30,13,463,1,1,10,['k'],['k'],Y,N,None,Y,,,,,,,F,20,
30,14,464,5,5,10,['d'],['d'],Y,N,None,Y,,,,,,,F,20,
31,0,465,14,14,10,['k'],['k'],Y,N,None,Y,,,,,,,F,20,
31,1,466,3,3,10,['d'],['d'],Y,Y,None,N,,,,,,,F,20,
31,2,467,3,3,10,['d'],['d'],Y,N,None,Y,,,,,,,F,20,
31,3,468,2,2,10,['k'],['k'],Y,N,None,Y,,,,,,,F,20,
31,4,469,13,13,10,['d'],['d'],Y,Y,['space'],Y,,,,,,,F,20,
31,5,470,1,1,10,['d'],['d'],Y,N,None,Y,,,,,,,F,20,
31,6,471,7,7,10,['d'],['d'],Y,N,None,Y,,,,,,,F,20,
31,7,472,7,7,10,['k'],['k'],Y,Y,['space'],Y,,,,,,,F,20,
31,8,473,4,4,10,['k'],['k'],Y,Y,['space'],Y,,,,,,,F,20,
31,9,474,9,9,10,['d'],['k'],N,N,None,Y,,,,,,,F,20,
31,10,475,6,6,10,['k'],['k'],Y,Y,None,N,,,,,,,F,20,
31,11,476,12,12,10,['d'],['k'],N,Y,['space'],Y,,,,,,,F,20,
31,12,477,11,11,10,['k'],['k'],Y,Y,['space'],Y,,,,,,,F,20,
31,13,478,11,11,10,['k'],['k'],Y,N,None,Y,,,,,,,F,20,
31,14,479,13,13,10,['d'],['d'],Y,N,None,Y,,,,,,,F,20,
32,0,480,14,14,10,['k'],['k'],Y,N,None,Y,,,,,,,F,20,
32,1,481,9,9,10,['d'],['d'],Y,Y,['space'],Y,,,,,,,F,20,
32,2,482,10,10,10,['k'],['k'],Y,Y,None,N,,,,,,,F,20,
32,3,483,12,12,10,['d'],['d'],Y,Y,None,N,,,,,,,F,20,
32,4,484,12,12,10,['d'],['d'],Y,Y,['space'],Y,,,,,,,F,20,
32,5,485,12,12,10,['k'],['k'],Y,N,None,Y,,,,,,,F,20,
32,6,486,12,12,10,['k'],['k'],Y,Y,['space'],Y,,,,,,,F,20,
32,7,487,9,9,10,['d'],['d'],Y,Y,['space'],Y,,,,,,,F,20,
32,8,488,6,6,10,['k'],['k'],Y,Y,['space'],Y,,,,,,,F,20,
32,9,489,3,3,10,['k'],['k'],Y,N,None,Y,,,,,,,F,20,
32,10,490,1,1,10,['k'],['k'],Y,N,None,Y,,,,,,,F,20,
32,11,491,1,1,10,['d'],['d'],Y,Y,['space'],Y,,,,,,,F,20,
32,12,492,14,14,10,['d'],['d'],Y,Y,['space'],Y,,,,,,,F,20,
32,13,493,5,5,10,['d'],['d'],Y,N,None,Y,,,,,,,F,20,
32,14,494,4,4,10,['k'],['k'],Y,Y,['space'],Y,,,,,,,F,20,
33,0,495,7,7,10,['d'],['d'],Y,N,None,Y,,,,,,,F,20,
33,1,496,0,0,10,['k'],['k'],Y,N,None,Y,,,,,,,F,20,
33,2,497,13,13,10,['d'],['d'],Y,N,['space'],N,,,,,,,F,20,
33,3,498,0,0,10,['k'],['k'],Y,N,None,Y,,,,,,,F,20,
33,4,499,1,1,10,['d'],['d'],Y,N,None,Y,48,43,25,,,,F,20,
33,5,500,12,12,11,['d'],['k'],Y,,,,,,,Y,Y,Y,F,20,
33,6,501,7,7,11,['d'],['d'],N,,,,,,,,Y,Y,F,20,
33,7,502,2,2,11,['k'],['d'],Y,N,None,Y,,,,,Y,Y,F,20,
33,8,503,4,4,11,['d'],['k'],Y,Y,['space'],Y,,,,,Y,Y,F,20,
33,9,504,1,1,11,['k'],['d'],Y,Y,['space'],Y,,,,,Y,Y,F,20,
33,10,505,5,5,11,['k'],['k'],N,N,None,Y,,,,,Y,Y,F,20,
33,11,506,9,9,11,['d'],['k'],Y,Y,['space'],Y,,,,,Y,Y,F,20,
33,12,507,4,4,11,['d'],['k'],Y,Y,['space'],Y,,,,,Y,Y,F,20,
33,13,508,10,10,11,['d'],['k'],Y,N,None,Y,,,,,Y,Y,F,20,
33,14,509,13,13,11,['k'],['d'],Y,Y,['space'],Y,,,,,Y,Y,F,20,
34,0,510,0,0,11,['d'],['k'],Y,Y,None,N,,,,,Y,Y,F,20,
34,1,511,14,14,11,None,,Timed out,Y,['space'],Y,,,,,Y,Y,F,20,
34,2,512,14,14,11,['k'],['d'],Y,N,['space'],N,,,,,Y,Y,F,20,
34,3,513,10,10,11,['d'],['k'],Y,N,None,Y,,,,,Y,Y,F,20,
34,4,514,10,10,11,['k'],['d'],Y,N,['space'],N,,,,,Y,Y,F,20,
34,5,515,8,8,11,['d'],['k'],Y,Y,None,N,,,,,Y,Y,F,20,
34,6,516,4,4,11,['d'],['k'],Y,Y,['space'],Y,,,,,Y,Y,F,20,
34,7,517,0,0,11,['k'],['d'],Y,N,None,Y,,,,,Y,Y,F,20,
34,8,518,9,9,11,['k'],['d'],Y,N,None,Y,,,,,Y,Y,F,20,
34,9,519,13,13,11,['d'],['k'],Y,Y,['space'],Y,,,,,Y,Y,F,20,
34,10,520,0,0,11,['k'],['d'],Y,Y,['k'],N,,,,,Y,Y,F,20,
34,11,521,1,1,11,['k'],['d'],Y,N,None,Y,,,,,Y,Y,F,20,
34,12,522,6,6,11,['d'],['k'],Y,N,None,Y,,,,,Y,Y,F,20,
34,13,523,4,4,11,['d'],['k'],Y,N,None,Y,,,,,Y,Y,F,20,
34,14,524,4,4,11,['k'],['d'],Y,Y,['space'],Y,,,,,Y,Y,F,20,
35,0,525,3,3,11,['k'],['d'],Y,Y,['space'],Y,,,,,Y,Y,F,20,
35,1,526,5,5,11,['d'],['k'],Y,Y,['space'],Y,,,,,Y,Y,F,20,
35,2,527,11,11,11,['k'],['d'],Y,Y,['space'],Y,,,,,Y,Y,F,20,
35,3,528,14,14,11,['d'],['k'],Y,Y,['space'],Y,,,,,Y,Y,F,20,
35,4,529,10,10,11,['k'],['d'],Y,Y,['space'],Y,,,,,Y,Y,F,20,
35,5,530,1,1,11,['d'],['k'],Y,Y,['d'],N,,,,,Y,Y,F,20,
35,6,531,14,14,11,['d'],['d'],N,N,None,Y,,,,,Y,Y,F,20,
35,7,532,12,12,11,['d'],['k'],Y,N,None,Y,,,,,Y,Y,F,20,
35,8,533,3,3,11,['d'],['k'],Y,N,None,Y,,,,,Y,Y,F,20,
35,9,534,1,1,11,['d'],['k'],Y,N,None,Y,,,,,Y,Y,F,20,
35,10,535,1,1,11,['k'],['d'],Y,Y,['space'],Y,,,,,Y,Y,F,20,
35,11,536,14,14,11,['k'],['d'],Y,Y,['space'],Y,,,,,Y,Y,F,20,
35,12,537,13,13,11,['k'],['d'],Y,N,None,Y,,,,,Y,Y,F,20,
35,13,538,6,6,11,['k'],['k'],N,Y,['space'],Y,,,,,Y,Y,F,20,
35,14,539,4,4,11,['d'],['k'],Y,N,None,Y,,,,,Y,Y,F,20,
36,0,540,0,0,11,['d'],['k'],Y,N,None,Y,,,,,Y,Y,F,20,
36,1,541,8,8,11,None,,Timed out,N,None,Y,,,,,Y,Y,F,20,
36,2,542,4,4,11,['k'],['d'],Y,Y,['space'],Y,,,,,Y,Y,F,20,
36,3,543,6,6,11,['k'],['d'],Y,N,None,Y,,,,,Y,Y,F,20,
36,4,544,9,9,11,['k'],['d'],Y,Y,['space'],Y,,,,,Y,Y,F,20,
36,5,545,9,9,11,['k'],['d'],Y,N,None,Y,,,,,Y,Y,F,20,
36,6,546,9,9,11,['k'],['d'],Y,N,['space'],N,,,,,Y,Y,F,20,
36,7,547,4,4,11,['k'],['d'],Y,N,['space'],N,,,,,Y,Y,F,20,
36,8,548,10,10,11,['k'],['d'],Y,Y,['space'],Y,,,,,Y,Y,F,20,
36,9,549,0,0,11,None,,Timed out,N,None,Y,43,40,24,,Y,Y,F,20,
36,10,550,13,13,12,['k'],['d'],Y,,,,,,,,Y,Y,F,20,
36,11,551,8,8,12,['k'],['d'],Y,,,,,,,,Y,Y,F,20,
36,12,552,12,12,12,['k'],['d'],Y,Y,['space'],Y,,,,,Y,Y,F,20,
36,13,553,2,2,12,['k'],['d'],Y,Y,['space'],Y,,,,,Y,Y,F,20,
36,14,554,2,2,12,['d'],['k'],Y,N,None,Y,,,,,Y,Y,F,20,
37,0,555,6,6,12,['d'],['k'],Y,Y,['space'],Y,,,,,Y,Y,F,20,
37,1,556,0,0,12,['k'],['d'],Y,N,None,Y,,,,,Y,Y,F,20,
37,2,557,6,6,12,['d'],['k'],Y,N,None,Y,,,,,Y,Y,F,20,
37,3,558,8,8,12,['d'],['k'],Y,Y,['space'],Y,,,,,Y,Y,F,20,
37,4,559,0,0,12,['d'],['k'],Y,N,None,Y,,,,,Y,Y,F,20,
37,5,560,9,9,12,['d'],['k'],Y,N,None,Y,,,,,Y,Y,F,20,
37,6,561,7,7,12,['d'],['k'],Y,N,None,Y,,,,,Y,Y,F,20,
37,7,562,0,0,12,['k'],['d'],Y,N,None,Y,,,,,Y,Y,F,20,
37,8,563,3,3,12,['d'],['k'],Y,Y,['space'],Y,,,,,Y,Y,F,20,
37,9,564,1,1,12,['k'],['d'],Y,N,None,Y,,,,,Y,Y,F,20,
37,10,565,0,0,12,['k'],['d'],Y,Y,['space'],Y,,,,,Y,Y,F,20,
37,11,566,4,4,12,['d'],['k'],Y,N,None,Y,,,,,Y,Y,F,20,
37,12,567,11,11,12,['k'],['d'],Y,N,['k'],N,,,,,Y,Y,F,20,
37,13,568,12,12,12,['k'],['d'],Y,N,None,Y,,,,,Y,Y,F,20,
37,14,569,5,5,12,['k'],['d'],Y,N,None,Y,,,,,Y,Y,F,20,
38,0,570,6,6,12,['k'],['d'],Y,N,None,Y,,,,,Y,Y,F,20,
38,1,571,9,9,12,['d'],['k'],Y,Y,['space'],Y,,,,,Y,Y,F,20,
38,2,572,11,11,12,['d'],['k'],Y,N,None,Y,,,,,Y,Y,F,20,
38,3,573,12,12,12,['d'],['k'],Y,N,None,Y,,,,,Y,Y,F,20,
38,4,574,7,7,12,['d'],['k'],Y,Y,['space'],Y,,,,,Y,Y,F,20,
38,5,575,8,8,12,['k'],['d'],Y,Y,['space'],Y,,,,,Y,Y,F,20,
38,6,576,4,4,12,['d'],['k'],Y,N,None,Y,,,,,Y,Y,F,20,
38,7,577,14,14,12,['d'],['k'],Y,N,None,Y,,,,,Y,Y,F,20,
38,8,578,3,3,12,['d'],['k'],Y,Y,['space'],Y,,,,,Y,Y,F,20,
38,9,579,4,4,12,['d'],['k'],Y,N,None,Y,,,,,Y,Y,F,20,
38,10,580,11,11,12,['k'],['d'],Y,Y,['space'],Y,,,,,Y,Y,F,20,
38,11,581,12,12,12,['k'],['d'],Y,N,None,Y,,,,,Y,Y,F,20,
38,12,582,8,8,12,['k'],['d'],Y,N,None,Y,,,,,Y,Y,F,20,
38,13,583,12,12,12,['k'],['d'],Y,N,None,Y,,,,,Y,Y,F,20,
38,14,584,9,9,12,['d'],['k'],Y,N,None,Y,,,,,Y,Y,F,20,
39,0,585,4,4,12,['k'],['d'],Y,Y,['space'],Y,,,,,Y,Y,F,20,
39,1,586,9,9,12,['d'],['k'],Y,Y,['space'],Y,,,,,Y,Y,F,20,
39,2,587,2,2,12,['d'],['k'],Y,N,None,Y,,,,,Y,Y,F,20,
39,3,588,3,3,12,['k'],['d'],Y,N,None,Y,,,,,Y,Y,F,20,
39,4,589,1,1,12,['d'],['k'],Y,N,None,Y,,,,,Y,Y,F,20,
39,5,590,14,14,12,['k'],['d'],Y,Y,['space'],Y,,,,,Y,Y,F,20,
39,6,591,4,4,12,['k'],['d'],Y,Y,['space'],Y,,,,,Y,Y,F,20,
39,7,592,0,0,12,['d'],['k'],Y,Y,['space'],Y,,,,,Y,Y,F,20,
39,8,593,7,7,12,['d'],['k'],Y,Y,['space'],Y,,,,,Y,Y,F,20,
39,9,594,10,10,12,['k'],['d'],Y,N,None,Y,,,,,Y,Y,F,20,
39,10,595,13,13,12,['k'],['d'],Y,N,None,Y,,,,,Y,Y,F,20,
39,11,596,11,11,12,['k'],['d'],Y,Y,['space'],Y,,,,,Y,Y,F,20,
39,12,597,14,14,12,['d'],['k'],Y,Y,['space'],Y,,,,,Y,Y,F,20,
39,13,598,3,3,12,['d'],['d'],N,Y,['space'],Y,,,,,Y,Y,F,20,
39,14,599,2,2,12,['d'],['k'],Y,Y,['space'],Y,49,47,21,,Y,Y,F,20,
