.thisRepN,.thisTrialN,.thisN,.thisIndex,.thisTrial,Block Number,Key pressed,Correct?,Int Match?,Int Response,Int Correct?,Category,Line Accuracy,Interference Accuracy,Matching Interferences,New instruction shown?,Buttons switched?,Fast?,gender,age,
0,0,0,11,11,1,None,Timed out,,,,,,,,,,,F,20,
0,1,1,3,3,1,None,Timed out,,,,,,,,,,,F,20,
0,2,2,3,3,1,None,Timed out,N,None,Y,,,,,,,,F,20,
0,3,3,7,7,1,None,Timed out,N,None,Y,,,,,,,,F,20,
0,4,4,0,0,1,None,Timed out,Y,['space'],Y,,,,,,,,F,20,
0,5,5,11,11,1,None,Timed out,Y,['d'],N,,,,,,,,F,20,
0,6,6,7,7,1,['k'],N,N,None,Y,['d'],,,,,,,F,20,
0,7,7,14,14,1,None,Timed out,N,None,Y,,,,,,,,F,20,
0,8,8,6,6,1,['d'],N,N,None,Y,['k'],,,,,,,F,20,
0,9,9,4,4,1,['d'],Y,Y,None,N,['d'],,,,,,,F,20,
0,10,10,10,10,1,['k'],N,N,None,Y,['d'],,,,,,,F,20,
0,11,11,5,5,1,['d'],N,N,None,Y,['k'],,,,,,,F,20,
0,12,12,4,4,1,None,Timed out,N,None,Y,,,,,,,,F,20,
0,13,13,4,4,1,['k'],Y,N,None,Y,['k'],,,,,,,F,20,
0,14,14,4,4,1,None,Timed out,N,None,Y,,,,,,,,F,20,
1,0,15,7,7,1,None,Timed out,N,None,Y,,,,,,,,F,20,
1,1,16,4,4,1,['k'],N,Y,['k'],N,['d'],,,,,,,F,20,
1,2,17,7,7,1,['d'],Y,Y,None,N,['d'],,,,,,,F,20,
1,3,18,1,1,1,['d'],N,Y,None,N,['k'],,,,,,,F,20,
1,4,19,1,1,1,['k'],N,Y,None,N,['d'],,,,,,,F,20,
1,5,20,4,4,1,['d'],Y,N,None,Y,['d'],,,,,,,F,20,
1,6,21,13,13,1,['d'],N,N,None,Y,['k'],,,,,,,F,20,
1,7,22,6,6,1,['d'],Y,Y,None,N,['d'],,,,,,,F,20,
1,8,23,12,12,1,['k'],N,N,None,Y,['d'],,,,,,,F,20,
1,9,24,14,14,1,['d'],N,N,None,Y,['k'],,,,,,,F,20,
1,10,25,1,1,1,['k'],Y,Y,None,N,['k'],,,,,,,F,20,
1,11,26,6,6,1,['k'],N,N,['k'],N,['d'],,,,,,,F,20,
1,12,27,11,11,1,['d'],Y,Y,None,N,['d'],,,,,,,F,20,
1,13,28,13,13,1,['d'],Y,Y,None,N,['d'],,,,,,,F,20,
1,14,29,1,1,1,['d'],N,Y,None,N,['k'],,,,,,,F,20,
2,0,30,10,10,1,['k'],Y,N,None,Y,['k'],,,,,,,F,20,
2,1,31,0,0,1,['d'],Y,Y,None,N,['d'],,,,,,,F,20,
2,2,32,10,10,1,['d'],Y,N,None,Y,['d'],,,,,,,F,20,
2,3,33,13,13,1,['k'],Y,N,None,Y,['k'],,,,,,,F,20,
2,4,34,0,0,1,['k'],Y,Y,None,N,['k'],,,,,,,F,20,
2,5,35,11,11,1,['d'],N,Y,None,N,['k'],,,,,,,F,20,
2,6,36,13,13,1,['k'],Y,N,None,Y,['k'],,,,,,,F,20,
2,7,37,6,6,1,['k'],N,N,None,Y,['d'],,,,,,,F,20,
2,8,38,14,14,1,['d'],Y,N,None,Y,['d'],,,,,,,F,20,
2,9,39,0,0,1,['k'],Y,Y,None,N,['k'],,,,,,,F,20,
2,10,40,4,4,1,['d'],N,N,None,Y,['k'],,,,,,,F,20,
2,11,41,13,13,1,['k'],N,Y,None,N,['d'],,,,,,,F,20,
2,12,42,13,13,1,['d'],N,Y,None,N,['k'],,,,,,,F,20,
2,13,43,6,6,1,['k'],N,N,None,Y,['d'],,,,,,,F,20,
2,14,44,3,3,1,['d'],Y,N,None,Y,['d'],,,,,,,F,20,
3,0,45,3,3,1,['k'],N,N,None,Y,['d'],,,,,,,F,20,
3,1,46,12,12,1,['d'],N,N,['k'],N,['k'],,,,,,,F,20,
3,2,47,10,10,1,['k'],Y,Y,None,N,['k'],,,,,,,F,20,
3,3,48,14,14,1,['k'],N,N,None,Y,['d'],,,,,,,F,20,
3,4,49,0,0,1,['d'],N,Y,None,N,['k'],18,27,20,,,,F,20,
3,5,50,5,5,2,['k'],Y,,,,['k'],,,,,,,F,20,
3,6,51,8,8,2,['k'],N,,,,['d'],,,,,,,F,20,
3,7,52,11,11,2,['d'],Y,Y,None,N,['d'],,,,,,,F,20,
3,8,53,4,4,2,['k'],Y,N,None,Y,['k'],,,,,,,F,20,
3,9,54,8,8,2,['k'],Y,Y,None,N,['k'],,,,,,,F,20,
3,10,55,5,5,2,['d'],N,N,None,Y,['k'],,,,,,,F,20,
3,11,56,11,11,2,['k'],N,N,None,Y,['d'],,,,,,,F,20,
3,12,57,8,8,2,['k'],Y,N,None,Y,['k'],,,,,,,F,20,
3,13,58,14,14,2,['k'],N,Y,None,N,['d'],,,,,,,F,20,
3,14,59,10,10,2,['d'],Y,Y,None,N,['d'],,,,,,,F,20,
4,0,60,7,7,2,['k'],Y,N,None,Y,['k'],,,,,,,F,20,
4,1,61,3,3,2,['d'],N,Y,None,N,['k'],,,,,,,F,20,
4,2,62,7,7,2,['d'],Y,N,None,Y,['d'],,,,,,,F,20,
4,3,63,6,6,2,['k'],Y,Y,None,N,['k'],,,,,,,F,20,
4,4,64,4,4,2,['k'],Y,Y,None,N,['k'],,,,,,,F,20,
4,5,65,6,6,2,['d'],Y,N,None,Y,['d'],,,,,,,F,20,
4,6,66,4,4,2,['k'],N,Y,None,N,['d'],,,,,,,F,20,
4,7,67,2,2,2,['k'],N,N,None,Y,['d'],,,,,,,F,20,
4,8,68,0,0,2,['k'],N,Y,None,N,['d'],,,,,,,F,20,
4,9,69,7,7,2,['k'],N,N,None,Y,['d'],,,,,,,F,20,
4,10,70,9,9,2,['d'],Y,N,None,Y,['d'],,,,,,,F,20,
4,11,71,0,0,2,['d'],N,Y,None,N,['k'],,,,,,,F,20,
4,12,72,8,8,2,['k'],Y,Y,None,N,['k'],,,,,,,F,20,
4,13,73,6,6,2,['d'],N,N,None,Y,['k'],,,,,,,F,20,
4,14,74,2,2,2,['k'],Y,Y,None,N,['k'],,,,,,,F,20,
5,0,75,0,0,2,['k'],N,Y,None,N,['d'],,,,,,,F,20,
5,1,76,6,6,2,['k'],N,N,None,Y,['d'],,,,,,,F,20,
5,2,77,12,12,2,['d'],N,Y,None,N,['k'],,,,,,,F,20,
5,3,78,6,6,2,['k'],Y,N,None,Y,['k'],,,,,,,F,20,
5,4,79,1,1,2,['d'],Y,Y,None,N,['d'],,,,,,,F,20,
5,5,80,13,13,2,['k'],Y,Y,None,N,['k'],,,,,,,F,20,
5,6,81,1,1,2,['k'],N,N,None,Y,['d'],,,,,,,F,20,
5,7,82,1,1,2,['k'],N,N,None,Y,['d'],,,,,,,F,20,
5,8,83,5,5,2,['d'],Y,Y,None,N,['d'],,,,,,,F,20,
5,9,84,1,1,2,['k'],Y,N,None,Y,['k'],,,,,,,F,20,
5,10,85,4,4,2,['k'],N,N,None,Y,['d'],,,,,,,F,20,
5,11,86,11,11,2,['k'],N,N,None,Y,['d'],,,,,,,F,20,
5,12,87,3,3,2,['k'],Y,N,None,Y,['k'],,,,,,,F,20,
5,13,88,8,8,2,['d'],Y,N,None,Y,['d'],,,,,,,F,20,
5,14,89,13,13,2,['k'],Y,Y,None,N,['k'],,,,,,,F,20,
6,0,90,11,11,2,['d'],N,Y,None,N,['k'],,,,,,,F,20,
6,1,91,10,10,2,['k'],Y,N,['k'],N,['k'],,,,,,,F,20,
6,2,92,9,9,2,['k'],Y,Y,None,N,['k'],,,,,,,F,20,
6,3,93,10,10,2,['d'],Y,N,None,Y,['d'],,,,,,,F,20,
6,4,94,10,10,2,['k'],N,N,None,Y,['d'],,,,,,,F,20,
6,5,95,5,5,2,['d'],N,N,None,Y,['k'],,,,,,,F,20,
6,6,96,4,4,2,['k'],Y,N,None,Y,['k'],,,,,,,F,20,
6,7,97,14,14,2,['d'],Y,N,None,Y,['d'],,,,,,,F,20,
6,8,98,12,12,2,['k'],N,N,None,Y,['d'],,,,,,,F,20,
6,9,99,8,8,2,['d'],N,Y,None,N,['k'],27,26,21,,,,F,20,
6,10,100,10,10,3,['k'],N,,,,['d'],,,,,,,F,20,
6,11,101,14,14,3,['k'],N,,,,['d'],,,,,,,F,20,
6,12,102,7,7,3,['k'],Y,N,None,Y,['k'],,,,,,,F,20,
6,13,103,9,9,3,['d'],Y,N,None,Y,['d'],,,,,,,F,20,
6,14,104,7,7,3,['k'],N,N,None,Y,['d'],,,,,,,F,20,
7,0,105,12,12,3,['d'],Y,Y,None,N,['d'],,,,,,,F,20,
7,1,106,6,6,3,['d'],N,N,None,Y,['k'],,,,,,,F,20,
7,2,107,13,13,3,['k'],N,N,None,Y,['d'],,,,,,,F,20,
7,3,108,7,7,3,['d'],Y,N,None,Y,['d'],,,,,,,F,20,
7,4,109,6,6,3,['k'],Y,N,None,Y,['k'],,,,,,,F,20,
7,5,110,1,1,3,['d'],N,Y,None,N,['k'],,,,,,,F,20,
7,6,111,9,9,3,['k'],N,Y,None,N,['d'],,,,,,,F,20,
7,7,112,13,13,3,['d'],N,Y,None,N,['k'],,,,,,,F,20,
7,8,113,12,12,3,['k'],N,N,None,Y,['d'],,,,,,,F,20,
7,9,114,0,0,3,['d'],Y,N,None,Y,['d'],,,,,,,F,20,
7,10,115,2,2,3,['k'],Y,Y,None,N,['k'],,,,,,,F,20,
7,11,116,12,12,3,['d'],N,Y,None,N,['k'],,,,,,,F,20,
7,12,117,13,13,3,['k'],Y,Y,None,N,['k'],,,,,,,F,20,
7,13,118,0,0,3,['k'],Y,Y,None,N,['k'],,,,,,,F,20,
7,14,119,4,4,3,['d'],N,Y,None,N,['k'],,,,,,,F,20,
8,0,120,12,12,3,['k'],N,N,None,Y,['d'],,,,,,,F,20,
8,1,121,5,5,3,['d'],Y,Y,None,N,['d'],,,,,,,F,20,
8,2,122,6,6,3,['k'],N,Y,None,N,['d'],,,,,,,F,20,
8,3,123,10,10,3,['d'],N,Y,None,N,['k'],,,,,,,F,20,
8,4,124,9,9,3,['k'],N,Y,None,N,['d'],,,,,,,F,20,
8,5,125,11,11,3,['d'],N,N,None,Y,['k'],,,,,,,F,20,
8,6,126,9,9,3,['k'],N,N,None,Y,['d'],,,,,,,F,20,
8,7,127,2,2,3,['d'],Y,N,None,Y,['d'],,,,,,,F,20,
8,8,128,0,0,3,['d'],N,Y,None,N,['k'],,,,,,,F,20,
8,9,129,9,9,3,None,Timed out,N,None,Y,,,,,,,,F,20,
8,10,130,11,11,3,['k'],Y,N,None,Y,['k'],,,,,,,F,20,
8,11,131,14,14,3,['d'],Y,Y,None,N,['d'],,,,,,,F,20,
8,12,132,1,1,3,['d'],Y,Y,None,N,['d'],,,,,,,F,20,
8,13,133,9,9,3,['k'],N,N,None,Y,['d'],,,,,,,F,20,
8,14,134,10,10,3,['k'],Y,N,None,Y,['k'],,,,,,,F,20,
9,0,135,4,4,3,['k'],N,N,None,Y,['d'],,,,,,,F,20,
9,1,136,4,4,3,['d'],Y,N,None,Y,['d'],,,,,,,F,20,
9,2,137,13,13,3,['d'],N,Y,None,N,['k'],,,,,,,F,20,
9,3,138,2,2,3,['k'],N,N,None,Y,['d'],,,,,,,F,20,
9,4,139,8,8,3,['d'],Y,Y,None,N,['d'],,,,,,,F,20,
9,5,140,6,6,3,['k'],Y,N,None,Y,['k'],,,,,,,F,20,
9,6,141,12,12,3,['d'],Y,N,None,Y,['d'],,,,,,,F,20,
9,7,142,8,8,3,['k'],Y,Y,None,N,['k'],,,,,,,F,20,
9,8,143,14,14,3,['k'],Y,N,['d'],N,['k'],,,,,,,F,20,
9,9,144,5,5,3,['k'],Y,N,None,Y,['k'],,,,,,,F,20,
9,10,145,4,4,3,['k'],N,Y,None,N,['d'],,,,,,,F,20,
9,11,146,4,4,3,['d'],Y,Y,None,N,['d'],,,,,,,F,20,
9,12,147,12,12,3,['k'],N,Y,None,N,['d'],,,,,,,F,20,
9,13,148,13,13,3,['d'],N,N,None,Y,['k'],,,,,,,F,20,
9,14,149,11,11,3,['d'],N,Y,None,N,['k'],23,24,23,,,,F,20,
10,0,150,6,6,4,['d'],Y,,,,['d'],,,,,,,F,20,
10,1,151,12,12,4,['k'],Y,,,,['k'],,,,,,,F,20,
10,2,152,9,9,4,['k'],Y,Y,None,N,['k'],,,,,,,F,20,
10,3,153,11,11,4,['k'],Y,N,['k'],N,['k'],,,,,,,F,20,
10,4,154,4,4,4,['d'],Y,Y,None,N,['d'],,,,,,,F,20,
10,5,155,14,14,4,['d'],Y,N,None,Y,['d'],,,,,,,F,20,
10,6,156,11,11,4,['d'],N,Y,None,N,['k'],,,,,,,F,20,
10,7,157,8,8,4,['d'],Y,Y,None,N,['d'],,,,,,,F,20,
10,8,158,10,10,4,['d'],Y,Y,None,N,['d'],,,,,,,F,20,
10,9,159,13,13,4,['d'],Y,Y,None,N,['d'],,,,,,,F,20,
10,10,160,1,1,4,['k'],N,N,None,Y,['d'],,,,,,,F,20,
10,11,161,13,13,4,['k'],N,Y,None,N,['d'],,,,,,,F,20,
10,12,162,11,11,4,['k'],Y,N,None,Y,['k'],,,,,,,F,20,
10,13,163,3,3,4,['d'],Y,Y,None,N,['d'],,,,,,,F,20,
10,14,164,0,0,4,['d'],Y,Y,None,N,['d'],,,,,,,F,20,
11,0,165,9,9,4,['k'],N,N,None,Y,['d'],,,,,,,F,20,
11,1,166,3,3,4,['k'],N,N,None,Y,['d'],,,,,,,F,20,
11,2,167,8,8,4,['d'],N,Y,None,N,['k'],,,,,,,F,20,
11,3,168,12,12,4,['d'],Y,Y,None,N,['d'],,,,,,,F,20,
11,4,169,7,7,4,['k'],Y,N,None,Y,['k'],,,,,,,F,20,
11,5,170,11,11,4,['d'],N,Y,None,N,['k'],,,,,,,F,20,
11,6,171,9,9,4,['k'],Y,N,None,Y,['k'],,,,,,,F,20,
11,7,172,14,14,4,['k'],Y,N,None,Y,['k'],,,,,,,F,20,
11,8,173,4,4,4,['k'],Y,N,None,Y,['k'],,,,,,,F,20,
11,9,174,6,6,4,['d'],N,Y,None,N,['k'],,,,,,,F,20,
11,10,175,2,2,4,['k'],Y,N,None,Y,['k'],,,,,,,F,20,
11,11,176,6,6,4,['k'],Y,N,None,Y,['k'],,,,,,,F,20,
11,12,177,5,5,4,None,Timed out,Y,None,N,,,,,,,,F,20,
11,13,178,1,1,4,['k'],Y,N,None,Y,['k'],,,,,,,F,20,
11,14,179,5,5,4,['k'],Y,Y,None,N,['k'],,,,,,,F,20,
12,0,180,4,4,4,['k'],Y,Y,None,N,['k'],,,,,,,F,20,
12,1,181,14,14,4,['d'],Y,Y,None,N,['d'],,,,,,,F,20,
12,2,182,0,0,4,['k'],Y,Y,None,N,['k'],,,,,,,F,20,
12,3,183,11,11,4,['k'],Y,N,None,Y,['k'],,,,,,,F,20,
12,4,184,8,8,4,['d'],N,Y,None,N,['k'],,,,,,,F,20,
12,5,185,8,8,4,['d'],N,N,None,Y,['k'],,,,,,,F,20,
12,6,186,3,3,4,['k'],Y,N,None,Y,['k'],,,,,,,F,20,
12,7,187,7,7,4,['k'],Y,N,None,Y,['k'],,,,,,,F,20,
12,8,188,9,9,4,['k'],Y,N,None,Y,['k'],,,,,,,F,20,
12,9,189,14,14,4,['k'],N,N,None,Y,['d'],,,,,,,F,20,
12,10,190,1,1,4,['k'],Y,Y,None,N,['k'],,,,,,,F,20,
12,11,191,8,8,4,['k'],N,N,None,Y,['d'],,,,,,,F,20,
12,12,192,3,3,4,['k'],Y,Y,None,N,['k'],,,,,,,F,20,
12,13,193,10,10,4,['d'],N,Y,['d'],N,['k'],,,,,,,F,20,
12,14,194,8,8,4,['k'],Y,N,None,Y,['k'],,,,,,,F,20,
13,0,195,0,0,4,['k'],N,Y,None,N,['d'],,,,,,,F,20,
13,1,196,7,7,4,['d'],Y,Y,None,N,['d'],,,,,,,F,20,
13,2,197,10,10,4,['d'],Y,Y,None,N,['d'],,,,,,,F,20,
13,3,198,2,2,4,['k'],N,N,None,Y,['d'],,,,,,,F,20,
13,4,199,11,11,4,['k'],N,N,None,Y,['d'],33,22,25,,,,F,20,
13,5,200,5,5,5,['k'],Y,,,,['k'],,,,,,,F,20,
13,6,201,1,1,5,['k'],Y,,,,['k'],,,,,,,F,20,
13,7,202,10,10,5,['k'],N,Y,None,N,['d'],,,,,,,F,20,
13,8,203,7,7,5,['d'],N,Y,None,N,['k'],,,,,,,F,20,
13,9,204,1,1,5,['d'],N,N,None,Y,['k'],,,,,,,F,20,
13,10,205,5,5,5,['d'],N,N,None,Y,['k'],,,,,,,F,20,
13,11,206,9,9,5,['d'],Y,N,None,Y,['d'],,,,,,,F,20,
13,12,207,10,10,5,['k'],N,N,None,Y,['d'],,,,,,,F,20,
13,13,208,5,5,5,['k'],Y,N,None,Y,['k'],,,,,,,F,20,
13,14,209,5,5,5,['k'],Y,Y,None,N,['k'],,,,,,,F,20,
14,0,210,1,1,5,['d'],Y,N,None,Y,['d'],,,,,,,F,20,
14,1,211,11,11,5,['k'],Y,N,None,Y,['k'],,,,,,,F,20,
14,2,212,2,2,5,['k'],Y,Y,None,N,['k'],,,,,,,F,20,
14,3,213,7,7,5,['k'],Y,N,None,Y,['k'],,,,,,,F,20,
14,4,214,11,11,5,['k'],N,Y,None,N,['d'],,,,,,,F,20,
14,5,215,1,1,5,['k'],Y,N,None,Y,['k'],,,,,,,F,20,
14,6,216,8,8,5,['k'],Y,Y,None,N,['k'],,,,,,,F,20,
14,7,217,8,8,5,['d'],Y,Y,None,N,['d'],,,,,,,F,20,
14,8,218,0,0,5,['k'],Y,N,None,Y,['k'],,,,,,,F,20,
14,9,219,2,2,5,['k'],N,Y,None,N,['d'],,,,,,,F,20,
14,10,220,9,9,5,['d'],Y,N,None,Y,['d'],,,,,,,F,20,
14,11,221,4,4,5,['k'],N,Y,None,N,['d'],,,,,,,F,20,
14,12,222,7,7,5,['k'],Y,Y,None,N,['k'],,,,,,,F,20,
14,13,223,7,7,5,['k'],Y,N,None,Y,['k'],,,,,,,F,20,
14,14,224,3,3,5,['k'],N,N,None,Y,['d'],,,,,,,F,20,
15,0,225,2,2,5,['k'],N,Y,None,N,['d'],,,,,,,F,20,
15,1,226,3,3,5,['d'],Y,N,None,Y,['d'],,,,,,,F,20,
15,2,227,5,5,5,['d'],Y,N,None,Y,['d'],,,,,,,F,20,
15,3,228,6,6,5,['k'],Y,N,None,Y,['k'],,,,,,,F,20,
15,4,229,4,4,5,['k'],N,N,None,Y,['d'],,,,,,,F,20,
15,5,230,2,2,5,['k'],N,N,None,Y,['d'],,,,,,,F,20,
15,6,231,0,0,5,['k'],N,Y,None,N,['d'],,,,,,,F,20,
15,7,232,10,10,5,['k'],N,Y,None,N,['d'],,,,,,,F,20,
15,8,233,5,5,5,['k'],Y,N,None,Y,['k'],,,,,,,F,20,
15,9,234,5,5,5,['k'],N,N,None,Y,['d'],,,,,,,F,20,
15,10,235,12,12,5,['d'],N,N,None,Y,['k'],,,,,,,F,20,
15,11,236,0,0,5,['k'],Y,N,None,Y,['k'],,,,,,,F,20,
15,12,237,0,0,5,['k'],N,N,None,Y,['d'],,,,,,,F,20,
15,13,238,9,9,5,['k'],N,N,None,Y,['d'],,,,,,,F,20,
15,14,239,13,13,5,['k'],N,Y,None,N,['d'],,,,,,,F,20,
16,0,240,2,2,5,['k'],Y,N,None,Y,['k'],,,,,,,F,20,
16,1,241,7,7,5,['d'],N,N,None,Y,['k'],,,,,,,F,20,
16,2,242,6,6,5,['k'],Y,Y,None,N,['k'],,,,,,,F,20,
16,3,243,8,8,5,['k'],N,N,None,Y,['d'],,,,,,,F,20,
16,4,244,12,12,5,['k'],N,N,None,Y,['d'],,,,,,,F,20,
16,5,245,10,10,5,['k'],N,Y,None,N,['d'],,,,,,,F,20,
16,6,246,2,2,5,['k'],N,Y,None,N,['d'],,,,,,,F,20,
16,7,247,7,7,5,['d'],Y,Y,None,N,['d'],,,,,,,F,20,
16,8,248,9,9,5,['k'],Y,Y,None,N,['k'],,,,,,,F,20,
16,9,249,6,6,5,['k'],Y,N,None,Y,['k'],26,29,19,,,,F,20,
16,10,250,5,5,6,['k'],Y,,,,['k'],,,,,,,F,20,
16,11,251,13,13,6,['k'],Y,,,,['k'],,,,,,,F,20,
16,12,252,14,14,6,['k'],N,Y,None,N,['d'],,,,,,,F,20,
16,13,253,11,11,6,['k'],N,Y,None,N,['d'],,,,,,,F,20,
16,14,254,1,1,6,['k'],N,Y,None,N,['d'],,,,,,,F,20,
17,0,255,14,14,6,['k'],Y,Y,None,N,['k'],,,,,,,F,20,
17,1,256,4,4,6,['k'],Y,N,None,Y,['k'],,,,,,,F,20,
17,2,257,1,1,6,['k'],N,N,None,Y,['d'],,,,,,,F,20,
17,3,258,12,12,6,['k'],N,Y,None,N,['d'],,,,,,,F,20,
17,4,259,4,4,6,['k'],N,Y,None,N,['d'],,,,,,,F,20,
17,5,260,6,6,6,['d'],Y,N,None,Y,['d'],,,,,,,F,20,
17,6,261,7,7,6,['k'],Y,Y,None,N,['k'],,,,,,,F,20,
17,7,262,7,7,6,['k'],Y,Y,None,N,['k'],,,,,,,F,20,
17,8,263,12,12,6,['k'],Y,Y,None,N,['k'],,,,,,,F,20,
17,9,264,11,11,6,['k'],N,Y,None,N,['d'],,,,,,,F,20,
17,10,265,7,7,6,['k'],Y,Y,None,N,['k'],,,,,,,F,20,
17,11,266,14,14,6,['k'],N,Y,None,N,['d'],,,,,,,F,20,
17,12,267,9,9,6,['k'],Y,N,None,Y,['k'],,,,,,,F,20,
17,13,268,2,2,6,['k'],N,Y,None,N,['d'],,,,,,,F,20,
17,14,269,7,7,6,['d'],Y,N,None,Y,['d'],,,,,,,F,20,
18,0,270,10,10,6,['k'],N,Y,None,N,['d'],,,,,,,F,20,
18,1,271,8,8,6,['k'],Y,N,None,Y,['k'],,,,,,,F,20,
18,2,272,12,12,6,['k'],Y,N,None,Y,['k'],,,,,,,F,20,
18,3,273,11,11,6,['k'],Y,N,None,Y,['k'],,,,,,,F,20,
18,4,274,13,13,6,['k'],N,N,None,Y,['d'],,,,,,,F,20,
18,5,275,14,14,6,['k'],N,N,None,Y,['d'],,,,,,,F,20,
18,6,276,14,14,6,['d'],Y,N,None,Y,['d'],,,,,,,F,20,
18,7,277,14,14,6,['d'],Y,N,None,Y,['d'],,,,,,,F,20,
18,8,278,0,0,6,['k'],Y,Y,None,N,['k'],,,,,,,F,20,
18,9,279,11,11,6,['k'],N,N,None,Y,['d'],,,,,,,F,20,
18,10,280,10,10,6,['k'],Y,N,None,Y,['k'],,,,,,,F,20,
18,11,281,8,8,6,['k'],Y,Y,None,N,['k'],,,,,,,F,20,
18,12,282,13,13,6,['k'],Y,Y,None,N,['k'],,,,,,,F,20,
18,13,283,13,13,6,['d'],Y,Y,None,N,['d'],,,,,,,F,20,
18,14,284,8,8,6,['k'],N,N,None,Y,['d'],,,,,,,F,20,
19,0,285,2,2,6,['k'],N,N,None,Y,['d'],,,,,,,F,20,
19,1,286,0,0,6,['k'],N,Y,None,N,['d'],,,,,,,F,20,
19,2,287,11,11,6,['k'],N,Y,None,N,['d'],,,,,,,F,20,
19,3,288,1,1,6,['d'],Y,Y,None,N,['d'],,,,,,,F,20,
19,4,289,11,11,6,['k'],Y,Y,None,N,['k'],,,,,,,F,20,
19,5,290,12,12,6,['k'],Y,Y,None,N,['k'],,,,,,,F,20,
19,6,291,3,3,6,['d'],Y,Y,['d'],N,['d'],,,,,,,F,20,
19,7,292,14,14,6,['k'],Y,N,None,Y,['k'],,,,,,,F,20,
19,8,293,11,11,6,['k'],N,N,None,Y,['d'],,,,,,,F,20,
19,9,294,6,6,6,['d'],Y,Y,None,N,['d'],,,,,,,F,20,
19,10,295,8,8,6,['d'],N,N,None,Y,['k'],,,,,,,F,20,
19,11,296,13,13,6,['k'],N,N,None,Y,['d'],,,,,,,F,20,
19,12,297,4,4,6,['k'],N,N,None,Y,['d'],,,,,,,F,20,
19,13,298,2,2,6,['d'],N,N,None,Y,['k'],,,,,,,F,20,
19,14,299,8,8,6,['d'],Y,N,None,Y,['d'],28,23,25,,,,F,20,
20,0,300,1,1,7,['k'],N,,,,['d'],,,,,,,F,20,
20,1,301,0,0,7,['k'],N,,,,['d'],,,,,,,F,20,
20,2,302,5,5,7,['d'],N,N,None,Y,['k'],,,,,,,F,20,
20,3,303,13,13,7,['d'],Y,N,None,Y,['d'],,,,,,,F,20,
20,4,304,9,9,7,['d'],Y,Y,None,N,['d'],,,,,,,F,20,
20,5,305,1,1,7,['k'],Y,Y,None,N,['k'],,,,,,,F,20,
20,6,306,13,13,7,['k'],N,Y,None,N,['d'],,,,,,,F,20,
20,7,307,9,9,7,['k'],Y,N,None,Y,['k'],,,,,,,F,20,
20,8,308,9,9,7,['k'],N,Y,None,N,['d'],,,,,,,F,20,
20,9,309,1,1,7,['d'],N,Y,None,N,['k'],,,,,,,F,20,
20,10,310,13,13,7,['k'],Y,Y,None,N,['k'],,,,,,,F,20,
20,11,311,14,14,7,['k'],Y,Y,None,N,['k'],,,,,,,F,20,
20,12,312,3,3,7,['d'],Y,N,None,Y,['d'],,,,,,,F,20,
20,13,313,2,2,7,['k'],Y,Y,None,N,['k'],,,,,,,F,20,
20,14,314,2,2,7,['k'],N,N,None,Y,['d'],,,,,,,F,20,
21,0,315,1,1,7,['k'],Y,N,None,Y,['k'],,,,,,,F,20,
21,1,316,12,12,7,['k'],N,Y,None,N,['d'],,,,,,,F,20,
21,2,317,11,11,7,['k'],N,Y,None,N,['d'],,,,,,,F,20,
21,3,318,6,6,7,['k'],N,Y,None,N,['d'],,,,,,,F,20,
21,4,319,3,3,7,['k'],Y,Y,None,N,['k'],,,,,,,F,20,
21,5,320,9,9,7,['d'],Y,Y,None,N,['d'],,,,,,,F,20,
21,6,321,2,2,7,['k'],N,Y,None,N,['d'],,,,,,,F,20,
21,7,322,8,8,7,['k'],N,N,None,Y,['d'],,,,,,,F,20,
21,8,323,10,10,7,['d'],N,Y,None,N,['k'],,,,,,,F,20,
21,9,324,2,2,7,['k'],N,N,None,Y,['d'],,,,,,,F,20,
21,10,325,0,0,7,['k'],N,N,None,Y,['d'],,,,,,,F,20,
21,11,326,14,14,7,['k'],N,N,None,Y,['d'],,,,,,,F,20,
21,12,327,9,9,7,['d'],Y,Y,None,N,['d'],,,,,,,F,20,
21,13,328,13,13,7,['k'],N,Y,None,N,['d'],,,,,,,F,20,
21,14,329,8,8,7,['d'],N,N,None,Y,['k'],,,,,,,F,20,
22,0,330,14,14,7,['k'],N,Y,None,N,['d'],,,,,,,F,20,
22,1,331,5,5,7,['k'],Y,N,None,Y,['k'],,,,,,,F,20,
22,2,332,3,3,7,['k'],Y,N,None,Y,['k'],,,,,,,F,20,
22,3,333,8,8,7,['k'],N,N,None,Y,['d'],,,,,,,F,20,
22,4,334,6,6,7,['k'],N,N,None,Y,['d'],,,,,,,F,20,
22,5,335,4,4,7,['d'],N,Y,None,N,['k'],,,,,,,F,20,
22,6,336,9,9,7,['k'],N,Y,None,N,['d'],,,,,,,F,20,
22,7,337,14,14,7,['d'],N,N,None,Y,['k'],,,,,,,F,20,
22,8,338,9,9,7,['k'],N,N,None,Y,['d'],,,,,,,F,20,
22,9,339,14,14,7,['k'],Y,Y,None,N,['k'],,,,,,,F,20,
22,10,340,5,5,7,['k'],N,Y,None,N,['d'],,,,,,,F,20,
22,11,341,10,10,7,['k'],N,Y,None,N,['d'],,,,,,,F,20,
22,12,342,12,12,7,['k'],N,Y,None,N,['d'],,,,,,,F,20,
22,13,343,2,2,7,['k'],N,Y,None,N,['d'],,,,,,,F,20,
22,14,344,13,13,7,['d'],N,N,None,Y,['k'],,,,,,,F,20,
23,0,345,5,5,7,['d'],N,N,None,Y,['k'],,,,,,,F,20,
23,1,346,11,11,7,['k'],Y,N,None,Y,['k'],,,,,,,F,20,
23,2,347,12,12,7,['k'],Y,N,None,Y,['k'],,,,,,,F,20,
23,3,348,10,10,7,['d'],Y,N,None,Y,['d'],,,,,,,F,20,
23,4,349,14,14,7,['k'],N,N,None,Y,['d'],18,23,25,,,,F,20,
23,5,350,1,1,8,['k'],Y,,,,['k'],,,,,,,F,20,
23,6,351,5,5,8,['k'],Y,,,,['k'],,,,,,,F,20,
23,7,352,6,6,8,['k'],N,N,None,Y,['d'],,,,,,,F,20,
23,8,353,14,14,8,['d'],N,Y,None,N,['k'],,,,,,,F,20,
23,9,354,1,1,8,['k'],N,N,None,Y,['d'],,,,,,,F,20,
23,10,355,7,7,8,['d'],N,N,None,Y,['k'],,,,,,,F,20,
23,11,356,10,10,8,['k'],N,N,None,Y,['d'],,,,,,,F,20,
23,12,357,11,11,8,['k'],Y,Y,None,N,['k'],,,,,,,F,20,
23,13,358,5,5,8,['k'],N,Y,None,N,['d'],,,,,,,F,20,
23,14,359,6,6,8,['k'],N,Y,None,N,['d'],,,,,,,F,20,
24,0,360,2,2,8,['d'],N,Y,None,N,['k'],,,,,,,F,20,
24,1,361,10,10,8,['k'],N,Y,None,N,['d'],,,,,,,F,20,
24,2,362,4,4,8,['k'],Y,Y,None,N,['k'],,,,,,,F,20,
24,3,363,4,4,8,['d'],Y,N,None,Y,['d'],,,,,,,F,20,
24,4,364,8,8,8,['k'],N,N,None,Y,['d'],,,,,,,F,20,
24,5,365,7,7,8,['k'],N,Y,None,N,['d'],,,,,,,F,20,
24,6,366,7,7,8,['d'],N,N,None,Y,['k'],,,,,,,F,20,
24,7,367,12,12,8,['k'],Y,N,None,Y,['k'],,,,,,,F,20,
24,8,368,12,12,8,['k'],N,N,None,Y,['d'],,,,,,,F,20,
24,9,369,1,1,8,['k'],N,Y,None,N,['d'],,,,,,,F,20,
24,10,370,9,9,8,['k'],N,N,None,Y,['d'],,,,,,,F,20,
24,11,371,11,11,8,['k'],Y,Y,None,N,['k'],,,,,,,F,20,
24,12,372,10,10,8,['d'],Y,Y,None,N,['d'],,,,,,,F,20,
24,13,373,4,4,8,['d'],N,Y,None,N,['k'],,,,,,,F,20,
24,14,374,3,3,8,['d'],Y,Y,None,N,['d'],,,,,,,F,20,
25,0,375,12,12,8,['d'],N,Y,['d'],N,['k'],,,,,,,F,20,
25,1,376,8,8,8,['k'],N,Y,None,N,['d'],,,,,,,F,20,
25,2,377,12,12,8,['k'],Y,Y,None,N,['k'],,,,,,,F,20,
25,3,378,9,9,8,['d'],Y,Y,None,N,['d'],,,,,,,F,20,
25,4,379,1,1,8,['k'],Y,Y,None,N,['k'],,,,,,,F,20,
25,5,380,5,5,8,['k'],Y,Y,None,N,['k'],,,,,,,F,20,
25,6,381,3,3,8,['k'],Y,Y,None,N,['k'],,,,,,,F,20,
25,7,382,3,3,8,['k'],Y,N,None,Y,['k'],,,,,,,F,20,
25,8,383,9,9,8,['k'],Y,Y,None,N,['k'],,,,,,,F,20,
25,9,384,8,8,8,['k'],N,Y,None,N,['d'],,,,,,,F,20,
25,10,385,14,14,8,['k'],Y,Y,None,N,['k'],,,,,,,F,20,
25,11,386,8,8,8,['k'],N,N,None,Y,['d'],,,,,,,F,20,
25,12,387,14,14,8,['k'],N,N,None,Y,['d'],,,,,,,F,20,
25,13,388,3,3,8,['k'],Y,Y,None,N,['k'],,,,,,,F,20,
25,14,389,9,9,8,['k'],Y,Y,None,N,['k'],,,,,,,F,20,
26,0,390,5,5,8,['k'],Y,N,None,Y,['k'],,,,,,,F,20,
26,1,391,5,5,8,['k'],Y,N,None,Y,['k'],,,,,,,F,20,
26,2,392,2,2,8,['k'],N,N,None,Y,['d'],,,,,,,F,20,
26,3,393,1,1,8,['d'],N,N,None,Y,['k'],,,,,,,F,20,
26,4,394,12,12,8,['k'],N,N,None,Y,['d'],,,,,,,F,20,
26,5,395,1,1,8,['d'],N,N,None,Y,['k'],,,,,,,F,20,
26,6,396,10,10,8,['k'],Y,N,None,Y,['k'],,,,,,,F,20,
26,7,397,13,13,8,['k'],Y,N,None,Y,['k'],,,,,,,F,20,
26,8,398,3,3,8,['k'],N,N,None,Y,['d'],,,,,,,F,20,
26,9,399,14,14,8,['k'],Y,N,None,Y,['k'],24,23,25,,,,F,20,
26,10,400,14,14,9,['k'],Y,,,,['k'],,,,,,,F,20,
26,11,401,2,2,9,['k'],N,,,,['d'],,,,,,,F,20,
26,12,402,12,12,9,['k'],Y,Y,None,N,['k'],,,,,,,F,20,
26,13,403,6,6,9,['k'],Y,Y,None,N,['k'],,,,,,,F,20,
26,14,404,2,2,9,['k'],Y,N,None,Y,['k'],,,,,,,F,20,
27,0,405,8,8,9,['k'],Y,Y,None,N,['k'],,,,,,,F,20,
27,1,406,5,5,9,['k'],Y,N,None,Y,['k'],,,,,,,F,20,
27,2,407,5,5,9,['k'],N,Y,None,N,['d'],,,,,,,F,20,
27,3,408,0,0,9,['d'],N,N,None,Y,['k'],,,,,,,F,20,
27,4,409,5,5,9,['k'],N,Y,None,N,['d'],,,,,,,F,20,
27,5,410,9,9,9,['k'],N,Y,None,N,['d'],,,,,,,F,20,
27,6,411,5,5,9,['k'],N,N,None,Y,['d'],,,,,,,F,20,
27,7,412,3,3,9,['k'],Y,N,None,Y,['k'],,,,,,,F,20,
27,8,413,10,10,9,['k'],Y,N,None,Y,['k'],,,,,,,F,20,
27,9,414,12,12,9,['k'],Y,Y,None,N,['k'],,,,,,,F,20,
27,10,415,14,14,9,['d'],N,N,None,Y,['k'],,,,,,,F,20,
27,11,416,3,3,9,['k'],Y,N,None,Y,['k'],,,,,,,F,20,
27,12,417,2,2,9,['d'],Y,N,None,Y,['d'],,,,,,,F,20,
27,13,418,3,3,9,['d'],N,N,None,Y,['k'],,,,,,,F,20,
27,14,419,0,0,9,['d'],N,Y,None,N,['k'],,,,,,,F,20,
28,0,420,10,10,9,['k'],Y,Y,None,N,['k'],,,,,,,F,20,
28,1,421,7,7,9,['k'],N,N,None,Y,['d'],,,,,,,F,20,
28,2,422,4,4,9,['k'],N,Y,None,N,['d'],,,,,,,F,20,
28,3,423,13,13,9,['k'],Y,N,None,Y,['k'],,,,,,,F,20,
28,4,424,8,8,9,['d'],N,N,None,Y,['k'],,,,,,,F,20,
28,5,425,10,10,9,['k'],Y,Y,None,N,['k'],,,,,,,F,20,
28,6,426,14,14,9,['k'],N,Y,None,N,['d'],,,,,,,F,20,
28,7,427,3,3,9,['k'],N,Y,None,N,['d'],,,,,,,F,20,
28,8,428,12,12,9,['k'],N,N,None,Y,['d'],,,,,,,F,20,
28,9,429,2,2,9,['k'],N,N,None,Y,['d'],,,,,,,F,20,
28,10,430,6,6,9,['d'],N,N,None,Y,['k'],,,,,,,F,20,
28,11,431,0,0,9,['k'],Y,N,None,Y,['k'],,,,,,,F,20,
28,12,432,3,3,9,['k'],N,N,None,Y,['d'],,,,,,,F,20,
28,13,433,4,4,9,['k'],Y,N,None,Y,['k'],,,,,,,F,20,
28,14,434,9,9,9,['k'],Y,Y,None,N,['k'],,,,,,,F,20,
29,0,435,8,8,9,['k'],Y,Y,None,N,['k'],,,,,,,F,20,
29,1,436,8,8,9,['k'],Y,N,None,Y,['k'],,,,,,,F,20,
29,2,437,7,7,9,['k'],Y,Y,None,N,['k'],,,,,,,F,20,
29,3,438,4,4,9,['k'],N,Y,None,N,['d'],,,,,,,F,20,
29,4,439,14,14,9,['k'],Y,Y,None,N,['k'],,,,,,,F,20,
29,5,440,0,0,9,['k'],N,Y,None,N,['d'],,,,,,,F,20,
29,6,441,9,9,9,['k'],Y,Y,None,N,['k'],,,,,,,F,20,
29,7,442,3,3,9,['d'],Y,Y,None,N,['d'],,,,,,,F,20,
29,8,443,10,10,9,['d'],Y,Y,None,N,['d'],,,,,,,F,20,
29,9,444,1,1,9,['k'],Y,Y,None,N,['k'],,,,,,,F,20,
29,10,445,0,0,9,['k'],N,N,None,Y,['d'],,,,,,,F,20,
29,11,446,5,5,9,['d'],N,Y,None,N,['k'],,,,,,,F,20,
29,12,447,13,13,9,['k'],N,Y,None,N,['d'],,,,,,,F,20,
29,13,448,5,5,9,['k'],N,N,None,Y,['d'],,,,,,,F,20,
29,14,449,7,7,9,['k'],Y,N,None,Y,['k'],26,23,25,,,,F,20,
30,0,450,3,3,10,['k'],Y,,,,['k'],,,,,,,F,20,
30,1,451,10,10,10,['k'],N,,,,['d'],,,,,,,F,20,
30,2,452,12,12,10,['d'],Y,N,None,Y,['d'],,,,,,,F,20,
30,3,453,8,8,10,['k'],Y,Y,None,N,['k'],,,,,,,F,20,
30,4,454,3,3,10,['d'],Y,Y,None,N,['d'],,,,,,,F,20,
30,5,455,9,9,10,['k'],N,Y,None,N,['d'],,,,,,,F,20,
30,6,456,2,2,10,['d'],N,N,None,Y,['k'],,,,,,,F,20,
30,7,457,2,2,10,['k'],N,N,None,Y,['d'],,,,,,,F,20,
30,8,458,0,0,10,['d'],Y,Y,None,N,['d'],,,,,,,F,20,
30,9,459,5,5,10,['k'],N,Y,None,N,['d'],,,,,,,F,20,
30,10,460,0,0,10,['k'],Y,Y,None,N,['k'],,,,,,,F,20,
30,11,461,0,0,10,['d'],N,N,None,Y,['k'],,,,,,,F,20,
30,12,462,5,5,10,['k'],N,Y,None,N,['d'],,,,,,,F,20,
30,13,463,3,3,10,['k'],Y,Y,None,N,['k'],,,,,,,F,20,
30,14,464,6,6,10,['k'],Y,N,None,Y,['k'],,,,,,,F,20,
31,0,465,8,8,10,['k'],Y,N,None,Y,['k'],,,,,,,F,20,
31,1,466,0,0,10,['k'],Y,N,None,Y,['k'],,,,,,,F,20,
31,2,467,6,6,10,['k'],Y,N,None,Y,['k'],,,,,,,F,20,
31,3,468,3,3,10,['k'],N,Y,None,N,['d'],,,,,,,F,20,
31,4,469,9,9,10,['k'],N,N,None,Y,['d'],,,,,,,F,20,
31,5,470,12,12,10,['k'],N,N,None,Y,['d'],,,,,,,F,20,
31,6,471,4,4,10,['d'],Y,Y,None,N,['d'],,,,,,,F,20,
31,7,472,2,2,10,['d'],Y,Y,None,N,['d'],,,,,,,F,20,
31,8,473,7,7,10,['k'],N,Y,None,N,['d'],,,,,,,F,20,
31,9,474,5,5,10,['k'],N,N,None,Y,['d'],,,,,,,F,20,
31,10,475,13,13,10,['k'],N,Y,['k'],N,['d'],,,,,,,F,20,
31,11,476,6,6,10,['k'],N,Y,None,N,['d'],,,,,,,F,20,
31,12,477,3,3,10,['d'],Y,Y,None,N,['d'],,,,,,,F,20,
31,13,478,7,7,10,['k'],Y,Y,None,N,['k'],,,,,,,F,20,
31,14,479,8,8,10,['d'],Y,Y,None,N,['d'],,,,,,,F,20,
32,0,480,13,13,10,['k'],Y,Y,None,N,['k'],,,,,,,F,20,
32,1,481,2,2,10,['k'],Y,N,None,Y,['k'],,,,,,,F,20,
32,2,482,0,0,10,['k'],N,Y,None,N,['d'],,,,,,,F,20,
32,3,483,14,14,10,['k'],N,N,None,Y,['d'],,,,,,,F,20,
32,4,484,0,0,10,['k'],N,N,None,Y,['d'],,,,,,,F,20,
32,5,485,7,7,10,['k'],N,N,None,Y,['d'],,,,,,,F,20,
32,6,486,0,0,10,['k'],N,Y,['k'],N,['d'],,,,,,,F,20,
32,7,487,4,4,10,['k'],N,Y,None,N,['d'],,,,,,,F,20,
32,8,488,6,6,10,['d'],Y,Y,None,N,['d'],,,,,,,F,20,
32,9,489,9,9,10,['k'],N,Y,None,N,['d'],,,,,,,F,20,
32,10,490,11,11,10,['k'],Y,Y,None,N,['k'],,,,,,,F,20,
32,11,491,1,1,10,['k'],Y,N,None,Y,['k'],,,,,,,F,20,
32,12,492,11,11,10,['k'],Y,N,None,Y,['k'],,,,,,,F,20,
32,13,493,6,6,10,['k'],Y,N,None,Y,['k'],,,,,,,F,20,
32,14,494,11,11,10,['k'],N,Y,None,N,['d'],,,,,,,F,20,
33,0,495,1,1,10,['k'],N,N,None,Y,['d'],,,,,,,F,20,
33,1,496,0,0,10,['k'],Y,N,None,Y,['k'],,,,,,,F,20,
33,2,497,8,8,10,['k'],N,N,None,Y,['d'],,,,,,,F,20,
33,3,498,9,9,10,['k'],N,N,None,Y,['d'],,,,,,,F,20,
33,4,499,3,3,10,['d'],N,N,['d'],N,['k'],24,22,25,,,,F,20,
33,5,500,1,1,11,['k'],N,,,,['k'],,,,Y,Y,Y,F,20,
33,6,501,13,13,11,['d'],N,,,,['d'],,,,,Y,Y,F,20,
33,7,502,13,13,11,['k'],N,Y,None,N,['k'],,,,,Y,Y,F,20,
33,8,503,4,4,11,['k'],N,N,None,Y,['k'],,,,,Y,Y,F,20,
33,9,504,9,9,11,['d'],Y,Y,None,N,['k'],,,,,Y,Y,F,20,
33,10,505,3,3,11,['k'],Y,N,None,Y,['d'],,,,,Y,Y,F,20,
33,11,506,12,12,11,['k'],Y,Y,None,N,['d'],,,,,Y,Y,F,20,
33,12,507,9,9,11,['k'],N,N,None,Y,['k'],,,,,Y,Y,F,20,
33,13,508,13,13,11,['k'],N,N,None,Y,['k'],,,,,Y,Y,F,20,
33,14,509,4,4,11,['k'],Y,N,None,Y,['d'],,,,,Y,Y,F,20,
34,0,510,3,3,11,['k'],Y,N,None,Y,['d'],,,,,Y,Y,F,20,
34,1,511,11,11,11,['k'],N,N,None,Y,['k'],,,,,Y,Y,F,20,
34,2,512,12,12,11,['d'],Y,Y,None,N,['k'],,,,,Y,Y,F,20,
34,3,513,12,12,11,['k'],Y,Y,None,N,['d'],,,,,Y,Y,F,20,
34,4,514,6,6,11,['k'],Y,N,None,Y,['d'],,,,,Y,Y,F,20,
34,5,515,12,12,11,['k'],Y,N,None,Y,['d'],,,,,Y,Y,F,20,
34,6,516,1,1,11,['k'],N,N,None,Y,['k'],,,,,Y,Y,F,20,
34,7,517,13,13,11,['k'],N,N,None,Y,['k'],,,,,Y,Y,F,20,
34,8,518,1,1,11,['k'],N,N,None,Y,['k'],,,,,Y,Y,F,20,
34,9,519,4,4,11,['d'],N,N,None,Y,['d'],,,,,Y,Y,F,20,
34,10,520,12,12,11,['k'],Y,Y,None,N,['d'],,,,,Y,Y,F,20,
34,11,521,10,10,11,['d'],Y,N,None,Y,['k'],,,,,Y,Y,F,20,
34,12,522,2,2,11,['k'],Y,Y,None,N,['d'],,,,,Y,Y,F,20,
34,13,523,4,4,11,['k'],Y,Y,None,N,['d'],,,,,Y,Y,F,20,
34,14,524,2,2,11,['k'],Y,N,None,Y,['d'],,,,,Y,Y,F,20,
35,0,525,6,6,11,['k'],N,N,None,Y,['k'],,,,,Y,Y,F,20,
35,1,526,12,12,11,['k'],Y,N,None,Y,['d'],,,,,Y,Y,F,20,
35,2,527,14,14,11,['k'],Y,N,None,Y,['d'],,,,,Y,Y,F,20,
35,3,528,11,11,11,['d'],Y,N,None,Y,['k'],,,,,Y,Y,F,20,
35,4,529,3,3,11,['k'],N,N,None,Y,['k'],,,,,Y,Y,F,20,
35,5,530,3,3,11,['k'],N,N,None,Y,['k'],,,,,Y,Y,F,20,
35,6,531,13,13,11,['k'],Y,Y,None,N,['d'],,,,,Y,Y,F,20,
35,7,532,2,2,11,['k'],Y,N,None,Y,['d'],,,,,Y,Y,F,20,
35,8,533,14,14,11,['d'],N,N,None,Y,['d'],,,,,Y,Y,F,20,
35,9,534,3,3,11,['k'],N,Y,None,N,['k'],,,,,Y,Y,F,20,
35,10,535,11,11,11,['k'],N,Y,None,N,['k'],,,,,Y,Y,F,20,
35,11,536,6,6,11,['d'],N,N,None,Y,['d'],,,,,Y,Y,F,20,
35,12,537,6,6,11,['k'],N,N,None,Y,['k'],,,,,Y,Y,F,20,
35,13,538,13,13,11,['k'],N,Y,None,N,['k'],,,,,Y,Y,F,20,
35,14,539,2,2,11,['k'],N,N,None,Y,['k'],,,,,Y,Y,F,20,
36,0,540,7,7,11,['k'],N,N,None,Y,['k'],,,,,Y,Y,F,20,
36,1,541,9,9,11,['k'],N,N,None,Y,['k'],,,,,Y,Y,F,20,
36,2,542,2,2,11,['d'],N,Y,None,N,['d'],,,,,Y,Y,F,20,
36,3,543,1,1,11,['k'],N,N,None,Y,['k'],,,,,Y,Y,F,20,
36,4,544,6,6,11,['k'],Y,Y,None,N,['d'],,,,,Y,Y,F,20,
36,5,545,1,1,11,['d'],N,N,None,Y,['d'],,,,,Y,Y,F,20,
36,6,546,14,14,11,['k'],N,Y,None,N,['k'],,,,,Y,Y,F,20,
36,7,547,5,5,11,['k'],Y,Y,None,N,['d'],,,,,Y,Y,F,20,
36,8,548,10,10,11,['k'],N,N,None,Y,['k'],,,,,Y,Y,F,20,
36,9,549,5,5,11,['d'],Y,Y,None,N,['k'],22,31,17,,Y,Y,F,20,
36,10,550,0,0,12,['k'],N,,,,['k'],,,,,Y,Y,F,20,
36,11,551,0,0,12,['k'],N,,,,['k'],,,,,Y,Y,F,20,
36,12,552,8,8,12,['k'],Y,Y,None,N,['d'],,,,,Y,Y,F,20,
36,13,553,1,1,12,['k'],Y,Y,None,N,['d'],,,,,Y,Y,F,20,
36,14,554,0,0,12,['k'],Y,N,None,Y,['d'],,,,,Y,Y,F,20,
37,0,555,13,13,12,['k'],N,N,None,Y,['k'],,,,,Y,Y,F,20,
37,1,556,9,9,12,['k'],Y,Y,None,N,['d'],,,,,Y,Y,F,20,
37,2,557,7,7,12,['k'],N,N,None,Y,['k'],,,,,Y,Y,F,20,
37,3,558,10,10,12,['k'],Y,N,None,Y,['d'],,,,,Y,Y,F,20,
37,4,559,10,10,12,['k'],Y,N,None,Y,['d'],,,,,Y,Y,F,20,
37,5,560,11,11,12,['k'],N,N,None,Y,['k'],,,,,Y,Y,F,20,
37,6,561,4,4,12,['k'],Y,Y,None,N,['d'],,,,,Y,Y,F,20,
37,7,562,5,5,12,['k'],N,N,None,Y,['k'],,,,,Y,Y,F,20,
37,8,563,14,14,12,['k'],Y,N,None,Y,['d'],,,,,Y,Y,F,20,
37,9,564,6,6,12,['k'],N,N,None,Y,['k'],,,,,Y,Y,F,20,
37,10,565,1,1,12,['d'],Y,Y,['k'],N,['k'],,,,,Y,Y,F,20,
37,11,566,6,6,12,['k'],N,Y,None,N,['k'],,,,,Y,Y,F,20,
37,12,567,10,10,12,['k'],Y,N,None,Y,['d'],,,,,Y,Y,F,20,
37,13,568,10,10,12,['k'],Y,Y,None,N,['d'],,,,,Y,Y,F,20,
37,14,569,0,0,12,['k'],N,Y,None,N,['k'],,,,,Y,Y,F,20,
38,0,570,7,7,12,['k'],Y,Y,None,N,['d'],,,,,Y,Y,F,20,
38,1,571,13,13,12,['d'],Y,Y,None,N,['k'],,,,,Y,Y,F,20,
38,2,572,5,5,12,['k'],N,Y,None,N,['k'],,,,,Y,Y,F,20,
38,3,573,9,9,12,['d'],N,N,None,Y,['d'],,,,,Y,Y,F,20,
38,4,574,7,7,12,['k'],N,Y,None,N,['k'],,,,,Y,Y,F,20,
38,5,575,14,14,12,['k'],N,N,None,Y,['k'],,,,,Y,Y,F,20,
38,6,576,7,7,12,['k'],N,Y,None,N,['k'],,,,,Y,Y,F,20,
38,7,577,3,3,12,['k'],N,Y,None,N,['k'],,,,,Y,Y,F,20,
38,8,578,5,5,12,['k'],Y,Y,None,N,['d'],,,,,Y,Y,F,20,
38,9,579,12,12,12,['d'],N,N,None,Y,['d'],,,,,Y,Y,F,20,
38,10,580,2,2,12,['k'],N,N,None,Y,['k'],,,,,Y,Y,F,20,
38,11,581,13,13,12,['k'],N,Y,None,N,['k'],,,,,Y,Y,F,20,
38,12,582,7,7,12,['k'],Y,Y,None,N,['d'],,,,,Y,Y,F,20,
38,13,583,10,10,12,['k'],Y,Y,None,N,['d'],,,,,Y,Y,F,20,
38,14,584,8,8,12,['k'],N,Y,None,N,['k'],,,,,Y,Y,F,20,
39,0,585,11,11,12,['k'],Y,Y,None,N,['d'],,,,,Y,Y,F,20,
39,1,586,12,12,12,['k'],N,Y,None,N,['k'],,,,,Y,Y,F,20,
39,2,587,11,11,12,['d'],Y,N,None,Y,['k'],,,,,Y,Y,F,20,
39,3,588,0,0,12,['k'],Y,N,None,Y,['d'],,,,,Y,Y,F,20,
39,4,589,7,7,12,['k'],N,Y,None,N,['k'],,,,,Y,Y,F,20,
39,5,590,2,2,12,['k'],N,N,None,Y,['k'],,,,,Y,Y,F,20,
39,6,591,7,7,12,['d'],Y,N,None,Y,['k'],,,,,Y,Y,F,20,
39,7,592,3,3,12,['k'],Y,Y,None,N,['d'],,,,,Y,Y,F,20,
39,8,593,8,8,12,['k'],N,N,None,Y,['k'],,,,,Y,Y,F,20,
39,9,594,10,10,12,['d'],Y,Y,None,N,['k'],,,,,Y,Y,F,20,
39,10,595,12,12,12,['k'],N,Y,None,N,['k'],,,,,Y,Y,F,20,
39,11,596,2,2,12,['k'],N,N,None,Y,['k'],,,,,Y,Y,F,20,
39,12,597,2,2,12,['k'],N,N,None,Y,['k'],,,,,Y,Y,F,20,
39,13,598,11,11,12,['k'],N,N,None,Y,['k'],,,,,Y,Y,F,20,
39,14,599,4,4,12,['k'],N,N,None,Y,['k'],22,23,25,,Y,Y,F,20,
