.thisRepN,.thisTrialN,.thisN,.thisIndex,.thisTrial,Block Number,Key pressed,Category,Correct?,Int Match?,Int Response,Int Correct?,Line Accuracy,Interference Accuracy,Matching Interferences,New instruction shown?,Buttons switched?,Fast?,gender,age,
0,0,0,6,6,1,['d'],['k'],N,,,,,,,,,,m,20,
0,1,1,2,2,1,['d'],['k'],N,,,,,,,,,,m,20,
0,2,2,7,7,1,['k'],['k'],Y,N,None,Y,,,,,,,m,20,
0,3,3,8,8,1,['k'],['k'],Y,N,None,Y,,,,,,,m,20,
0,4,4,6,6,1,['k'],['k'],Y,N,['space'],N,,,,,,,m,20,
0,5,5,5,5,1,['d'],['d'],Y,N,None,Y,,,,,,,m,20,
0,6,6,8,8,1,['d'],['d'],Y,N,None,Y,,,,,,,m,20,
0,7,7,10,10,1,['k'],['d'],N,N,None,Y,,,,,,,m,20,
0,8,8,3,3,1,['d'],['d'],Y,N,None,Y,,,,,,,m,20,
0,9,9,6,6,1,['k'],['k'],Y,Y,['space'],Y,,,,,,,m,20,
0,10,10,10,10,1,['k'],['d'],N,Y,['space'],Y,,,,,,,m,20,
1,0,11,0,0,1,['k'],['d'],N,Y,['space'],Y,,,,,,,m,20,
1,1,12,4,4,1,['k'],['k'],Y,N,None,Y,,,,,,,m,20,
1,2,13,10,10,1,['k'],['d'],N,N,None,Y,,,,,,,m,20,
1,3,14,10,10,1,['d'],['k'],N,Y,['space'],Y,,,,,,,m,20,
1,4,15,7,7,1,['k'],['k'],Y,N,None,Y,,,,,,,m,20,
1,5,16,6,6,1,['k'],['k'],Y,N,None,Y,,,,,,,m,20,
1,6,17,9,9,1,['k'],['k'],Y,N,None,Y,,,,,,,m,20,
1,7,18,4,4,1,['k'],['d'],N,Y,None,N,,,,,,,m,20,
1,8,19,3,3,1,['k'],['d'],N,N,None,Y,,,,,,,m,20,
1,9,20,7,7,1,['k'],['d'],N,N,['space'],N,,,,,,,m,20,
1,10,21,0,0,1,['k'],['k'],Y,N,None,Y,,,,,,,m,20,
2,0,22,8,8,1,['k'],['d'],N,Y,['space'],Y,,,,,,,m,20,
2,1,23,1,1,1,['d'],['d'],Y,Y,['space'],Y,,,,,,,m,20,
2,2,24,0,0,1,['d'],['k'],N,N,None,Y,,,,,,,m,20,
2,3,25,7,7,1,['k'],['d'],N,N,None,Y,,,,,,,m,20,
2,4,26,2,2,1,['k'],['k'],Y,Y,['space'],Y,,,,,,,m,20,
2,5,27,5,5,1,['k'],['d'],N,Y,None,N,,,,,,,m,20,
2,6,28,8,8,1,['k'],['d'],N,N,None,Y,,,,,,,m,20,
2,7,29,9,9,1,['d'],['d'],Y,Y,['space'],Y,,,,,,,m,20,
2,8,30,10,10,1,['k'],['d'],N,N,None,Y,,,,,,,m,20,
2,9,31,10,10,1,['k'],['d'],N,N,None,Y,,,,,,,m,20,
2,10,32,0,0,1,['d'],['k'],N,Y,['space'],Y,,,,,,,m,20,
3,0,33,3,3,1,['k'],['d'],N,N,None,Y,,,,,,,m,20,
3,1,34,5,5,1,['d'],['d'],Y,Y,None,N,,,,,,,m,20,
3,2,35,3,3,1,['k'],['k'],Y,N,None,Y,,,,,,,m,20,
3,3,36,7,7,1,['k'],['k'],Y,Y,None,N,,,,,,,m,20,
3,4,37,6,6,1,['k'],['d'],N,Y,None,N,,,,,,,m,20,
3,5,38,8,8,1,['d'],['k'],N,Y,['space'],Y,,,,,,,m,20,
3,6,39,9,9,1,['k'],['d'],N,Y,None,N,,,,,,,m,20,
3,7,40,5,5,1,['k'],['k'],Y,Y,None,N,,,,,,,m,20,
3,8,41,5,5,1,['d'],['k'],N,N,None,Y,,,,,,,m,20,
3,9,42,7,7,1,['d'],['d'],Y,Y,None,N,,,,,,,m,20,
3,10,43,2,2,1,['d'],['k'],N,N,None,Y,,,,,,,m,20,
4,0,44,0,0,1,['k'],['k'],Y,Y,None,N,,,,,,,m,20,
4,1,45,8,8,1,['k'],['k'],Y,Y,None,N,,,,,,,m,20,
4,2,46,4,4,1,['d'],['k'],N,Y,None,N,,,,,,,m,20,
4,3,47,10,10,1,['k'],['d'],N,N,['space'],N,,,,,,,m,20,
4,4,48,3,3,1,['k'],['d'],N,N,None,Y,,,,,,,m,20,
4,5,49,1,1,1,['d'],['d'],Y,N,None,Y,23,34,21,,,,m,20,
4,6,50,2,2,2,['k'],['d'],N,,,,,,,,,,m,20,
4,7,51,7,7,2,['k'],['k'],Y,,,,,,,,,,m,20,
4,8,52,2,2,2,['d'],['d'],Y,Y,None,N,,,,,,,m,20,
4,9,53,1,1,2,['k'],['k'],Y,Y,None,N,,,,,,,m,20,
4,10,54,6,6,2,['k'],['d'],N,Y,['space'],Y,,,,,,,m,20,
5,0,55,3,3,2,['d'],['k'],N,N,['space'],N,,,,,,,m,20,
5,1,56,6,6,2,['k'],['d'],N,N,None,Y,,,,,,,m,20,
5,2,57,8,8,2,['k'],['d'],N,N,None,Y,,,,,,,m,20,
5,3,58,7,7,2,['k'],['d'],N,N,None,Y,,,,,,,m,20,
5,4,59,9,9,2,['k'],['k'],Y,N,None,Y,,,,,,,m,20,
5,5,60,10,10,2,['k'],['d'],N,N,None,Y,,,,,,,m,20,
5,6,61,5,5,2,['k'],['d'],N,Y,None,N,,,,,,,m,20,
5,7,62,2,2,2,['d'],['k'],N,Y,['space'],Y,,,,,,,m,20,
5,8,63,4,4,2,['k'],['k'],Y,Y,['space'],Y,,,,,,,m,20,
5,9,64,10,10,2,['k'],['k'],Y,Y,None,N,,,,,,,m,20,
5,10,65,2,2,2,['d'],['d'],Y,Y,None,N,,,,,,,m,20,
6,0,66,3,3,2,['k'],['k'],Y,N,None,Y,,,,,,,m,20,
6,1,67,2,2,2,['d'],['k'],N,Y,['space'],Y,,,,,,,m,20,
6,2,68,1,1,2,['k'],['k'],Y,Y,['space'],Y,,,,,,,m,20,
6,3,69,5,5,2,['k'],['d'],N,Y,None,N,,,,,,,m,20,
6,4,70,4,4,2,['k'],['k'],Y,N,None,Y,,,,,,,m,20,
6,5,71,1,1,2,['d'],['k'],N,Y,None,N,,,,,,,m,20,
6,6,72,10,10,2,['k'],['k'],Y,Y,None,N,,,,,,,m,20,
6,7,73,4,4,2,['d'],['k'],N,Y,None,N,,,,,,,m,20,
6,8,74,10,10,2,['k'],['d'],N,Y,None,N,,,,,,,m,20,
6,9,75,6,6,2,['k'],['d'],N,Y,None,N,,,,,,,m,20,
6,10,76,3,3,2,['k'],['k'],Y,N,None,Y,,,,,,,m,20,
7,0,77,3,3,2,['k'],['d'],N,N,None,Y,,,,,,,m,20,
7,1,78,9,9,2,['d'],['k'],N,Y,['space'],Y,,,,,,,m,20,
7,2,79,1,1,2,['k'],['d'],N,Y,['k'],N,,,,,,,m,20,
7,3,80,5,5,2,['k'],['d'],N,Y,['space'],Y,,,,,,,m,20,
7,4,81,9,9,2,['d'],['k'],N,Y,['space'],Y,,,,,,,m,20,
7,5,82,10,10,2,['k'],['k'],Y,Y,['space'],Y,,,,,,,m,20,
7,6,83,4,4,2,['k'],['d'],N,Y,['space'],Y,,,,,,,m,20,
7,7,84,3,3,2,['d'],['k'],N,N,['space'],N,,,,,,,m,20,
7,8,85,9,9,2,['k'],['d'],N,Y,['space'],Y,,,,,,,m,20,
7,9,86,7,7,2,['k'],['d'],N,N,None,Y,,,,,,,m,20,
7,10,87,1,1,2,['d'],['d'],Y,N,None,Y,,,,,,,m,20,
8,0,88,3,3,2,['k'],['k'],Y,N,None,Y,,,,,,,m,20,
8,1,89,1,1,2,['k'],['k'],Y,N,['space'],N,,,,,,,m,20,
8,2,90,5,5,2,['k'],['k'],Y,N,None,Y,,,,,,,m,20,
8,3,91,9,9,2,['d'],['d'],Y,Y,['space'],Y,,,,,,,m,20,
8,4,92,3,3,2,['d'],['k'],N,N,None,Y,,,,,,,m,20,
8,5,93,6,6,2,['k'],['k'],Y,Y,['space'],Y,,,,,,,m,20,
8,6,94,6,6,2,['d'],['d'],Y,N,None,Y,,,,,,,m,20,
8,7,95,3,3,2,['d'],['k'],N,N,None,Y,,,,,,,m,20,
8,8,96,1,1,2,['k'],['k'],Y,N,None,Y,,,,,,,m,20,
8,9,97,1,1,2,['k'],['k'],Y,N,None,Y,,,,,,,m,20,
8,10,98,8,8,2,['k'],['k'],Y,N,None,Y,,,,,,,m,20,
9,0,99,2,2,2,['k'],['d'],N,N,None,Y,23,33,25,,,,m,20,
9,1,100,10,10,3,['d'],['d'],Y,,,,,,,,,,m,20,
9,2,101,9,9,3,['k'],['k'],Y,,,,,,,,,,m,20,
9,3,102,8,8,3,['d'],['k'],N,Y,None,N,,,,,,,m,20,
9,4,103,5,5,3,['d'],['k'],N,N,None,Y,,,,,,,m,20,
9,5,104,7,7,3,['d'],['d'],Y,Y,['space'],Y,,,,,,,m,20,
9,6,105,2,2,3,['k'],['d'],N,Y,['space'],Y,,,,,,,m,20,
9,7,106,9,9,3,['k'],['k'],Y,N,None,Y,,,,,,,m,20,
9,8,107,8,8,3,['d'],['k'],N,Y,['space'],Y,,,,,,,m,20,
9,9,108,7,7,3,['d'],['k'],N,Y,None,N,,,,,,,m,20,
9,10,109,3,3,3,['k'],['d'],N,Y,['space'],Y,,,,,,,m,20,
10,0,110,0,0,3,['k'],['k'],Y,Y,None,N,,,,,,,m,20,
10,1,111,8,8,3,['d'],['d'],Y,N,None,Y,,,,,,,m,20,
10,2,112,10,10,3,['k'],['d'],N,N,None,Y,,,,,,,m,20,
10,3,113,8,8,3,['d'],['k'],N,N,None,Y,,,,,,,m,20,
10,4,114,0,0,3,['d'],['d'],Y,Y,['space'],Y,,,,,,,m,20,
10,5,115,3,3,3,['k'],['d'],N,Y,['space'],Y,,,,,,,m,20,
10,6,116,5,5,3,['d'],['k'],N,Y,['space'],Y,,,,,,,m,20,
10,7,117,5,5,3,['k'],['d'],N,Y,None,N,,,,,,,m,20,
10,8,118,4,4,3,['d'],['d'],Y,N,None,Y,,,,,,,m,20,
10,9,119,4,4,3,['k'],['d'],N,N,None,Y,,,,,,,m,20,
10,10,120,6,6,3,['k'],['d'],N,N,None,Y,,,,,,,m,20,
11,0,121,2,2,3,['d'],['k'],N,Y,['space'],Y,,,,,,,m,20,
11,1,122,4,4,3,['k'],['d'],N,Y,['space'],Y,,,,,,,m,20,
11,2,123,4,4,3,['k'],['k'],Y,N,['space'],N,,,,,,,m,20,
11,3,124,8,8,3,['k'],['k'],Y,N,None,Y,,,,,,,m,20,
11,4,125,3,3,3,['d'],['k'],N,Y,None,N,,,,,,,m,20,
11,5,126,9,9,3,['k'],['k'],Y,N,None,Y,,,,,,,m,20,
11,6,127,7,7,3,['k'],['d'],N,Y,['space'],Y,,,,,,,m,20,
11,7,128,9,9,3,['d'],['k'],N,Y,['space'],Y,,,,,,,m,20,
11,8,129,7,7,3,['k'],['d'],N,Y,['space'],Y,,,,,,,m,20,
11,9,130,7,7,3,['d'],['d'],Y,Y,['space'],Y,,,,,,,m,20,
11,10,131,9,9,3,['k'],['d'],N,Y,['space'],Y,,,,,,,m,20,
12,0,132,8,8,3,['d'],['d'],Y,Y,['space'],Y,,,,,,,m,20,
12,1,133,4,4,3,['k'],['k'],Y,N,None,Y,,,,,,,m,20,
12,2,134,8,8,3,['d'],['k'],N,N,None,Y,,,,,,,m,20,
12,3,135,1,1,3,['k'],['k'],Y,N,None,Y,,,,,,,m,20,
12,4,136,10,10,3,['k'],['k'],Y,N,None,Y,,,,,,,m,20,
12,5,137,5,5,3,['k'],['k'],Y,N,None,Y,,,,,,,m,20,
12,6,138,4,4,3,['k'],['d'],N,N,None,Y,,,,,,,m,20,
12,7,139,4,4,3,['d'],['k'],N,N,None,Y,,,,,,,m,20,
12,8,140,0,0,3,['k'],['d'],N,N,None,Y,,,,,,,m,20,
12,9,141,5,5,3,['d'],['d'],Y,N,None,Y,,,,,,,m,20,
12,10,142,5,5,3,['k'],['k'],Y,Y,None,N,,,,,,,m,20,
13,0,143,1,1,3,['d'],['d'],Y,N,None,Y,,,,,,,m,20,
13,1,144,5,5,3,['d'],['d'],Y,N,['space'],N,,,,,,,m,20,
13,2,145,5,5,3,['d'],['k'],N,N,['space'],N,,,,,,,m,20,
13,3,146,7,7,3,['d'],['d'],Y,Y,['space'],Y,,,,,,,m,20,
13,4,147,2,2,3,['k'],['d'],N,Y,['space'],Y,,,,,,,m,20,
13,5,148,6,6,3,['k'],['k'],Y,N,None,Y,,,,,,,m,20,
13,6,149,9,9,3,['d'],['d'],Y,N,None,Y,24,39,23,,,,m,20,
13,7,150,2,2,4,['k'],['d'],N,,,,,,,,,,m,20,
13,8,151,10,10,4,['d'],['d'],Y,,,,,,,,,,m,20,
13,9,152,6,6,4,['k'],['k'],Y,Y,['k'],N,,,,,,,m,20,
13,10,153,5,5,4,['d'],['k'],N,Y,['space'],Y,,,,,,,m,20,
14,0,154,4,4,4,['d'],['d'],Y,Y,None,N,,,,,,,m,20,
14,1,155,9,9,4,['k'],['k'],Y,N,None,Y,,,,,,,m,20,
14,2,156,4,4,4,['d'],['d'],Y,N,None,Y,,,,,,,m,20,
14,3,157,1,1,4,['k'],['k'],Y,Y,None,N,,,,,,,m,20,
14,4,158,8,8,4,['d'],['k'],N,N,None,Y,,,,,,,m,20,
14,5,159,8,8,4,['k'],['k'],Y,Y,None,N,,,,,,,m,20,
14,6,160,8,8,4,['k'],['d'],N,Y,['space'],Y,,,,,,,m,20,
14,7,161,1,1,4,['k'],['k'],Y,Y,['space'],Y,,,,,,,m,20,
14,8,162,10,10,4,['k'],['k'],Y,Y,['space'],Y,,,,,,,m,20,
14,9,163,6,6,4,['k'],['d'],N,Y,['space'],Y,,,,,,,m,20,
14,10,164,3,3,4,['d'],['k'],N,N,None,Y,,,,,,,m,20,
15,0,165,8,8,4,['d'],['d'],Y,Y,None,N,,,,,,,m,20,
15,1,166,9,9,4,['d'],['d'],Y,N,None,Y,,,,,,,m,20,
15,2,167,3,3,4,['k'],['k'],Y,N,['space'],N,,,,,,,m,20,
15,3,168,4,4,4,['d'],['k'],N,Y,['space'],Y,,,,,,,m,20,
15,4,169,10,10,4,['k'],['k'],Y,Y,['space'],Y,,,,,,,m,20,
15,5,170,0,0,4,['d'],['d'],Y,N,None,Y,,,,,,,m,20,
15,6,171,8,8,4,['k'],['d'],N,N,None,Y,,,,,,,m,20,
15,7,172,6,6,4,['d'],['d'],Y,Y,['space'],Y,,,,,,,m,20,
15,8,173,6,6,4,['k'],['d'],N,Y,None,N,,,,,,,m,20,
15,9,174,4,4,4,['d'],['d'],Y,Y,None,N,,,,,,,m,20,
15,10,175,0,0,4,['k'],['d'],N,Y,None,N,,,,,,,m,20,
16,0,176,10,10,4,['k'],['k'],Y,Y,None,N,,,,,,,m,20,
16,1,177,1,1,4,['d'],['d'],Y,Y,['space'],Y,,,,,,,m,20,
16,2,178,0,0,4,['k'],['d'],N,N,None,Y,,,,,,,m,20,
16,3,179,0,0,4,['k'],['d'],N,Y,['space'],Y,,,,,,,m,20,
16,4,180,3,3,4,['d'],['k'],N,N,None,Y,,,,,,,m,20,
16,5,181,6,6,4,['k'],['d'],N,Y,['space'],Y,,,,,,,m,20,
16,6,182,8,8,4,['d'],['d'],Y,Y,['space'],Y,,,,,,,m,20,
16,7,183,9,9,4,['k'],['k'],Y,Y,['space'],Y,,,,,,,m,20,
16,8,184,2,2,4,['d'],['d'],Y,Y,['space'],Y,,,,,,,m,20,
16,9,185,9,9,4,['d'],['k'],N,Y,['space'],Y,,,,,,,m,20,
16,10,186,1,1,4,['k'],['d'],N,N,None,Y,,,,,,,m,20,
17,0,187,6,6,4,['d'],['d'],Y,Y,['space'],Y,,,,,,,m,20,
17,1,188,1,1,4,['k'],['k'],Y,N,None,Y,,,,,,,m,20,
17,2,189,4,4,4,['k'],['k'],Y,N,None,Y,,,,,,,m,20,
17,3,190,0,0,4,['d'],['d'],Y,N,None,Y,,,,,,,m,20,
17,4,191,0,0,4,['d'],['k'],N,N,None,Y,,,,,,,m,20,
17,5,192,6,6,4,['d'],['d'],Y,N,None,Y,,,,,,,m,20,
17,6,193,4,4,4,['d'],['k'],N,N,None,Y,,,,,,,m,20,
17,7,194,10,10,4,['d'],['d'],Y,N,None,Y,,,,,,,m,20,
17,8,195,0,0,4,['k'],['k'],Y,N,None,Y,,,,,,,m,20,
17,9,196,8,8,4,['k'],['k'],Y,N,None,Y,,,,,,,m,20,
17,10,197,8,8,4,['d'],['d'],Y,N,None,Y,,,,,,,m,20,
18,0,198,1,1,4,['k'],['d'],N,N,None,Y,,,,,,,m,20,
18,1,199,2,2,4,['k'],['k'],Y,N,None,Y,31,38,25,,,,m,20,
18,2,200,10,10,5,['k'],['k'],Y,,,,,,,,,,m,20,
18,3,201,9,9,5,['d'],['d'],Y,,,,,,,,,,m,20,
18,4,202,9,9,5,['k'],['k'],Y,Y,None,N,,,,,,,m,20,
18,5,203,8,8,5,['d'],['d'],Y,Y,None,N,,,,,,,m,20,
18,6,204,6,6,5,['k'],['k'],Y,Y,None,N,,,,,,,m,20,
18,7,205,5,5,5,['d'],['d'],Y,Y,['space'],Y,,,,,,,m,20,
18,8,206,9,9,5,['d'],['k'],N,N,['space'],N,,,,,,,m,20,
18,9,207,2,2,5,['d'],['d'],Y,Y,['space'],Y,,,,,,,m,20,
18,10,208,7,7,5,['k'],['d'],N,N,None,Y,,,,,,,m,20,
19,0,209,6,6,5,['d'],['k'],N,N,None,Y,,,,,,,m,20,
19,1,210,1,1,5,['k'],['k'],Y,N,None,Y,,,,,,,m,20,
19,2,211,3,3,5,['k'],['d'],N,N,None,Y,,,,,,,m,20,
19,3,212,6,6,5,['k'],['k'],Y,Y,['space'],Y,,,,,,,m,20,
19,4,213,9,9,5,['k'],['d'],N,N,None,Y,,,,,,,m,20,
19,5,214,6,6,5,['d'],['d'],Y,N,None,Y,,,,,,,m,20,
19,6,215,1,1,5,['k'],['d'],N,N,None,Y,,,,,,,m,20,
19,7,216,2,2,5,['d'],['d'],Y,Y,['space'],Y,,,,,,,m,20,
19,8,217,2,2,5,['d'],['k'],N,Y,['space'],Y,,,,,,,m,20,
19,9,218,7,7,5,['d'],['d'],Y,N,None,Y,,,,,,,m,20,
19,10,219,8,8,5,['d'],['d'],Y,Y,['space'],Y,,,,,,,m,20,
20,0,220,1,1,5,['k'],['d'],N,N,['space'],N,,,,,,,m,20,
20,1,221,4,4,5,['d'],['k'],N,N,None,Y,,,,,,,m,20,
20,2,222,2,2,5,['d'],['d'],Y,N,None,Y,,,,,,,m,20,
20,3,223,10,10,5,['d'],['k'],N,N,None,Y,,,,,,,m,20,
20,4,224,5,5,5,['d'],['k'],N,N,None,Y,,,,,,,m,20,
20,5,225,2,2,5,['k'],['d'],N,Y,['space'],Y,,,,,,,m,20,
20,6,226,0,0,5,['d'],['k'],N,N,None,Y,,,,,,,m,20,
20,7,227,2,2,5,['k'],['k'],Y,Y,['space'],Y,,,,,,,m,20,
20,8,228,10,10,5,['d'],['k'],N,N,None,Y,,,,,,,m,20,
20,9,229,1,1,5,['k'],['d'],N,Y,['space'],Y,,,,,,,m,20,
20,10,230,10,10,5,['d'],['k'],N,N,None,Y,,,,,,,m,20,
21,0,231,7,7,5,['k'],['d'],N,Y,['space'],Y,,,,,,,m,20,
21,1,232,4,4,5,['k'],['k'],Y,Y,['space'],Y,,,,,,,m,20,
21,2,233,3,3,5,['d'],['k'],N,Y,['space'],Y,,,,,,,m,20,
21,3,234,8,8,5,['d'],['d'],Y,N,None,Y,,,,,,,m,20,
21,4,235,0,0,5,['k'],['k'],Y,Y,['space'],Y,,,,,,,m,20,
21,5,236,7,7,5,['k'],['k'],Y,Y,['space'],Y,,,,,,,m,20,
21,6,237,0,0,5,['d'],['d'],Y,N,None,Y,,,,,,,m,20,
21,7,238,10,10,5,['d'],['d'],Y,N,['space'],N,,,,,,,m,20,
21,8,239,8,8,5,['d'],['d'],Y,Y,['space'],Y,,,,,,,m,20,
21,9,240,5,5,5,['k'],['k'],Y,N,None,Y,,,,,,,m,20,
21,10,241,1,1,5,['d'],['d'],Y,N,None,Y,,,,,,,m,20,
22,0,242,0,0,5,['d'],['d'],Y,N,None,Y,,,,,,,m,20,
22,1,243,10,10,5,['d'],['k'],N,Y,['space'],Y,,,,,,,m,20,
22,2,244,2,2,5,['d'],['k'],N,N,None,Y,,,,,,,m,20,
22,3,245,6,6,5,['k'],['k'],Y,N,None,Y,,,,,,,m,20,
22,4,246,5,5,5,['d'],['k'],N,N,['space'],N,,,,,,,m,20,
22,5,247,3,3,5,['d'],['k'],N,N,['space'],N,,,,,,,m,20,
22,6,248,6,6,5,['k'],['k'],Y,N,['space'],N,,,,,,,m,20,
22,7,249,10,10,5,['d'],['k'],N,N,None,Y,27,39,19,,,,m,20,
22,8,250,0,0,6,['k'],['d'],N,,,,,,,,,,m,20,
22,9,251,3,3,6,['d'],['k'],N,,,,,,,,,,m,20,
22,10,252,6,6,6,['k'],['k'],Y,Y,None,N,,,,,,,m,20,
23,0,253,10,10,6,['d'],['d'],Y,N,None,Y,,,,,,,m,20,
23,1,254,9,9,6,['d'],['d'],Y,Y,['space'],Y,,,,,,,m,20,
23,2,255,8,8,6,['k'],['k'],Y,Y,None,N,,,,,,,m,20,
23,3,256,1,1,6,['d'],['k'],N,Y,['space'],Y,,,,,,,m,20,
23,4,257,2,2,6,['k'],['k'],Y,N,None,Y,,,,,,,m,20,
23,5,258,5,5,6,['d'],['k'],N,Y,['space'],Y,,,,,,,m,20,
23,6,259,3,3,6,['d'],['k'],N,N,None,Y,,,,,,,m,20,
23,7,260,3,3,6,['k'],['k'],Y,Y,None,N,,,,,,,m,20,
23,8,261,2,2,6,['d'],['k'],N,Y,['space'],Y,,,,,,,m,20,
23,9,262,0,0,6,['d'],['d'],Y,N,None,Y,,,,,,,m,20,
23,10,263,0,0,6,['k'],['k'],Y,N,['space'],N,,,,,,,m,20,
24,0,264,2,2,6,['d'],['d'],Y,Y,['space'],Y,,,,,,,m,20,
24,1,265,1,1,6,['d'],['k'],N,N,None,Y,,,,,,,m,20,
24,2,266,0,0,6,['d'],['d'],Y,Y,['space'],Y,,,,,,,m,20,
24,3,267,7,7,6,['d'],['k'],N,N,None,Y,,,,,,,m,20,
24,4,268,3,3,6,['k'],['k'],Y,N,None,Y,,,,,,,m,20,
24,5,269,7,7,6,['d'],['d'],Y,Y,['space'],Y,,,,,,,m,20,
24,6,270,6,6,6,['d'],['k'],N,N,None,Y,,,,,,,m,20,
24,7,271,5,5,6,['d'],['d'],Y,N,None,Y,,,,,,,m,20,
24,8,272,1,1,6,['d'],['d'],Y,Y,['space'],Y,,,,,,,m,20,
24,9,273,7,7,6,['k'],['k'],Y,Y,['space'],Y,,,,,,,m,20,
24,10,274,9,9,6,['d'],['d'],Y,N,None,Y,,,,,,,m,20,
25,0,275,9,9,6,['k'],['d'],N,Y,['space'],Y,,,,,,,m,20,
25,1,276,8,8,6,['k'],['d'],N,N,None,Y,,,,,,,m,20,
25,2,277,2,2,6,['d'],['d'],Y,Y,['space'],Y,,,,,,,m,20,
25,3,278,1,1,6,['k'],['k'],Y,Y,None,N,,,,,,,m,20,
25,4,279,9,9,6,['k'],['k'],Y,Y,None,N,,,,,,,m,20,
25,5,280,2,2,6,['k'],['d'],N,N,None,Y,,,,,,,m,20,
25,6,281,1,1,6,['d'],['d'],Y,N,None,Y,,,,,,,m,20,
25,7,282,7,7,6,['k'],['k'],Y,Y,['space'],Y,,,,,,,m,20,
25,8,283,7,7,6,['k'],['d'],N,N,None,Y,,,,,,,m,20,
25,9,284,8,8,6,['k'],['d'],N,Y,['space'],Y,,,,,,,m,20,
25,10,285,10,10,6,['d'],['d'],Y,N,None,Y,,,,,,,m,20,
26,0,286,10,10,6,['k'],['k'],Y,Y,None,N,,,,,,,m,20,
26,1,287,1,1,6,['d'],['k'],N,N,None,Y,,,,,,,m,20,
26,2,288,8,8,6,['k'],['k'],Y,Y,['space'],Y,,,,,,,m,20,
26,3,289,4,4,6,['d'],['d'],Y,Y,['space'],Y,,,,,,,m,20,
26,4,290,0,0,6,['k'],['k'],Y,N,None,Y,,,,,,,m,20,
26,5,291,7,7,6,['d'],['k'],N,Y,['space'],Y,,,,,,,m,20,
26,6,292,7,7,6,['d'],['d'],Y,Y,['space'],Y,,,,,,,m,20,
26,7,293,1,1,6,['d'],['k'],N,Y,['space'],Y,,,,,,,m,20,
26,8,294,10,10,6,['k'],['k'],Y,Y,['space'],Y,,,,,,,m,20,
26,9,295,0,0,6,['d'],['k'],N,N,['space'],N,,,,,,,m,20,
26,10,296,3,3,6,['k'],['k'],Y,N,None,Y,,,,,,,m,20,
27,0,297,7,7,6,['d'],['k'],N,N,None,Y,,,,,,,m,20,
27,1,298,7,7,6,['d'],['d'],Y,N,None,Y,,,,,,,m,20,
27,2,299,6,6,6,['k'],['d'],N,N,None,Y,30,40,25,,,,m,20,
27,3,300,0,0,7,['k'],['d'],N,,,,,,,,,,m,20,
27,4,301,0,0,7,['d'],['d'],Y,,,,,,,,,,m,20,
27,5,302,5,5,7,['k'],['d'],N,N,None,Y,,,,,,,m,20,
27,6,303,2,2,7,['d'],['d'],Y,Y,['space'],Y,,,,,,,m,20,
27,7,304,2,2,7,['k'],['k'],Y,N,None,Y,,,,,,,m,20,
27,8,305,10,10,7,['k'],['d'],N,Y,['space'],Y,,,,,,,m,20,
27,9,306,3,3,7,['k'],['d'],N,N,None,Y,,,,,,,m,20,
27,10,307,6,6,7,['d'],['k'],N,N,None,Y,,,,,,,m,20,
28,0,308,4,4,7,['k'],['d'],N,N,None,Y,,,,,,,m,20,
28,1,309,8,8,7,['k'],['k'],Y,Y,['space'],Y,,,,,,,m,20,
28,2,310,2,2,7,['k'],['k'],Y,N,None,Y,,,,,,,m,20,
28,3,311,7,7,7,['k'],['d'],N,N,None,Y,,,,,,,m,20,
28,4,312,6,6,7,['k'],['d'],N,Y,['space'],Y,,,,,,,m,20,
28,5,313,8,8,7,['k'],['d'],N,Y,['space'],Y,,,,,,,m,20,
28,6,314,4,4,7,['d'],['k'],N,N,None,Y,,,,,,,m,20,
28,7,315,5,5,7,['k'],['k'],Y,Y,['space'],Y,,,,,,,m,20,
28,8,316,8,8,7,['d'],['k'],N,N,None,Y,,,,,,,m,20,
28,9,317,5,5,7,['d'],['k'],N,Y,['space'],Y,,,,,,,m,20,
28,10,318,5,5,7,['k'],['d'],N,N,None,Y,,,,,,,m,20,
29,0,319,2,2,7,['k'],['k'],Y,N,None,Y,,,,,,,m,20,
29,1,320,9,9,7,['d'],['k'],N,Y,['space'],Y,,,,,,,m,20,
29,2,321,4,4,7,['k'],['d'],N,N,None,Y,,,,,,,m,20,
29,3,322,3,3,7,['d'],['d'],Y,N,None,Y,,,,,,,m,20,
29,4,323,5,5,7,['k'],['k'],Y,Y,['space'],Y,,,,,,,m,20,
29,5,324,9,9,7,['k'],['d'],N,N,None,Y,,,,,,,m,20,
29,6,325,6,6,7,['d'],['d'],Y,N,None,Y,,,,,,,m,20,
29,7,326,1,1,7,['k'],['k'],Y,Y,None,N,,,,,,,m,20,
29,8,327,6,6,7,['k'],['k'],Y,N,['space'],N,,,,,,,m,20,
29,9,328,0,0,7,['d'],['k'],N,N,None,Y,,,,,,,m,20,
29,10,329,4,4,7,['k'],['d'],N,Y,['space'],Y,,,,,,,m,20,
30,0,330,4,4,7,['k'],['d'],N,N,None,Y,,,,,,,m,20,
30,1,331,4,4,7,['k'],['k'],Y,N,['space'],N,,,,,,,m,20,
30,2,332,1,1,7,['d'],['d'],Y,N,None,Y,,,,,,,m,20,
30,3,333,5,5,7,['d'],['d'],Y,Y,None,N,,,,,,,m,20,
30,4,334,2,2,7,['k'],['d'],N,N,None,Y,,,,,,,m,20,
30,5,335,9,9,7,['d'],['d'],Y,N,None,Y,,,,,,,m,20,
30,6,336,5,5,7,['d'],['d'],Y,N,None,Y,,,,,,,m,20,
30,7,337,9,9,7,['k'],['d'],N,N,None,Y,,,,,,,m,20,
30,8,338,3,3,7,['d'],['k'],N,Y,['space'],Y,,,,,,,m,20,
30,9,339,4,4,7,['k'],['k'],Y,N,None,Y,,,,,,,m,20,
30,10,340,10,10,7,['d'],['d'],Y,Y,['space'],Y,,,,,,,m,20,
31,0,341,7,7,7,['k'],['d'],N,N,None,Y,,,,,,,m,20,
31,1,342,5,5,7,['d'],['k'],N,N,None,Y,,,,,,,m,20,
31,2,343,2,2,7,['k'],['d'],N,Y,['space'],Y,,,,,,,m,20,
31,3,344,3,3,7,['d'],['k'],N,N,None,Y,,,,,,,m,20,
31,4,345,4,4,7,['k'],['d'],N,Y,['space'],Y,,,,,,,m,20,
31,5,346,4,4,7,['k'],['k'],Y,Y,['space'],Y,,,,,,,m,20,
31,6,347,3,3,7,['k'],['d'],N,N,None,Y,,,,,,,m,20,
31,7,348,7,7,7,['k'],['k'],Y,N,['space'],N,,,,,,,m,20,
31,8,349,5,5,7,['d'],['k'],N,N,None,Y,21,43,17,,,,m,20,
31,9,350,7,7,8,['k'],['k'],Y,,,,,,,,,,m,20,
31,10,351,9,9,8,['d'],['d'],Y,,,,,,,,,,m,20,
32,0,352,0,0,8,['k'],['k'],Y,N,None,Y,,,,,,,m,20,
32,1,353,0,0,8,['k'],['d'],N,N,None,Y,,,,,,,m,20,
32,2,354,3,3,8,['d'],['k'],N,N,None,Y,,,,,,,m,20,
32,3,355,0,0,8,['d'],['d'],Y,Y,['space'],Y,,,,,,,m,20,
32,4,356,6,6,8,['k'],['d'],N,N,None,Y,,,,,,,m,20,
32,5,357,7,7,8,['k'],['k'],Y,N,None,Y,,,,,,,m,20,
32,6,358,1,1,8,['d'],['d'],Y,N,None,Y,,,,,,,m,20,
32,7,359,6,6,8,['k'],['k'],Y,N,None,Y,,,,,,,m,20,
32,8,360,5,5,8,['d'],['k'],N,N,None,Y,,,,,,,m,20,
32,9,361,10,10,8,['k'],['k'],Y,Y,['space'],Y,,,,,,,m,20,
32,10,362,7,7,8,['d'],['k'],N,N,['space'],N,,,,,,,m,20,
33,0,363,10,10,8,['k'],['d'],N,Y,['space'],Y,,,,,,,m,20,
33,1,364,4,4,8,['k'],['k'],Y,N,None,Y,,,,,,,m,20,
33,2,365,7,7,8,['d'],['d'],Y,Y,None,N,,,,,,,m,20,
33,3,366,6,6,8,['d'],['d'],Y,Y,['space'],Y,,,,,,,m,20,
33,4,367,9,9,8,['k'],['d'],N,Y,['space'],Y,,,,,,,m,20,
33,5,368,5,5,8,['d'],['k'],N,Y,['space'],Y,,,,,,,m,20,
33,6,369,1,1,8,['k'],['k'],Y,N,None,Y,,,,,,,m,20,
33,7,370,3,3,8,['k'],['d'],N,Y,['space'],Y,,,,,,,m,20,
33,8,371,1,1,8,['d'],['k'],N,N,None,Y,,,,,,,m,20,
33,9,372,9,9,8,['k'],['d'],N,N,None,Y,,,,,,,m,20,
33,10,373,0,0,8,['k'],['k'],Y,N,None,Y,,,,,,,m,20,
34,0,374,7,7,8,['k'],['k'],Y,N,None,Y,,,,,,,m,20,
34,1,375,4,4,8,['k'],['k'],Y,N,None,Y,,,,,,,m,20,
34,2,376,1,1,8,['k'],['k'],Y,Y,['space'],Y,,,,,,,m,20,
34,3,377,5,5,8,['d'],['d'],Y,Y,None,N,,,,,,,m,20,
34,4,378,5,5,8,['d'],['d'],Y,N,None,Y,,,,,,,m,20,
34,5,379,8,8,8,['k'],['d'],N,Y,['space'],Y,,,,,,,m,20,
34,6,380,7,7,8,['d'],['d'],Y,Y,['space'],Y,,,,,,,m,20,
34,7,381,5,5,8,['d'],['d'],Y,N,None,Y,,,,,,,m,20,
34,8,382,6,6,8,['k'],['d'],N,N,['space'],N,,,,,,,m,20,
34,9,383,10,10,8,['d'],['k'],N,Y,['space'],Y,,,,,,,m,20,
34,10,384,0,0,8,['d'],['d'],Y,N,None,Y,,,,,,,m,20,
35,0,385,5,5,8,['k'],['k'],Y,N,None,Y,,,,,,,m,20,
35,1,386,1,1,8,['d'],['d'],Y,N,None,Y,,,,,,,m,20,
35,2,387,7,7,8,['k'],['d'],N,N,None,Y,,,,,,,m,20,
35,3,388,8,8,8,['d'],['d'],Y,Y,['space'],Y,,,,,,,m,20,
35,4,389,7,7,8,['k'],['k'],Y,Y,['space'],Y,,,,,,,m,20,
35,5,390,1,1,8,['d'],['d'],Y,N,None,Y,,,,,,,m,20,
35,6,391,8,8,8,['d'],['k'],N,N,None,Y,,,,,,,m,20,
35,7,392,0,0,8,['d'],['k'],N,N,None,Y,,,,,,,m,20,
35,8,393,9,9,8,['d'],['k'],N,N,None,Y,,,,,,,m,20,
35,9,394,10,10,8,['k'],['k'],Y,N,None,Y,,,,,,,m,20,
35,10,395,2,2,8,['k'],['k'],Y,N,None,Y,,,,,,,m,20,
36,0,396,0,0,8,['d'],['d'],Y,Y,None,N,,,,,,,m,20,
36,1,397,8,8,8,['k'],['k'],Y,Y,None,N,,,,,,,m,20,
36,2,398,3,3,8,['d'],['k'],N,N,None,Y,,,,,,,m,20,
36,3,399,9,9,8,['k'],['d'],N,Y,['space'],Y,30,42,18,,,,m,20,
36,4,400,5,5,9,['d'],['k'],N,,,,,,,,,,m,20,
36,5,401,2,2,9,['d'],['d'],Y,,,,,,,,,,m,20,
36,6,402,1,1,9,['k'],['k'],Y,N,None,Y,,,,,,,m,20,
36,7,403,9,9,9,['k'],['d'],N,N,None,Y,,,,,,,m,20,
36,8,404,5,5,9,['d'],['k'],N,N,None,Y,,,,,,,m,20,
36,9,405,8,8,9,['d'],['d'],Y,N,None,Y,,,,,,,m,20,
36,10,406,5,5,9,['k'],['k'],Y,N,None,Y,,,,,,,m,20,
37,0,407,8,8,9,['d'],['k'],N,Y,['space'],Y,,,,,,,m,20,
37,1,408,0,0,9,['d'],['k'],N,Y,['space'],Y,,,,,,,m,20,
37,2,409,6,6,9,['k'],['k'],Y,Y,['space'],Y,,,,,,,m,20,
37,3,410,2,2,9,['k'],['k'],Y,N,None,Y,,,,,,,m,20,
37,4,411,4,4,9,['k'],['d'],N,Y,['space'],Y,,,,,,,m,20,
37,5,412,8,8,9,['k'],['d'],N,Y,None,N,,,,,,,m,20,
37,6,413,10,10,9,['k'],['k'],Y,N,None,Y,,,,,,,m,20,
37,7,414,7,7,9,['d'],['k'],N,N,None,Y,,,,,,,m,20,
37,8,415,5,5,9,['k'],['k'],Y,Y,None,N,,,,,,,m,20,
37,9,416,0,0,9,['d'],['d'],Y,N,None,Y,,,,,,,m,20,
37,10,417,8,8,9,['k'],['d'],N,N,None,Y,,,,,,,m,20,
38,0,418,3,3,9,['k'],['d'],N,Y,['space'],Y,,,,,,,m,20,
38,1,419,7,7,9,['k'],['k'],Y,N,None,Y,,,,,,,m,20,
38,2,420,9,9,9,['d'],['d'],Y,Y,['space'],Y,,,,,,,m,20,
38,3,421,10,10,9,['d'],['k'],N,N,None,Y,,,,,,,m,20,
38,4,422,7,7,9,['d'],['k'],N,Y,['space'],Y,,,,,,,m,20,
38,5,423,2,2,9,['k'],['k'],Y,Y,['space'],Y,,,,,,,m,20,
38,6,424,3,3,9,['d'],['k'],N,N,None,Y,,,,,,,m,20,
38,7,425,5,5,9,['d'],['k'],N,N,None,Y,,,,,,,m,20,
38,8,426,8,8,9,['k'],['d'],N,N,None,Y,,,,,,,m,20,
38,9,427,0,0,9,['k'],['d'],N,N,None,Y,,,,,,,m,20,
38,10,428,6,6,9,['d'],['d'],Y,Y,['space'],Y,,,,,,,m,20,
39,0,429,3,3,9,['d'],['d'],Y,Y,['space'],Y,,,,,,,m,20,
39,1,430,6,6,9,['k'],['k'],Y,N,None,Y,,,,,,,m,20,
39,2,431,0,0,9,['d'],['d'],Y,Y,None,N,,,,,,,m,20,
39,3,432,9,9,9,['k'],['k'],Y,Y,['space'],Y,,,,,,,m,20,
39,4,433,10,10,9,['d'],['k'],N,Y,['space'],Y,,,,,,,m,20,
39,5,434,2,2,9,['k'],['d'],N,N,None,Y,,,,,,,m,20,
39,6,435,0,0,9,['d'],['d'],Y,Y,['space'],Y,,,,,,,m,20,
39,7,436,9,9,9,['k'],['d'],N,N,None,Y,,,,,,,m,20,
39,8,437,9,9,9,['d'],['d'],Y,Y,None,N,,,,,,,m,20,
39,9,438,3,3,9,['k'],['k'],Y,N,None,Y,,,,,,,m,20,
39,10,439,2,2,9,['k'],['d'],N,Y,['space'],Y,,,,,,,m,20,
40,0,440,8,8,9,['k'],['d'],N,Y,['space'],Y,,,,,,,m,20,
40,1,441,2,2,9,['d'],['k'],N,Y,['space'],Y,,,,,,,m,20,
40,2,442,1,1,9,['d'],['d'],Y,Y,['space'],Y,,,,,,,m,20,
40,3,443,4,4,9,['k'],['d'],N,N,None,Y,,,,,,,m,20,
40,4,444,6,6,9,['k'],['k'],Y,Y,['space'],Y,,,,,,,m,20,
40,5,445,5,5,9,['d'],['k'],N,N,None,Y,,,,,,,m,20,
40,6,446,6,6,9,['d'],['k'],N,Y,['space'],Y,,,,,,,m,20,
40,7,447,3,3,9,['k'],['d'],N,Y,['space'],Y,,,,,,,m,20,
40,8,448,4,4,9,['k'],['d'],N,Y,['space'],Y,,,,,,,m,20,
40,9,449,10,10,9,['k'],['d'],N,N,['space'],N,22,43,25,,,,m,20,
40,10,450,2,2,10,['k'],['d'],N,,,,,,,,,,m,20,
41,0,451,8,8,10,['d'],['k'],N,,,,,,,,,,m,20,
41,1,452,7,7,10,['k'],['k'],Y,Y,['space'],Y,,,,,,,m,20,
41,2,453,6,6,10,['d'],['k'],N,N,None,Y,,,,,,,m,20,
41,3,454,1,1,10,['k'],['k'],Y,N,None,Y,,,,,,,m,20,
41,4,455,10,10,10,['k'],['d'],N,Y,None,N,,,,,,,m,20,
41,5,456,10,10,10,['d'],['k'],N,N,None,Y,,,,,,,m,20,
41,6,457,1,1,10,['k'],['d'],N,Y,None,N,,,,,,,m,20,
41,7,458,10,10,10,['d'],['d'],Y,N,None,Y,,,,,,,m,20,
41,8,459,5,5,10,['k'],['k'],Y,N,None,Y,,,,,,,m,20,
41,9,460,4,4,10,['d'],['d'],Y,Y,['space'],Y,,,,,,,m,20,
41,10,461,8,8,10,['k'],['d'],N,Y,['space'],Y,,,,,,,m,20,
42,0,462,3,3,10,['k'],['k'],Y,N,None,Y,,,,,,,m,20,
42,1,463,6,6,10,['k'],['k'],Y,Y,['space'],Y,,,,,,,m,20,
42,2,464,1,1,10,['d'],['d'],Y,Y,['space'],Y,,,,,,,m,20,
42,3,465,2,2,10,['d'],['d'],Y,N,None,Y,,,,,,,m,20,
42,4,466,4,4,10,['k'],['k'],Y,N,None,Y,,,,,,,m,20,
42,5,467,8,8,10,['k'],['k'],Y,N,None,Y,,,,,,,m,20,
42,6,468,9,9,10,['k'],['k'],Y,Y,['space'],Y,,,,,,,m,20,
42,7,469,3,3,10,['k'],['k'],Y,N,['space'],N,,,,,,,m,20,
42,8,470,1,1,10,['k'],['k'],Y,Y,None,N,,,,,,,m,20,
42,9,471,0,0,10,['d'],['k'],N,Y,['space'],Y,,,,,,,m,20,
42,10,472,8,8,10,['k'],['k'],Y,N,None,Y,,,,,,,m,20,
43,0,473,3,3,10,['k'],['k'],Y,Y,None,N,,,,,,,m,20,
43,1,474,4,4,10,['d'],['d'],Y,N,None,Y,,,,,,,m,20,
43,2,475,1,1,10,['k'],['k'],Y,N,None,Y,,,,,,,m,20,
43,3,476,0,0,10,['k'],['k'],Y,N,None,Y,,,,,,,m,20,
43,4,477,0,0,10,['d'],['d'],Y,N,None,Y,,,,,,,m,20,
43,5,478,3,3,10,['k'],['k'],Y,Y,['space'],Y,,,,,,,m,20,
43,6,479,9,9,10,['k'],['k'],Y,N,None,Y,,,,,,,m,20,
43,7,480,3,3,10,['k'],['k'],Y,N,None,Y,,,,,,,m,20,
43,8,481,3,3,10,['k'],['k'],Y,N,None,Y,,,,,,,m,20,
43,9,482,1,1,10,['d'],['d'],Y,Y,['space'],Y,,,,,,,m,20,
43,10,483,10,10,10,['d'],['d'],Y,Y,['space'],Y,,,,,,,m,20,
44,0,484,7,7,10,['k'],['k'],Y,Y,['space'],Y,,,,,,,m,20,
44,1,485,0,0,10,['d'],['d'],Y,Y,['space'],Y,,,,,,,m,20,
44,2,486,8,8,10,['d'],['d'],Y,Y,['space'],Y,,,,,,,m,20,
44,3,487,9,9,10,['d'],['d'],Y,N,None,Y,,,,,,,m,20,
44,4,488,5,5,10,['d'],['d'],Y,N,None,Y,,,,,,,m,20,
44,5,489,7,7,10,['d'],['d'],Y,Y,['space'],Y,,,,,,,m,20,
44,6,490,3,3,10,['d'],['d'],Y,Y,['space'],Y,,,,,,,m,20,
44,7,491,3,3,10,['d'],['d'],Y,Y,['space'],Y,,,,,,,m,20,
44,8,492,10,10,10,['k'],['k'],Y,Y,['space'],Y,,,,,,,m,20,
44,9,493,3,3,10,['d'],['d'],Y,Y,['space'],Y,,,,,,,m,20,
44,10,494,1,1,10,['k'],['k'],Y,Y,['space'],Y,,,,,,,m,20,
45,0,495,6,6,10,['k'],['k'],Y,Y,['space'],Y,,,,,,,m,20,
45,1,496,4,4,10,['d'],['d'],Y,N,None,Y,,,,,,,m,20,
45,2,497,4,4,10,['d'],['d'],Y,N,None,Y,,,,,,,m,20,
45,3,498,7,7,10,['d'],['d'],Y,N,None,Y,,,,,,,m,20,
45,4,499,2,2,10,['d'],['d'],Y,Y,None,N,42,42,25,,,,m,20,
45,5,500,4,4,11,['k'],['k'],N,,,,,,,Y,Y,Y,m,20,
45,6,501,8,8,11,['d'],['k'],Y,,,,,,,,Y,Y,m,20,
45,7,502,4,4,11,['k'],['k'],N,Y,['space'],Y,,,,,Y,Y,m,20,
45,8,503,3,3,11,['d'],['d'],N,N,None,Y,,,,,Y,Y,m,20,
45,9,504,8,8,11,['k'],['d'],Y,Y,['space'],Y,,,,,Y,Y,m,20,
45,10,505,6,6,11,['d'],['d'],N,N,None,Y,,,,,Y,Y,m,20,
46,0,506,0,0,11,['d'],['k'],Y,N,None,Y,,,,,Y,Y,m,20,
46,1,507,4,4,11,['d'],['k'],Y,N,None,Y,,,,,Y,Y,m,20,
46,2,508,0,0,11,['d'],['k'],Y,Y,None,N,,,,,Y,Y,m,20,
46,3,509,5,5,11,['k'],['d'],Y,Y,['space'],Y,,,,,Y,Y,m,20,
46,4,510,10,10,11,['d'],['d'],N,N,None,Y,,,,,Y,Y,m,20,
46,5,511,2,2,11,['k'],['k'],N,N,None,Y,,,,,Y,Y,m,20,
46,6,512,1,1,11,['k'],['d'],Y,N,None,Y,,,,,Y,Y,m,20,
46,7,513,1,1,11,['k'],['d'],Y,Y,None,N,,,,,Y,Y,m,20,
46,8,514,8,8,11,['d'],['k'],Y,N,None,Y,,,,,Y,Y,m,20,
46,9,515,10,10,11,['k'],['d'],Y,N,None,Y,,,,,Y,Y,m,20,
46,10,516,6,6,11,['d'],['k'],Y,Y,['space'],Y,,,,,Y,Y,m,20,
47,0,517,6,6,11,['k'],['d'],Y,N,None,Y,,,,,Y,Y,m,20,
47,1,518,2,2,11,['k'],['d'],Y,N,None,Y,,,,,Y,Y,m,20,
47,2,519,7,7,11,['k'],['d'],Y,Y,None,N,,,,,Y,Y,m,20,
47,3,520,3,3,11,['d'],['k'],Y,N,None,Y,,,,,Y,Y,m,20,
47,4,521,4,4,11,['k'],['k'],N,N,None,Y,,,,,Y,Y,m,20,
47,5,522,2,2,11,['k'],['d'],Y,Y,['space'],Y,,,,,Y,Y,m,20,
47,6,523,2,2,11,['k'],['d'],Y,N,None,Y,,,,,Y,Y,m,20,
47,7,524,7,7,11,['d'],['k'],Y,N,None,Y,,,,,Y,Y,m,20,
47,8,525,1,1,11,['d'],['k'],Y,Y,['space'],Y,,,,,Y,Y,m,20,
47,9,526,5,5,11,['k'],['d'],Y,Y,['space'],Y,,,,,Y,Y,m,20,
47,10,527,9,9,11,['d'],['k'],Y,Y,['space'],Y,,,,,Y,Y,m,20,
48,0,528,0,0,11,['d'],['k'],Y,N,None,Y,,,,,Y,Y,m,20,
48,1,529,6,6,11,['k'],['d'],Y,Y,['space'],Y,,,,,Y,Y,m,20,
48,2,530,4,4,11,['d'],['k'],Y,Y,['space'],Y,,,,,Y,Y,m,20,
48,3,531,9,9,11,['k'],['d'],Y,N,None,Y,,,,,Y,Y,m,20,
48,4,532,7,7,11,['d'],['k'],Y,N,None,Y,,,,,Y,Y,m,20,
48,5,533,8,8,11,['k'],['d'],Y,Y,['space'],Y,,,,,Y,Y,m,20,
48,6,534,3,3,11,['d'],['k'],Y,Y,['space'],Y,,,,,Y,Y,m,20,
48,7,535,2,2,11,['k'],['d'],Y,Y,['space'],Y,,,,,Y,Y,m,20,
48,8,536,10,10,11,['d'],['k'],Y,Y,['space'],Y,,,,,Y,Y,m,20,
48,9,537,6,6,11,['d'],['k'],Y,N,None,Y,,,,,Y,Y,m,20,
48,10,538,10,10,11,['d'],['k'],Y,Y,['space'],Y,,,,,Y,Y,m,20,
49,0,539,7,7,11,['d'],['k'],Y,Y,['space'],Y,,,,,Y,Y,m,20,
49,1,540,4,4,11,['d'],['k'],Y,Y,['space'],Y,,,,,Y,Y,m,20,
49,2,541,8,8,11,['d'],['k'],Y,Y,['space'],Y,,,,,Y,Y,m,20,
49,3,542,0,0,11,['k'],['d'],Y,N,None,Y,,,,,Y,Y,m,20,
49,4,543,5,5,11,['k'],['d'],Y,Y,['space'],Y,,,,,Y,Y,m,20,
49,5,544,7,7,11,['d'],['k'],Y,N,None,Y,,,,,Y,Y,m,20,
49,6,545,0,0,11,['k'],['d'],Y,N,None,Y,,,,,Y,Y,m,20,
49,7,546,9,9,11,['d'],['k'],Y,Y,None,N,,,,,Y,Y,m,20,
49,8,547,4,4,11,['d'],['d'],N,Y,['space'],Y,,,,,Y,Y,m,20,
49,9,548,1,1,11,['k'],['d'],Y,Y,['space'],Y,,,,,Y,Y,m,20,
49,10,549,1,1,11,['k'],['d'],Y,N,None,Y,42,44,25,,Y,Y,m,20,
50,0,550,7,7,12,['k'],['d'],Y,,,,,,,,Y,Y,m,20,
50,1,551,7,7,12,['k'],['d'],Y,,,,,,,,Y,Y,m,20,
50,2,552,6,6,12,['k'],['d'],Y,N,None,Y,,,,,Y,Y,m,20,
50,3,553,7,7,12,['k'],['d'],Y,Y,['space'],Y,,,,,Y,Y,m,20,
50,4,554,10,10,12,['k'],['d'],Y,N,None,Y,,,,,Y,Y,m,20,
50,5,555,10,10,12,['k'],['d'],Y,Y,['space'],Y,,,,,Y,Y,m,20,
50,6,556,2,2,12,['d'],['k'],Y,N,None,Y,,,,,Y,Y,m,20,
50,7,557,4,4,12,['d'],['k'],Y,Y,['space'],Y,,,,,Y,Y,m,20,
50,8,558,2,2,12,['d'],['k'],Y,Y,['space'],Y,,,,,Y,Y,m,20,
50,9,559,9,9,12,['k'],['d'],Y,Y,['space'],Y,,,,,Y,Y,m,20,
50,10,560,2,2,12,['d'],['k'],Y,N,None,Y,,,,,Y,Y,m,20,
51,0,561,9,9,12,['d'],['k'],Y,Y,['space'],Y,,,,,Y,Y,m,20,
51,1,562,6,6,12,['d'],['k'],Y,Y,None,N,,,,,Y,Y,m,20,
51,2,563,4,4,12,['k'],['d'],Y,Y,None,N,,,,,Y,Y,m,20,
51,3,564,6,6,12,['k'],['d'],Y,Y,None,N,,,,,Y,Y,m,20,
51,4,565,1,1,12,['d'],['d'],N,Y,None,N,,,,,Y,Y,m,20,
51,5,566,0,0,12,['k'],['d'],Y,Y,['space'],Y,,,,,Y,Y,m,20,
51,6,567,5,5,12,['k'],['d'],Y,N,None,Y,,,,,Y,Y,m,20,
51,7,568,6,6,12,['k'],['d'],Y,N,None,Y,,,,,Y,Y,m,20,
51,8,569,10,10,12,['k'],['d'],Y,Y,['space'],Y,,,,,Y,Y,m,20,
51,9,570,10,10,12,['d'],['d'],N,N,None,Y,,,,,Y,Y,m,20,
51,10,571,1,1,12,['d'],['k'],Y,Y,None,N,,,,,Y,Y,m,20,
52,0,572,5,5,12,['k'],['d'],Y,Y,None,N,,,,,Y,Y,m,20,
52,1,573,9,9,12,['d'],['k'],Y,Y,None,N,,,,,Y,Y,m,20,
52,2,574,5,5,12,['d'],['k'],Y,N,None,Y,,,,,Y,Y,m,20,
52,3,575,4,4,12,['k'],['d'],Y,Y,['space'],Y,,,,,Y,Y,m,20,
52,4,576,5,5,12,['d'],['k'],Y,N,None,Y,,,,,Y,Y,m,20,
52,5,577,4,4,12,['d'],['k'],Y,Y,['space'],Y,,,,,Y,Y,m,20,
52,6,578,8,8,12,['k'],['d'],Y,Y,['space'],Y,,,,,Y,Y,m,20,
52,7,579,2,2,12,['k'],['d'],Y,N,None,Y,,,,,Y,Y,m,20,
52,8,580,0,0,12,['k'],['d'],Y,N,None,Y,,,,,Y,Y,m,20,
52,9,581,1,1,12,['k'],['d'],Y,Y,None,N,,,,,Y,Y,m,20,
52,10,582,9,9,12,['k'],['d'],Y,Y,['space'],Y,,,,,Y,Y,m,20,
53,0,583,2,2,12,['d'],['d'],N,N,None,Y,,,,,Y,Y,m,20,
53,1,584,9,9,12,['k'],['d'],Y,Y,None,N,,,,,Y,Y,m,20,
53,2,585,0,0,12,['d'],['k'],Y,N,['space'],N,,,,,Y,Y,m,20,
53,3,586,0,0,12,['d'],['k'],Y,Y,None,N,,,,,Y,Y,m,20,
53,4,587,10,10,12,['d'],['k'],Y,Y,['space'],Y,,,,,Y,Y,m,20,
53,5,588,0,0,12,['d'],['k'],Y,Y,['space'],Y,,,,,Y,Y,m,20,
53,6,589,9,9,12,['d'],['k'],Y,N,None,Y,,,,,Y,Y,m,20,
53,7,590,7,7,12,['d'],['k'],Y,N,None,Y,,,,,Y,Y,m,20,
53,8,591,6,6,12,['d'],['k'],Y,Y,['space'],Y,,,,,Y,Y,m,20,
53,9,592,9,9,12,['k'],['d'],Y,N,None,Y,,,,,Y,Y,m,20,
53,10,593,5,5,12,['k'],['d'],Y,N,None,Y,,,,,Y,Y,m,20,
54,0,594,3,3,12,['d'],['k'],Y,N,None,Y,,,,,Y,Y,m,20,
54,1,595,9,9,12,['d'],['k'],Y,N,None,Y,,,,,Y,Y,m,20,
54,2,596,3,3,12,['k'],['d'],Y,N,None,Y,,,,,Y,Y,m,20,
54,3,597,2,2,12,['k'],['d'],Y,N,None,Y,,,,,Y,Y,m,20,
54,4,598,6,6,12,['d'],['k'],Y,N,None,Y,,,,,Y,Y,m,20,
54,5,599,9,9,12,['k'],['d'],Y,N,None,Y,47,37,25,,Y,Y,m,20,
