.thisRepN,.thisTrialN,.thisN,.thisIndex,.thisTrial,Block Number,Key pressed,Category,Correct?,Int Match?,Int Response,Int Correct?,Line Accuracy,Interference Accuracy,Matching Interferences,New instruction shown?,Buttons switched?,Fast?,gender,age,
0,0,0,9,9,1,['d'],['d'],Y,,,,,,,,,,f,21,
0,1,1,8,8,1,['k'],['d'],N,,,,,,,,,,f,21,
0,2,2,4,4,1,['d'],['k'],N,N,None,Y,,,,,,,f,21,
0,3,3,1,1,1,['k'],['d'],N,Y,None,N,,,,,,,f,21,
0,4,4,7,7,1,['k'],['k'],Y,Y,['space'],Y,,,,,,,f,21,
0,5,5,8,8,1,['k'],['k'],Y,N,None,Y,,,,,,,f,21,
0,6,6,9,9,1,['k'],['k'],Y,N,None,Y,,,,,,,f,21,
0,7,7,7,7,1,['k'],['d'],N,Y,['space'],Y,,,,,,,f,21,
0,8,8,6,6,1,['k'],['d'],N,Y,None,N,,,,,,,f,21,
0,9,9,3,3,1,['k'],['k'],Y,Y,['space'],Y,,,,,,,f,21,
0,10,10,1,1,1,['k'],['k'],Y,Y,['space'],Y,,,,,,,f,21,
1,0,11,10,10,1,['d'],['d'],Y,N,None,Y,,,,,,,f,21,
1,1,12,9,9,1,['k'],['k'],Y,N,None,Y,,,,,,,f,21,
1,2,13,7,7,1,['d'],['d'],Y,N,None,Y,,,,,,,f,21,
1,3,14,10,10,1,['d'],['k'],N,Y,['space'],Y,,,,,,,f,21,
1,4,15,10,10,1,['d'],['k'],N,N,['space'],N,,,,,,,f,21,
1,5,16,9,9,1,['k'],['d'],N,Y,None,N,,,,,,,f,21,
1,6,17,3,3,1,['k'],['k'],Y,N,None,Y,,,,,,,f,21,
1,7,18,2,2,1,['d'],['k'],N,N,None,Y,,,,,,,f,21,
1,8,19,8,8,1,['d'],['d'],Y,Y,['space'],Y,,,,,,,f,21,
1,9,20,4,4,1,['k'],['d'],N,Y,['space'],Y,,,,,,,f,21,
1,10,21,7,7,1,['k'],['d'],N,N,None,Y,,,,,,,f,21,
2,0,22,2,2,1,['k'],['d'],N,Y,None,N,,,,,,,f,21,
2,1,23,3,3,1,['k'],['k'],Y,N,None,Y,,,,,,,f,21,
2,2,24,0,0,1,['k'],['k'],Y,Y,None,N,,,,,,,f,21,
2,3,25,5,5,1,['d'],['k'],N,N,None,Y,,,,,,,f,21,
2,4,26,10,10,1,['d'],['d'],Y,N,None,Y,,,,,,,f,21,
2,5,27,10,10,1,['k'],['k'],Y,N,None,Y,,,,,,,f,21,
2,6,28,1,1,1,['d'],['k'],N,N,None,Y,,,,,,,f,21,
2,7,29,3,3,1,['k'],['k'],Y,Y,['space'],Y,,,,,,,f,21,
2,8,30,7,7,1,['d'],['d'],Y,N,None,Y,,,,,,,f,21,
2,9,31,0,0,1,['k'],['k'],Y,Y,['space'],Y,,,,,,,f,21,
2,10,32,8,8,1,['k'],['d'],N,Y,['space'],Y,,,,,,,f,21,
3,0,33,5,5,1,['d'],['d'],Y,N,None,Y,,,,,,,f,21,
3,1,34,0,0,1,['d'],['d'],Y,N,None,Y,,,,,,,f,21,
3,2,35,4,4,1,['k'],['k'],Y,Y,None,N,,,,,,,f,21,
3,3,36,1,1,1,['d'],['d'],Y,N,None,Y,,,,,,,f,21,
3,4,37,0,0,1,['k'],['k'],Y,Y,['space'],Y,,,,,,,f,21,
3,5,38,7,7,1,['d'],['d'],Y,N,None,Y,,,,,,,f,21,
3,6,39,6,6,1,['k'],['k'],Y,N,None,Y,,,,,,,f,21,
3,7,40,1,1,1,['k'],['k'],Y,Y,None,N,,,,,,,f,21,
3,8,41,7,7,1,['d'],['d'],Y,N,None,Y,,,,,,,f,21,
3,9,42,7,7,1,['k'],['k'],Y,N,None,Y,,,,,,,f,21,
3,10,43,1,1,1,['d'],['d'],Y,Y,['space'],Y,,,,,,,f,21,
4,0,44,10,10,1,['d'],['d'],Y,N,None,Y,,,,,,,f,21,
4,1,45,0,0,1,['k'],['k'],Y,Y,None,N,,,,,,,f,21,
4,2,46,1,1,1,['d'],['d'],Y,N,None,Y,,,,,,,f,21,
4,3,47,10,10,1,['k'],['k'],Y,N,None,Y,,,,,,,f,21,
4,4,48,5,5,1,['k'],['k'],Y,N,None,Y,,,,,,,f,21,
4,5,49,1,1,1,['d'],['d'],Y,Y,['space'],Y,35,39,21,,,,f,21,
4,6,50,1,1,2,['d'],['d'],Y,,,,,,,,,,f,21,
4,7,51,3,3,2,['k'],['k'],Y,,,,,,,,,,f,21,
4,8,52,5,5,2,['k'],['k'],Y,N,None,Y,,,,,,,f,21,
4,9,53,5,5,2,['k'],['k'],Y,N,None,Y,,,,,,,f,21,
4,10,54,5,5,2,['d'],['d'],Y,N,None,Y,,,,,,,f,21,
5,0,55,10,10,2,['d'],['d'],Y,N,None,Y,,,,,,,f,21,
5,1,56,4,4,2,['k'],['k'],Y,Y,['space'],Y,,,,,,,f,21,
5,2,57,10,10,2,['d'],['d'],Y,Y,['space'],Y,,,,,,,f,21,
5,3,58,7,7,2,['k'],['k'],Y,Y,['space'],Y,,,,,,,f,21,
5,4,59,0,0,2,['d'],['d'],Y,Y,['space'],Y,,,,,,,f,21,
5,5,60,2,2,2,['k'],['k'],Y,N,None,Y,,,,,,,f,21,
5,6,61,7,7,2,['d'],['d'],Y,Y,None,N,,,,,,,f,21,
5,7,62,4,4,2,['k'],['k'],Y,Y,['space'],Y,,,,,,,f,21,
5,8,63,10,10,2,['k'],['k'],Y,Y,['space'],Y,,,,,,,f,21,
5,9,64,8,8,2,['k'],['k'],Y,Y,None,N,,,,,,,f,21,
5,10,65,1,1,2,['k'],['k'],Y,N,None,Y,,,,,,,f,21,
6,0,66,5,5,2,['k'],['k'],Y,N,None,Y,,,,,,,f,21,
6,1,67,10,10,2,['d'],['d'],Y,Y,['space'],Y,,,,,,,f,21,
6,2,68,3,3,2,['k'],['k'],Y,Y,['space'],Y,,,,,,,f,21,
6,3,69,5,5,2,['d'],['d'],Y,N,None,Y,,,,,,,f,21,
6,4,70,6,6,2,['k'],['k'],Y,Y,['space'],Y,,,,,,,f,21,
6,5,71,0,0,2,['d'],['d'],Y,Y,['space'],Y,,,,,,,f,21,
6,6,72,8,8,2,['k'],['k'],Y,Y,['space'],Y,,,,,,,f,21,
6,7,73,9,9,2,['d'],['d'],Y,N,None,Y,,,,,,,f,21,
6,8,74,6,6,2,['k'],['k'],Y,Y,['space'],Y,,,,,,,f,21,
6,9,75,10,10,2,['k'],['k'],Y,N,None,Y,,,,,,,f,21,
6,10,76,9,9,2,['k'],['k'],Y,N,None,Y,,,,,,,f,21,
7,0,77,1,1,2,['d'],['d'],Y,Y,['space'],Y,,,,,,,f,21,
7,1,78,4,4,2,['k'],['k'],Y,N,None,Y,,,,,,,f,21,
7,2,79,5,5,2,['k'],['k'],Y,N,None,Y,,,,,,,f,21,
7,3,80,5,5,2,['d'],['d'],Y,Y,['space'],Y,,,,,,,f,21,
7,4,81,7,7,2,['k'],['k'],Y,Y,['space'],Y,,,,,,,f,21,
7,5,82,2,2,2,['d'],['d'],Y,Y,['space'],Y,,,,,,,f,21,
7,6,83,4,4,2,['d'],['d'],Y,N,None,Y,,,,,,,f,21,
7,7,84,2,2,2,['k'],['k'],Y,Y,['space'],Y,,,,,,,f,21,
7,8,85,3,3,2,['k'],['k'],Y,N,None,Y,,,,,,,f,21,
7,9,86,2,2,2,['d'],['d'],Y,N,None,Y,,,,,,,f,21,
7,10,87,7,7,2,['d'],['d'],Y,N,None,Y,,,,,,,f,21,
8,0,88,8,8,2,['d'],['d'],Y,Y,['space'],Y,,,,,,,f,21,
8,1,89,1,1,2,['d'],['d'],Y,Y,['space'],Y,,,,,,,f,21,
8,2,90,4,4,2,['k'],['k'],Y,Y,['space'],Y,,,,,,,f,21,
8,3,91,0,0,2,['d'],['d'],Y,Y,['space'],Y,,,,,,,f,21,
8,4,92,5,5,2,['d'],['d'],Y,Y,['space'],Y,,,,,,,f,21,
8,5,93,9,9,2,['k'],['k'],Y,N,None,Y,,,,,,,f,21,
8,6,94,8,8,2,['k'],['k'],Y,Y,['space'],Y,,,,,,,f,21,
8,7,95,8,8,2,['k'],['k'],Y,N,None,Y,,,,,,,f,21,
8,8,96,6,6,2,['d'],['d'],Y,N,None,Y,,,,,,,f,21,
8,9,97,4,4,2,['d'],['d'],Y,N,None,Y,,,,,,,f,21,
8,10,98,7,7,2,['k'],['k'],Y,N,None,Y,,,,,,,f,21,
9,0,99,3,3,2,['d'],['d'],Y,N,None,Y,50,46,25,,,,f,21,
9,1,100,1,1,3,['d'],['d'],Y,,,,,,,,,,f,21,
9,2,101,5,5,3,['k'],['k'],Y,,,,,,,,,,f,21,
9,3,102,3,3,3,['d'],['d'],Y,N,None,Y,,,,,,,f,21,
9,4,103,4,4,3,['d'],['d'],Y,N,None,Y,,,,,,,f,21,
9,5,104,10,10,3,['d'],['d'],Y,N,None,Y,,,,,,,f,21,
9,6,105,6,6,3,['k'],['k'],Y,Y,['space'],Y,,,,,,,f,21,
9,7,106,0,0,3,['d'],['d'],Y,N,None,Y,,,,,,,f,21,
9,8,107,5,5,3,['d'],['d'],Y,N,None,Y,,,,,,,f,21,
9,9,108,8,8,3,['k'],['k'],Y,N,None,Y,,,,,,,f,21,
9,10,109,8,8,3,['d'],['d'],Y,Y,['space'],Y,,,,,,,f,21,
10,0,110,10,10,3,['k'],['k'],Y,N,None,Y,,,,,,,f,21,
10,1,111,8,8,3,['k'],['k'],Y,Y,['space'],Y,,,,,,,f,21,
10,2,112,8,8,3,['d'],['d'],Y,Y,['space'],Y,,,,,,,f,21,
10,3,113,6,6,3,['d'],['k'],N,Y,['space'],Y,,,,,,,f,21,
10,4,114,6,6,3,['k'],['k'],Y,Y,['space'],Y,,,,,,,f,21,
10,5,115,0,0,3,['k'],['k'],Y,Y,['space'],Y,,,,,,,f,21,
10,6,116,9,9,3,['k'],['k'],Y,Y,['space'],Y,,,,,,,f,21,
10,7,117,4,4,3,['d'],['d'],Y,Y,['space'],Y,,,,,,,f,21,
10,8,118,10,10,3,['d'],['d'],Y,Y,['space'],Y,,,,,,,f,21,
10,9,119,9,9,3,['d'],['d'],Y,Y,['space'],Y,,,,,,,f,21,
10,10,120,6,6,3,['k'],['k'],Y,N,None,Y,,,,,,,f,21,
11,0,121,0,0,3,['k'],['k'],Y,N,None,Y,,,,,,,f,21,
11,1,122,8,8,3,['k'],['k'],Y,Y,['space'],Y,,,,,,,f,21,
11,2,123,10,10,3,['d'],['d'],Y,Y,['space'],Y,,,,,,,f,21,
11,3,124,2,2,3,['d'],['d'],Y,N,None,Y,,,,,,,f,21,
11,4,125,3,3,3,['k'],['k'],Y,N,None,Y,,,,,,,f,21,
11,5,126,6,6,3,['d'],['d'],Y,Y,['space'],Y,,,,,,,f,21,
11,6,127,7,7,3,['d'],['d'],Y,Y,['space'],Y,,,,,,,f,21,
11,7,128,0,0,3,['d'],['d'],Y,Y,['space'],Y,,,,,,,f,21,
11,8,129,1,1,3,['k'],['k'],Y,N,None,Y,,,,,,,f,21,
11,9,130,0,0,3,['k'],['k'],Y,Y,['space'],Y,,,,,,,f,21,
11,10,131,0,0,3,['d'],['d'],Y,N,None,Y,,,,,,,f,21,
12,0,132,6,6,3,['k'],['k'],Y,N,None,Y,,,,,,,f,21,
12,1,133,2,2,3,['d'],['d'],Y,Y,['space'],Y,,,,,,,f,21,
12,2,134,3,3,3,['k'],['k'],Y,Y,['space'],Y,,,,,,,f,21,
12,3,135,10,10,3,['k'],['k'],Y,N,None,Y,,,,,,,f,21,
12,4,136,2,2,3,['d'],['d'],Y,N,None,Y,,,,,,,f,21,
12,5,137,1,1,3,['d'],['d'],Y,N,None,Y,,,,,,,f,21,
12,6,138,4,4,3,['d'],['d'],Y,Y,['space'],Y,,,,,,,f,21,
12,7,139,4,4,3,['d'],['d'],Y,Y,['space'],Y,,,,,,,f,21,
12,8,140,3,3,3,['k'],['k'],Y,N,None,Y,,,,,,,f,21,
12,9,141,0,0,3,['d'],['d'],Y,Y,None,N,,,,,,,f,21,
12,10,142,3,3,3,['d'],['d'],Y,N,None,Y,,,,,,,f,21,
13,0,143,7,7,3,['d'],['d'],Y,N,None,Y,,,,,,,f,21,
13,1,144,9,9,3,['d'],['d'],Y,N,None,Y,,,,,,,f,21,
13,2,145,9,9,3,['d'],['d'],Y,Y,['space'],Y,,,,,,,f,21,
13,3,146,0,0,3,['d'],['d'],Y,N,None,Y,,,,,,,f,21,
13,4,147,8,8,3,['k'],['k'],Y,Y,['space'],Y,,,,,,,f,21,
13,5,148,10,10,3,['k'],['k'],Y,N,None,Y,,,,,,,f,21,
13,6,149,0,0,3,['d'],['k'],N,N,None,Y,48,47,24,,,,f,21,
13,7,150,1,1,4,['k'],['k'],Y,,,,,,,,,,f,21,
13,8,151,1,1,4,['k'],['k'],Y,,,,,,,,,,f,21,
13,9,152,1,1,4,['d'],['k'],N,Y,None,N,,,,,,,f,21,
13,10,153,3,3,4,['k'],['k'],Y,Y,['space'],Y,,,,,,,f,21,
14,0,154,3,3,4,['k'],['k'],Y,Y,['space'],Y,,,,,,,f,21,
14,1,155,9,9,4,['k'],['k'],Y,N,None,Y,,,,,,,f,21,
14,2,156,9,9,4,['k'],['k'],Y,N,None,Y,,,,,,,f,21,
14,3,157,4,4,4,['d'],['d'],Y,N,None,Y,,,,,,,f,21,
14,4,158,0,0,4,['d'],['d'],Y,Y,['space'],Y,,,,,,,f,21,
14,5,159,0,0,4,['k'],['k'],Y,N,None,Y,,,,,,,f,21,
14,6,160,1,1,4,['d'],['d'],Y,Y,['space'],Y,,,,,,,f,21,
14,7,161,7,7,4,['k'],['k'],Y,Y,['space'],Y,,,,,,,f,21,
14,8,162,3,3,4,['k'],['k'],Y,N,None,Y,,,,,,,f,21,
14,9,163,8,8,4,['d'],['d'],Y,N,None,Y,,,,,,,f,21,
14,10,164,2,2,4,['k'],['k'],Y,Y,['space'],Y,,,,,,,f,21,
15,0,165,1,1,4,['d'],['d'],Y,Y,['space'],Y,,,,,,,f,21,
15,1,166,7,7,4,['k'],['k'],Y,Y,['space'],Y,,,,,,,f,21,
15,2,167,5,5,4,['k'],['k'],Y,N,None,Y,,,,,,,f,21,
15,3,168,4,4,4,['d'],['d'],Y,Y,['space'],Y,,,,,,,f,21,
15,4,169,6,6,4,['d'],['d'],Y,Y,['space'],Y,,,,,,,f,21,
15,5,170,9,9,4,['d'],['d'],Y,N,None,Y,,,,,,,f,21,
15,6,171,2,2,4,['k'],['d'],N,N,None,Y,,,,,,,f,21,
15,7,172,4,4,4,['d'],['d'],Y,Y,['space'],Y,,,,,,,f,21,
15,8,173,4,4,4,['d'],['d'],Y,N,None,Y,,,,,,,f,21,
15,9,174,0,0,4,['k'],['k'],Y,Y,None,N,,,,,,,f,21,
15,10,175,3,3,4,['k'],['k'],Y,N,None,Y,,,,,,,f,21,
16,0,176,10,10,4,['k'],['k'],Y,N,None,Y,,,,,,,f,21,
16,1,177,1,1,4,['k'],['k'],Y,N,None,Y,,,,,,,f,21,
16,2,178,9,9,4,['d'],['d'],Y,N,None,Y,,,,,,,f,21,
16,3,179,1,1,4,['d'],['d'],Y,Y,['space'],Y,,,,,,,f,21,
16,4,180,8,8,4,['k'],['k'],Y,Y,['space'],Y,,,,,,,f,21,
16,5,181,3,3,4,['d'],['d'],Y,N,None,Y,,,,,,,f,21,
16,6,182,3,3,4,['d'],['d'],Y,N,None,Y,,,,,,,f,21,
16,7,183,10,10,4,['d'],['d'],Y,Y,['space'],Y,,,,,,,f,21,
16,8,184,9,9,4,['d'],['d'],Y,Y,['space'],Y,,,,,,,f,21,
16,9,185,1,1,4,['k'],['k'],Y,Y,['space'],Y,,,,,,,f,21,
16,10,186,1,1,4,['d'],['d'],Y,Y,['space'],Y,,,,,,,f,21,
17,0,187,2,2,4,['k'],['k'],Y,Y,['space'],Y,,,,,,,f,21,
17,1,188,3,3,4,['k'],['k'],Y,N,None,Y,,,,,,,f,21,
17,2,189,5,5,4,['k'],['k'],Y,Y,['space'],Y,,,,,,,f,21,
17,3,190,4,4,4,['d'],['d'],Y,Y,['space'],Y,,,,,,,f,21,
17,4,191,2,2,4,['d'],['d'],Y,Y,['space'],Y,,,,,,,f,21,
17,5,192,6,6,4,['d'],['d'],Y,Y,['space'],Y,,,,,,,f,21,
17,6,193,3,3,4,['k'],['k'],Y,Y,['space'],Y,,,,,,,f,21,
17,7,194,9,9,4,['d'],['d'],Y,N,None,Y,,,,,,,f,21,
17,8,195,2,2,4,['k'],['k'],Y,N,None,Y,,,,,,,f,21,
17,9,196,9,9,4,['k'],['k'],Y,N,None,Y,,,,,,,f,21,
17,10,197,2,2,4,['d'],['d'],Y,N,None,Y,,,,,,,f,21,
18,0,198,0,0,4,['d'],['d'],Y,N,None,Y,,,,,,,f,21,
18,1,199,3,3,4,['d'],['d'],Y,N,None,Y,48,46,25,,,,f,21,
18,2,200,5,5,5,['d'],['d'],Y,,,,,,,,,,f,21,
18,3,201,0,0,5,['k'],['k'],Y,,,,,,,,,,f,21,
18,4,202,5,5,5,['d'],['d'],Y,Y,['space'],Y,,,,,,,f,21,
18,5,203,8,8,5,['k'],['k'],Y,N,None,Y,,,,,,,f,21,
18,6,204,3,3,5,['k'],['k'],Y,N,None,Y,,,,,,,f,21,
18,7,205,2,2,5,['d'],['d'],Y,N,None,Y,,,,,,,f,21,
18,8,206,9,9,5,['k'],['k'],Y,Y,['space'],Y,,,,,,,f,21,
18,9,207,0,0,5,['k'],['d'],N,Y,None,N,,,,,,,f,21,
18,10,208,10,10,5,['d'],['k'],N,N,None,Y,,,,,,,f,21,
19,0,209,9,9,5,['d'],['d'],Y,Y,['space'],Y,,,,,,,f,21,
19,1,210,0,0,5,['k'],['k'],Y,N,None,Y,,,,,,,f,21,
19,2,211,4,4,5,['d'],['d'],Y,N,None,Y,,,,,,,f,21,
19,3,212,7,7,5,['d'],['d'],Y,N,None,Y,,,,,,,f,21,
19,4,213,5,5,5,['d'],['d'],Y,N,None,Y,,,,,,,f,21,
19,5,214,2,2,5,['d'],['d'],Y,N,None,Y,,,,,,,f,21,
19,6,215,8,8,5,['k'],['k'],Y,N,None,Y,,,,,,,f,21,
19,7,216,7,7,5,['d'],['d'],Y,N,None,Y,,,,,,,f,21,
19,8,217,0,0,5,['k'],['k'],Y,Y,['space'],Y,,,,,,,f,21,
19,9,218,4,4,5,['d'],['k'],N,Y,['space'],Y,,,,,,,f,21,
19,10,219,0,0,5,['d'],['d'],Y,N,None,Y,,,,,,,f,21,
20,0,220,5,5,5,['k'],['k'],Y,Y,['space'],Y,,,,,,,f,21,
20,1,221,9,9,5,['k'],['k'],Y,N,None,Y,,,,,,,f,21,
20,2,222,9,9,5,['d'],['d'],Y,N,None,Y,,,,,,,f,21,
20,3,223,8,8,5,['d'],['d'],Y,Y,['space'],Y,,,,,,,f,21,
20,4,224,6,6,5,['k'],['k'],Y,N,None,Y,,,,,,,f,21,
20,5,225,7,7,5,['d'],['d'],Y,N,None,Y,,,,,,,f,21,
20,6,226,0,0,5,['d'],['d'],Y,Y,None,N,,,,,,,f,21,
20,7,227,3,3,5,['d'],['d'],Y,N,None,Y,,,,,,,f,21,
20,8,228,6,6,5,['d'],['d'],Y,Y,['space'],Y,,,,,,,f,21,
20,9,229,10,10,5,['k'],['k'],Y,N,None,Y,,,,,,,f,21,
20,10,230,1,1,5,['k'],['k'],Y,N,None,Y,,,,,,,f,21,
21,0,231,3,3,5,['d'],['d'],Y,Y,['space'],Y,,,,,,,f,21,
21,1,232,1,1,5,['d'],['d'],Y,Y,['space'],Y,,,,,,,f,21,
21,2,233,3,3,5,['k'],['k'],Y,N,None,Y,,,,,,,f,21,
21,3,234,2,2,5,['k'],['k'],Y,Y,['space'],Y,,,,,,,f,21,
21,4,235,9,9,5,['k'],['k'],Y,N,None,Y,,,,,,,f,21,
21,5,236,6,6,5,['k'],['k'],Y,N,None,Y,,,,,,,f,21,
21,6,237,9,9,5,['k'],['k'],Y,N,None,Y,,,,,,,f,21,
21,7,238,2,2,5,['k'],['k'],Y,N,None,Y,,,,,,,f,21,
21,8,239,4,4,5,['d'],['d'],Y,N,None,Y,,,,,,,f,21,
21,9,240,4,4,5,['d'],['d'],Y,Y,['space'],Y,,,,,,,f,21,
21,10,241,2,2,5,['k'],['k'],Y,Y,['space'],Y,,,,,,,f,21,
22,0,242,5,5,5,['d'],['d'],Y,N,None,Y,,,,,,,f,21,
22,1,243,8,8,5,['k'],['k'],Y,N,None,Y,,,,,,,f,21,
22,2,244,7,7,5,['d'],['d'],Y,Y,['space'],Y,,,,,,,f,21,
22,3,245,1,1,5,['d'],['d'],Y,Y,None,N,,,,,,,f,21,
22,4,246,7,7,5,['d'],['d'],Y,Y,None,N,,,,,,,f,21,
22,5,247,2,2,5,['k'],['k'],Y,N,None,Y,,,,,,,f,21,
22,6,248,7,7,5,['k'],['k'],Y,N,None,Y,,,,,,,f,21,
22,7,249,7,7,5,['d'],['d'],Y,N,None,Y,47,44,18,,,,f,21,
22,8,250,4,4,6,['d'],['d'],Y,,,,,,,,,,f,21,
22,9,251,7,7,6,['k'],['k'],Y,,,,,,,,,,f,21,
22,10,252,2,2,6,['k'],['k'],Y,Y,['space'],Y,,,,,,,f,21,
23,0,253,9,9,6,['d'],['d'],Y,N,None,Y,,,,,,,f,21,
23,1,254,4,4,6,['k'],['k'],Y,Y,['space'],Y,,,,,,,f,21,
23,2,255,4,4,6,['k'],['k'],Y,N,None,Y,,,,,,,f,21,
23,3,256,0,0,6,['k'],['k'],Y,N,None,Y,,,,,,,f,21,
23,4,257,0,0,6,['k'],['k'],Y,Y,['space'],Y,,,,,,,f,21,
23,5,258,8,8,6,['k'],['k'],Y,Y,None,N,,,,,,,f,21,
23,6,259,5,5,6,['d'],['d'],Y,N,None,Y,,,,,,,f,21,
23,7,260,9,9,6,['k'],['k'],Y,Y,['space'],Y,,,,,,,f,21,
23,8,261,9,9,6,['d'],['d'],Y,N,None,Y,,,,,,,f,21,
23,9,262,0,0,6,['d'],['d'],Y,Y,['space'],Y,,,,,,,f,21,
23,10,263,8,8,6,['d'],['d'],Y,N,None,Y,,,,,,,f,21,
24,0,264,2,2,6,['d'],['d'],Y,N,None,Y,,,,,,,f,21,
24,1,265,9,9,6,['k'],['k'],Y,Y,['space'],Y,,,,,,,f,21,
24,2,266,3,3,6,['d'],['d'],Y,Y,['space'],Y,,,,,,,f,21,
24,3,267,4,4,6,['d'],['d'],Y,N,None,Y,,,,,,,f,21,
24,4,268,10,10,6,['d'],['d'],Y,Y,None,N,,,,,,,f,21,
24,5,269,1,1,6,['k'],['k'],Y,Y,['space'],Y,,,,,,,f,21,
24,6,270,4,4,6,['d'],['d'],Y,N,None,Y,,,,,,,f,21,
24,7,271,7,7,6,['k'],['k'],Y,Y,['space'],Y,,,,,,,f,21,
24,8,272,1,1,6,['d'],['d'],Y,Y,['space'],Y,,,,,,,f,21,
24,9,273,8,8,6,['d'],['d'],Y,N,None,Y,,,,,,,f,21,
24,10,274,3,3,6,['k'],['k'],Y,N,None,Y,,,,,,,f,21,
25,0,275,4,4,6,['d'],['d'],Y,N,None,Y,,,,,,,f,21,
25,1,276,2,2,6,['d'],['d'],Y,Y,['space'],Y,,,,,,,f,21,
25,2,277,1,1,6,['d'],['d'],Y,Y,['space'],Y,,,,,,,f,21,
25,3,278,10,10,6,['d'],['d'],Y,N,None,Y,,,,,,,f,21,
25,4,279,2,2,6,['k'],['k'],Y,N,None,Y,,,,,,,f,21,
25,5,280,1,1,6,['d'],['d'],Y,Y,['space'],Y,,,,,,,f,21,
25,6,281,4,4,6,['k'],['k'],Y,N,None,Y,,,,,,,f,21,
25,7,282,1,1,6,['d'],['d'],Y,N,None,Y,,,,,,,f,21,
25,8,283,7,7,6,['k'],['k'],Y,N,None,Y,,,,,,,f,21,
25,9,284,7,7,6,['k'],['k'],Y,N,None,Y,,,,,,,f,21,
25,10,285,9,9,6,['k'],['k'],Y,Y,['space'],Y,,,,,,,f,21,
26,0,286,2,2,6,['k'],['k'],Y,Y,['space'],Y,,,,,,,f,21,
26,1,287,10,10,6,['d'],['d'],Y,Y,['space'],Y,,,,,,,f,21,
26,2,288,8,8,6,['k'],['k'],Y,Y,['space'],Y,,,,,,,f,21,
26,3,289,10,10,6,['d'],['d'],Y,N,None,Y,,,,,,,f,21,
26,4,290,0,0,6,['d'],['d'],Y,Y,['space'],Y,,,,,,,f,21,
26,5,291,0,0,6,['d'],['d'],Y,N,None,Y,,,,,,,f,21,
26,6,292,6,6,6,['k'],['k'],Y,Y,['space'],Y,,,,,,,f,21,
26,7,293,8,8,6,['k'],['k'],Y,N,None,Y,,,,,,,f,21,
26,8,294,7,7,6,['k'],['k'],Y,N,None,Y,,,,,,,f,21,
26,9,295,7,7,6,['d'],['d'],Y,N,None,Y,,,,,,,f,21,
26,10,296,3,3,6,['k'],['k'],Y,Y,['space'],Y,,,,,,,f,21,
27,0,297,4,4,6,['k'],['k'],Y,Y,['space'],Y,,,,,,,f,21,
27,1,298,9,9,6,['d'],['d'],Y,N,None,Y,,,,,,,f,21,
27,2,299,9,9,6,['k'],['k'],Y,N,None,Y,50,46,23,,,,f,21,
27,3,300,7,7,7,['k'],['k'],Y,,,,,,,,,,f,21,
27,4,301,9,9,7,['d'],['d'],Y,,,,,,,,,,f,21,
27,5,302,0,0,7,['k'],['k'],Y,Y,['space'],Y,,,,,,,f,21,
27,6,303,2,2,7,['d'],['d'],Y,Y,['space'],Y,,,,,,,f,21,
27,7,304,5,5,7,['k'],['k'],Y,N,None,Y,,,,,,,f,21,
27,8,305,10,10,7,['k'],['k'],Y,Y,['space'],Y,,,,,,,f,21,
27,9,306,10,10,7,['d'],['d'],Y,N,None,Y,,,,,,,f,21,
27,10,307,2,2,7,['k'],['k'],Y,N,None,Y,,,,,,,f,21,
28,0,308,4,4,7,['k'],['k'],Y,N,None,Y,,,,,,,f,21,
28,1,309,8,8,7,['d'],['d'],Y,N,None,Y,,,,,,,f,21,
28,2,310,10,10,7,['d'],['d'],Y,Y,['space'],Y,,,,,,,f,21,
28,3,311,5,5,7,['d'],['d'],Y,N,None,Y,,,,,,,f,21,
28,4,312,6,6,7,['d'],['d'],Y,Y,['space'],Y,,,,,,,f,21,
28,5,313,3,3,7,['d'],['d'],Y,Y,['space'],Y,,,,,,,f,21,
28,6,314,7,7,7,['d'],['d'],Y,Y,['space'],Y,,,,,,,f,21,
28,7,315,0,0,7,['d'],['d'],Y,N,None,Y,,,,,,,f,21,
28,8,316,8,8,7,['k'],['k'],Y,Y,['space'],Y,,,,,,,f,21,
28,9,317,0,0,7,['k'],['k'],Y,N,None,Y,,,,,,,f,21,
28,10,318,10,10,7,['d'],['d'],Y,N,None,Y,,,,,,,f,21,
29,0,319,4,4,7,['k'],['k'],Y,Y,['space'],Y,,,,,,,f,21,
29,1,320,10,10,7,['d'],['d'],Y,N,None,Y,,,,,,,f,21,
29,2,321,1,1,7,['d'],['d'],Y,N,None,Y,,,,,,,f,21,
29,3,322,8,8,7,['d'],['d'],Y,Y,['space'],Y,,,,,,,f,21,
29,4,323,3,3,7,['k'],['k'],Y,Y,['space'],Y,,,,,,,f,21,
29,5,324,5,5,7,['k'],['k'],Y,N,None,Y,,,,,,,f,21,
29,6,325,3,3,7,['d'],['d'],Y,Y,['space'],Y,,,,,,,f,21,
29,7,326,6,6,7,['d'],['d'],Y,N,None,Y,,,,,,,f,21,
29,8,327,0,0,7,['k'],['k'],Y,N,None,Y,,,,,,,f,21,
29,9,328,4,4,7,['k'],['k'],Y,N,None,Y,,,,,,,f,21,
29,10,329,4,4,7,['d'],['d'],Y,Y,['space'],Y,,,,,,,f,21,
30,0,330,0,0,7,['k'],['k'],Y,N,None,Y,,,,,,,f,21,
30,1,331,2,2,7,['d'],['d'],Y,Y,['space'],Y,,,,,,,f,21,
30,2,332,5,5,7,['d'],['d'],Y,N,None,Y,,,,,,,f,21,
30,3,333,5,5,7,['d'],['d'],Y,N,None,Y,,,,,,,f,21,
30,4,334,6,6,7,['d'],['d'],Y,N,None,Y,,,,,,,f,21,
30,5,335,10,10,7,['d'],['d'],Y,Y,['space'],Y,,,,,,,f,21,
30,6,336,8,8,7,['d'],['d'],Y,Y,['space'],Y,,,,,,,f,21,
30,7,337,6,6,7,['d'],['d'],Y,N,None,Y,,,,,,,f,21,
30,8,338,2,2,7,['d'],['d'],Y,N,None,Y,,,,,,,f,21,
30,9,339,10,10,7,['k'],['k'],Y,N,None,Y,,,,,,,f,21,
30,10,340,0,0,7,['d'],['d'],Y,N,None,Y,,,,,,,f,21,
31,0,341,2,2,7,['k'],['k'],Y,Y,['space'],Y,,,,,,,f,21,
31,1,342,3,3,7,['d'],['d'],Y,Y,['space'],Y,,,,,,,f,21,
31,2,343,7,7,7,['k'],['k'],Y,N,None,Y,,,,,,,f,21,
31,3,344,1,1,7,['k'],['k'],Y,N,None,Y,,,,,,,f,21,
31,4,345,3,3,7,['d'],['d'],Y,N,None,Y,,,,,,,f,21,
31,5,346,9,9,7,['k'],['k'],Y,Y,['space'],Y,,,,,,,f,21,
31,6,347,10,10,7,['k'],['k'],Y,Y,['space'],Y,,,,,,,f,21,
31,7,348,9,9,7,['k'],['k'],Y,Y,['space'],Y,,,,,,,f,21,
31,8,349,2,2,7,['k'],['k'],Y,Y,['space'],Y,50,48,22,,,,f,21,
31,9,350,8,8,8,['k'],['k'],Y,,,,,,,,,,f,21,
31,10,351,0,0,8,['k'],['k'],Y,,,,,,,,,,f,21,
32,0,352,2,2,8,['d'],['d'],Y,Y,['space'],Y,,,,,,,f,21,
32,1,353,10,10,8,['d'],['d'],Y,N,None,Y,,,,,,,f,21,
32,2,354,8,8,8,['d'],['k'],N,Y,['space'],Y,,,,,,,f,21,
32,3,355,9,9,8,['d'],['d'],Y,N,None,Y,,,,,,,f,21,
32,4,356,5,5,8,['d'],['d'],Y,N,None,Y,,,,,,,f,21,
32,5,357,7,7,8,['d'],['d'],Y,Y,['space'],Y,,,,,,,f,21,
32,6,358,6,6,8,['d'],['d'],Y,Y,['space'],Y,,,,,,,f,21,
32,7,359,6,6,8,['d'],['d'],Y,Y,['space'],Y,,,,,,,f,21,
32,8,360,4,4,8,['k'],['k'],Y,Y,['space'],Y,,,,,,,f,21,
32,9,361,4,4,8,['d'],['d'],Y,N,None,Y,,,,,,,f,21,
32,10,362,6,6,8,['d'],['d'],Y,N,None,Y,,,,,,,f,21,
33,0,363,2,2,8,['k'],['k'],Y,Y,['space'],Y,,,,,,,f,21,
33,1,364,4,4,8,['k'],['k'],Y,Y,['space'],Y,,,,,,,f,21,
33,2,365,8,8,8,['d'],['d'],Y,Y,['space'],Y,,,,,,,f,21,
33,3,366,6,6,8,['d'],['d'],Y,Y,['space'],Y,,,,,,,f,21,
33,4,367,7,7,8,['k'],['k'],Y,Y,['space'],Y,,,,,,,f,21,
33,5,368,6,6,8,['d'],['d'],Y,N,None,Y,,,,,,,f,21,
33,6,369,8,8,8,['k'],['k'],Y,N,None,Y,,,,,,,f,21,
33,7,370,5,5,8,['d'],['d'],Y,Y,['space'],Y,,,,,,,f,21,
33,8,371,9,9,8,['k'],['k'],Y,Y,['space'],Y,,,,,,,f,21,
33,9,372,5,5,8,['k'],['k'],Y,Y,['space'],Y,,,,,,,f,21,
33,10,373,5,5,8,['d'],['d'],Y,N,None,Y,,,,,,,f,21,
34,0,374,4,4,8,['k'],['k'],Y,N,None,Y,,,,,,,f,21,
34,1,375,5,5,8,['k'],['k'],Y,N,None,Y,,,,,,,f,21,
34,2,376,9,9,8,['d'],['d'],Y,N,None,Y,,,,,,,f,21,
34,3,377,5,5,8,['d'],['d'],Y,Y,['space'],Y,,,,,,,f,21,
34,4,378,4,4,8,['d'],['d'],Y,N,None,Y,,,,,,,f,21,
34,5,379,2,2,8,['k'],['k'],Y,N,None,Y,,,,,,,f,21,
34,6,380,0,0,8,['d'],['d'],Y,Y,['space'],Y,,,,,,,f,21,
34,7,381,10,10,8,['d'],['d'],Y,N,None,Y,,,,,,,f,21,
34,8,382,10,10,8,['d'],['d'],Y,N,None,Y,,,,,,,f,21,
34,9,383,3,3,8,['d'],['d'],Y,Y,['d'],N,,,,,,,f,21,
34,10,384,0,0,8,['d'],['d'],Y,Y,['space'],Y,,,,,,,f,21,
35,0,385,4,4,8,['k'],['k'],Y,N,None,Y,,,,,,,f,21,
35,1,386,2,2,8,['k'],['k'],Y,N,None,Y,,,,,,,f,21,
35,2,387,10,10,8,['d'],['d'],Y,N,None,Y,,,,,,,f,21,
35,3,388,3,3,8,['k'],['k'],Y,N,None,Y,,,,,,,f,21,
35,4,389,5,5,8,['d'],['d'],Y,Y,['space'],Y,,,,,,,f,21,
35,5,390,1,1,8,['k'],['k'],Y,Y,['space'],Y,,,,,,,f,21,
35,6,391,1,1,8,['k'],['k'],Y,N,None,Y,,,,,,,f,21,
35,7,392,4,4,8,['d'],['d'],Y,Y,['space'],Y,,,,,,,f,21,
35,8,393,7,7,8,['d'],['d'],Y,N,None,Y,,,,,,,f,21,
35,9,394,7,7,8,['k'],['k'],Y,N,None,Y,,,,,,,f,21,
35,10,395,5,5,8,['k'],['k'],Y,Y,['space'],Y,,,,,,,f,21,
36,0,396,10,10,8,['k'],['k'],Y,N,None,Y,,,,,,,f,21,
36,1,397,2,2,8,['k'],['k'],Y,Y,['space'],Y,,,,,,,f,21,
36,2,398,8,8,8,['k'],['k'],Y,N,None,Y,,,,,,,f,21,
36,3,399,7,7,8,['d'],['d'],Y,N,None,Y,49,47,23,,,,f,21,
36,4,400,1,1,9,['k'],['k'],Y,,,,,,,,,,f,21,
36,5,401,8,8,9,['d'],['d'],Y,,,,,,,,,,f,21,
36,6,402,6,6,9,['d'],['d'],Y,Y,['space'],Y,,,,,,,f,21,
36,7,403,1,1,9,['d'],['d'],Y,N,None,Y,,,,,,,f,21,
36,8,404,6,6,9,['d'],['d'],Y,Y,['space'],Y,,,,,,,f,21,
36,9,405,2,2,9,['k'],['d'],N,Y,['space'],Y,,,,,,,f,21,
36,10,406,7,7,9,['d'],['d'],Y,Y,['space'],Y,,,,,,,f,21,
37,0,407,3,3,9,['d'],['d'],Y,Y,['space'],Y,,,,,,,f,21,
37,1,408,3,3,9,['d'],['d'],Y,Y,['space'],Y,,,,,,,f,21,
37,2,409,2,2,9,['k'],['k'],Y,Y,['space'],Y,,,,,,,f,21,
37,3,410,9,9,9,['d'],['k'],N,N,None,Y,,,,,,,f,21,
37,4,411,1,1,9,['k'],['k'],Y,Y,['space'],Y,,,,,,,f,21,
37,5,412,9,9,9,['d'],['d'],Y,Y,['space'],Y,,,,,,,f,21,
37,6,413,7,7,9,['k'],['k'],Y,Y,['space'],Y,,,,,,,f,21,
37,7,414,5,5,9,['k'],['k'],Y,N,None,Y,,,,,,,f,21,
37,8,415,2,2,9,['d'],['d'],Y,N,None,Y,,,,,,,f,21,
37,9,416,9,9,9,['k'],['k'],Y,Y,['space'],Y,,,,,,,f,21,
37,10,417,8,8,9,['k'],['k'],Y,N,None,Y,,,,,,,f,21,
38,0,418,4,4,9,['d'],['d'],Y,N,None,Y,,,,,,,f,21,
38,1,419,6,6,9,['d'],['d'],Y,Y,['space'],Y,,,,,,,f,21,
38,2,420,3,3,9,['k'],['k'],Y,N,None,Y,,,,,,,f,21,
38,3,421,5,5,9,['d'],['d'],Y,N,None,Y,,,,,,,f,21,
38,4,422,4,4,9,['d'],['d'],Y,N,None,Y,,,,,,,f,21,
38,5,423,0,0,9,['k'],['k'],Y,N,None,Y,,,,,,,f,21,
38,6,424,0,0,9,['d'],['k'],N,N,None,Y,,,,,,,f,21,
38,7,425,7,7,9,['k'],['k'],Y,N,None,Y,,,,,,,f,21,
38,8,426,4,4,9,['d'],['d'],Y,N,None,Y,,,,,,,f,21,
38,9,427,7,7,9,['d'],['d'],Y,N,None,Y,,,,,,,f,21,
38,10,428,0,0,9,['k'],['k'],Y,N,None,Y,,,,,,,f,21,
39,0,429,9,9,9,['d'],['d'],Y,Y,['space'],Y,,,,,,,f,21,
39,1,430,0,0,9,['k'],['k'],Y,Y,None,N,,,,,,,f,21,
39,2,431,1,1,9,['d'],['d'],Y,N,None,Y,,,,,,,f,21,
39,3,432,7,7,9,['d'],['d'],Y,Y,['space'],Y,,,,,,,f,21,
39,4,433,7,7,9,['d'],['d'],Y,N,None,Y,,,,,,,f,21,
39,5,434,4,4,9,['d'],['d'],Y,Y,['space'],Y,,,,,,,f,21,
39,6,435,2,2,9,['d'],['d'],Y,N,None,Y,,,,,,,f,21,
39,7,436,8,8,9,['k'],['k'],Y,Y,['space'],Y,,,,,,,f,21,
39,8,437,7,7,9,['k'],['k'],Y,N,None,Y,,,,,,,f,21,
39,9,438,8,8,9,['d'],['d'],Y,N,None,Y,,,,,,,f,21,
39,10,439,10,10,9,['k'],['k'],Y,Y,None,N,,,,,,,f,21,
40,0,440,3,3,9,['k'],['k'],Y,N,None,Y,,,,,,,f,21,
40,1,441,3,3,9,['k'],['k'],Y,N,None,Y,,,,,,,f,21,
40,2,442,6,6,9,['k'],['k'],Y,Y,['space'],Y,,,,,,,f,21,
40,3,443,5,5,9,['k'],['k'],Y,Y,['space'],Y,,,,,,,f,21,
40,4,444,1,1,9,['k'],['k'],Y,N,None,Y,,,,,,,f,21,
40,5,445,8,8,9,['d'],['k'],N,N,None,Y,,,,,,,f,21,
40,6,446,10,10,9,['k'],['k'],Y,N,None,Y,,,,,,,f,21,
40,7,447,8,8,9,['k'],['k'],Y,Y,None,N,,,,,,,f,21,
40,8,448,5,5,9,['k'],['k'],Y,Y,None,N,,,,,,,f,21,
40,9,449,2,2,9,['k'],['k'],Y,Y,None,N,46,43,23,,,,f,21,
40,10,450,8,8,10,['d'],['d'],Y,,,,,,,,,,f,21,
41,0,451,5,5,10,['d'],['d'],Y,,,,,,,,,,f,21,
41,1,452,2,2,10,['d'],['d'],Y,Y,['space'],Y,,,,,,,f,21,
41,2,453,6,6,10,['k'],['k'],Y,N,None,Y,,,,,,,f,21,
41,3,454,9,9,10,['d'],['d'],Y,N,None,Y,,,,,,,f,21,
41,4,455,7,7,10,['k'],['k'],Y,Y,['space'],Y,,,,,,,f,21,
41,5,456,10,10,10,['d'],['d'],Y,Y,['space'],Y,,,,,,,f,21,
41,6,457,10,10,10,['d'],['d'],Y,Y,['space'],Y,,,,,,,f,21,
41,7,458,1,1,10,['k'],['k'],Y,Y,['space'],Y,,,,,,,f,21,
41,8,459,6,6,10,['k'],['k'],Y,N,None,Y,,,,,,,f,21,
41,9,460,0,0,10,['d'],['d'],Y,N,None,Y,,,,,,,f,21,
41,10,461,7,7,10,['k'],['k'],Y,N,None,Y,,,,,,,f,21,
42,0,462,8,8,10,['k'],['k'],Y,Y,['space'],Y,,,,,,,f,21,
42,1,463,1,1,10,['d'],['d'],Y,Y,['space'],Y,,,,,,,f,21,
42,2,464,5,5,10,['k'],['k'],Y,Y,['space'],Y,,,,,,,f,21,
42,3,465,2,2,10,['d'],['d'],Y,Y,['space'],Y,,,,,,,f,21,
42,4,466,1,1,10,['d'],['d'],Y,Y,['space'],Y,,,,,,,f,21,
42,5,467,2,2,10,['k'],['k'],Y,N,None,Y,,,,,,,f,21,
42,6,468,6,6,10,['d'],['d'],Y,N,None,Y,,,,,,,f,21,
42,7,469,7,7,10,['k'],['k'],Y,Y,['space'],Y,,,,,,,f,21,
42,8,470,6,6,10,['k'],['k'],Y,Y,['space'],Y,,,,,,,f,21,
42,9,471,6,6,10,['d'],['d'],Y,N,None,Y,,,,,,,f,21,
42,10,472,9,9,10,['d'],['d'],Y,N,None,Y,,,,,,,f,21,
43,0,473,1,1,10,['k'],['k'],Y,Y,['space'],Y,,,,,,,f,21,
43,1,474,5,5,10,['d'],['d'],Y,N,None,Y,,,,,,,f,21,
43,2,475,5,5,10,['d'],['d'],Y,Y,['space'],Y,,,,,,,f,21,
43,3,476,2,2,10,['d'],['d'],Y,N,None,Y,,,,,,,f,21,
43,4,477,9,9,10,['k'],['k'],Y,Y,['space'],Y,,,,,,,f,21,
43,5,478,9,9,10,['d'],['d'],Y,N,None,Y,,,,,,,f,21,
43,6,479,5,5,10,['k'],['k'],Y,N,None,Y,,,,,,,f,21,
43,7,480,1,1,10,['d'],['d'],Y,Y,['space'],Y,,,,,,,f,21,
43,8,481,0,0,10,['k'],['k'],Y,Y,None,N,,,,,,,f,21,
43,9,482,5,5,10,['k'],['k'],Y,Y,None,N,,,,,,,f,21,
43,10,483,8,8,10,['k'],['k'],Y,Y,['space'],Y,,,,,,,f,21,
44,0,484,3,3,10,['d'],['d'],Y,Y,['space'],Y,,,,,,,f,21,
44,1,485,1,1,10,['d'],['d'],Y,N,None,Y,,,,,,,f,21,
44,2,486,6,6,10,['d'],['d'],Y,Y,['space'],Y,,,,,,,f,21,
44,3,487,6,6,10,['k'],['k'],Y,Y,['space'],Y,,,,,,,f,21,
44,4,488,6,6,10,['k'],['k'],Y,N,None,Y,,,,,,,f,21,
44,5,489,6,6,10,['k'],['k'],Y,N,None,Y,,,,,,,f,21,
44,6,490,1,1,10,['d'],['d'],Y,N,None,Y,,,,,,,f,21,
44,7,491,9,9,10,['k'],['k'],Y,N,None,Y,,,,,,,f,21,
44,8,492,9,9,10,['k'],['k'],Y,N,None,Y,,,,,,,f,21,
44,9,493,4,4,10,['d'],['d'],Y,Y,['space'],Y,,,,,,,f,21,
44,10,494,9,9,10,['d'],['d'],Y,N,None,Y,,,,,,,f,21,
45,0,495,8,8,10,['d'],['d'],Y,Y,['space'],Y,,,,,,,f,21,
45,1,496,4,4,10,['d'],['d'],Y,N,None,Y,,,,,,,f,21,
45,2,497,6,6,10,['k'],['k'],Y,Y,['space'],Y,,,,,,,f,21,
45,3,498,2,2,10,['d'],['d'],Y,N,None,Y,,,,,,,f,21,
45,4,499,6,6,10,['k'],['k'],Y,N,None,Y,50,46,25,,,,f,21,
45,5,500,6,6,11,['k'],['k'],N,,,,,,,Y,Y,Y,f,21,
45,6,501,5,5,11,['k'],['k'],N,,,,,,,,Y,Y,f,21,
45,7,502,9,9,11,['k'],['k'],N,Y,['space'],Y,,,,,Y,Y,f,21,
45,8,503,3,3,11,['k'],['d'],Y,N,['space'],N,,,,,Y,Y,f,21,
45,9,504,6,6,11,['k'],['d'],Y,N,None,Y,,,,,Y,Y,f,21,
45,10,505,10,10,11,['k'],['d'],Y,Y,['space'],Y,,,,,Y,Y,f,21,
46,0,506,9,9,11,['k'],['d'],Y,N,None,Y,,,,,Y,Y,f,21,
46,1,507,4,4,11,['d'],['k'],Y,N,None,Y,,,,,Y,Y,f,21,
46,2,508,1,1,11,['d'],['k'],Y,N,None,Y,,,,,Y,Y,f,21,
46,3,509,1,1,11,['k'],['d'],Y,Y,['space'],Y,,,,,Y,Y,f,21,
46,4,510,8,8,11,None,,Timed out,N,None,Y,,,,,Y,Y,f,21,
46,5,511,1,1,11,['k'],['k'],N,Y,None,N,,,,,Y,Y,f,21,
46,6,512,8,8,11,['d'],['k'],Y,Y,['space'],Y,,,,,Y,Y,f,21,
46,7,513,3,3,11,['k'],['d'],Y,N,None,Y,,,,,Y,Y,f,21,
46,8,514,4,4,11,['d'],['k'],Y,N,None,Y,,,,,Y,Y,f,21,
46,9,515,6,6,11,['k'],['d'],Y,Y,['space'],Y,,,,,Y,Y,f,21,
46,10,516,5,5,11,['d'],['k'],Y,N,None,Y,,,,,Y,Y,f,21,
47,0,517,6,6,11,['d'],['k'],Y,N,None,Y,,,,,Y,Y,f,21,
47,1,518,0,0,11,['k'],['d'],Y,N,None,Y,,,,,Y,Y,f,21,
47,2,519,1,1,11,['d'],['k'],Y,Y,['space'],Y,,,,,Y,Y,f,21,
47,3,520,5,5,11,['k'],['d'],Y,Y,['space'],Y,,,,,Y,Y,f,21,
47,4,521,6,6,11,['d'],['k'],Y,N,None,Y,,,,,Y,Y,f,21,
47,5,522,5,5,11,['k'],['d'],Y,Y,['space'],Y,,,,,Y,Y,f,21,
47,6,523,10,10,11,['k'],['d'],Y,Y,['space'],Y,,,,,Y,Y,f,21,
47,7,524,10,10,11,['d'],['k'],Y,Y,['space'],Y,,,,,Y,Y,f,21,
47,8,525,9,9,11,['d'],['k'],Y,N,None,Y,,,,,Y,Y,f,21,
47,9,526,8,8,11,['d'],['k'],Y,N,None,Y,,,,,Y,Y,f,21,
47,10,527,4,4,11,['d'],['k'],Y,N,None,Y,,,,,Y,Y,f,21,
48,0,528,3,3,11,['d'],['k'],Y,N,None,Y,,,,,Y,Y,f,21,
48,1,529,4,4,11,['d'],['k'],Y,N,None,Y,,,,,Y,Y,f,21,
48,2,530,2,2,11,['d'],['k'],Y,Y,['space'],Y,,,,,Y,Y,f,21,
48,3,531,7,7,11,['k'],['d'],Y,Y,['space'],Y,,,,,Y,Y,f,21,
48,4,532,3,3,11,['k'],['d'],Y,N,None,Y,,,,,Y,Y,f,21,
48,5,533,0,0,11,['d'],['k'],Y,Y,['space'],Y,,,,,Y,Y,f,21,
48,6,534,3,3,11,['d'],['k'],Y,N,None,Y,,,,,Y,Y,f,21,
48,7,535,4,4,11,['k'],['d'],Y,Y,['space'],Y,,,,,Y,Y,f,21,
48,8,536,8,8,11,['d'],['k'],Y,Y,['space'],Y,,,,,Y,Y,f,21,
48,9,537,6,6,11,['k'],['d'],Y,N,None,Y,,,,,Y,Y,f,21,
48,10,538,10,10,11,['d'],['k'],Y,Y,['space'],Y,,,,,Y,Y,f,21,
49,0,539,6,6,11,['d'],['k'],Y,N,None,Y,,,,,Y,Y,f,21,
49,1,540,5,5,11,['d'],['k'],Y,Y,['space'],Y,,,,,Y,Y,f,21,
49,2,541,5,5,11,['k'],['d'],Y,Y,['space'],Y,,,,,Y,Y,f,21,
49,3,542,9,9,11,['k'],['d'],Y,N,None,Y,,,,,Y,Y,f,21,
49,4,543,1,1,11,['k'],['d'],Y,N,None,Y,,,,,Y,Y,f,21,
49,5,544,10,10,11,['d'],['k'],Y,Y,None,N,,,,,Y,Y,f,21,
49,6,545,3,3,11,['d'],['k'],Y,Y,['space'],Y,,,,,Y,Y,f,21,
49,7,546,10,10,11,['d'],['k'],Y,N,None,Y,,,,,Y,Y,f,21,
49,8,547,2,2,11,['d'],['k'],Y,Y,['space'],Y,,,,,Y,Y,f,21,
49,9,548,5,5,11,['d'],['k'],Y,Y,['space'],Y,,,,,Y,Y,f,21,
49,10,549,10,10,11,['k'],['d'],Y,Y,['space'],Y,45,45,24,,Y,Y,f,21,
50,0,550,6,6,12,['d'],['k'],Y,,,,,,,,Y,Y,f,21,
50,1,551,0,0,12,['d'],['k'],Y,,,,,,,,Y,Y,f,21,
50,2,552,3,3,12,['k'],['d'],Y,Y,['space'],Y,,,,,Y,Y,f,21,
50,3,553,10,10,12,['k'],['d'],Y,Y,['space'],Y,,,,,Y,Y,f,21,
50,4,554,2,2,12,['d'],['k'],Y,N,None,Y,,,,,Y,Y,f,21,
50,5,555,2,2,12,['k'],['d'],Y,Y,['space'],Y,,,,,Y,Y,f,21,
50,6,556,2,2,12,['d'],['k'],Y,Y,['space'],Y,,,,,Y,Y,f,21,
50,7,557,3,3,12,['d'],['k'],Y,N,None,Y,,,,,Y,Y,f,21,
50,8,558,9,9,12,['d'],['k'],Y,N,None,Y,,,,,Y,Y,f,21,
50,9,559,6,6,12,['k'],['d'],Y,N,None,Y,,,,,Y,Y,f,21,
50,10,560,5,5,12,['k'],['d'],Y,N,None,Y,,,,,Y,Y,f,21,
51,0,561,6,6,12,['k'],['d'],Y,N,None,Y,,,,,Y,Y,f,21,
51,1,562,7,7,12,['k'],['d'],Y,Y,['space'],Y,,,,,Y,Y,f,21,
51,2,563,10,10,12,['d'],['k'],Y,Y,['space'],Y,,,,,Y,Y,f,21,
51,3,564,8,8,12,['k'],['d'],Y,N,None,Y,,,,,Y,Y,f,21,
51,4,565,8,8,12,['d'],['k'],Y,Y,['space'],Y,,,,,Y,Y,f,21,
51,5,566,10,10,12,['d'],['k'],Y,Y,['space'],Y,,,,,Y,Y,f,21,
51,6,567,5,5,12,['d'],['k'],Y,Y,['space'],Y,,,,,Y,Y,f,21,
51,7,568,7,7,12,['d'],['k'],Y,N,['space'],N,,,,,Y,Y,f,21,
51,8,569,0,0,12,['k'],['d'],Y,Y,['space'],Y,,,,,Y,Y,f,21,
51,9,570,3,3,12,['d'],['d'],N,Y,['space'],Y,,,,,Y,Y,f,21,
51,10,571,0,0,12,['k'],['d'],Y,Y,['space'],Y,,,,,Y,Y,f,21,
52,0,572,6,6,12,['k'],['d'],Y,N,None,Y,,,,,Y,Y,f,21,
52,1,573,9,9,12,['d'],['k'],Y,Y,['space'],Y,,,,,Y,Y,f,21,
52,2,574,4,4,12,['d'],['k'],Y,N,None,Y,,,,,Y,Y,f,21,
52,3,575,8,8,12,None,,Timed out,N,None,Y,,,,,Y,Y,f,21,
52,4,576,7,7,12,['d'],['k'],Y,Y,['space'],Y,,,,,Y,Y,f,21,
52,5,577,4,4,12,['d'],['k'],Y,Y,['space'],Y,,,,,Y,Y,f,21,
52,6,578,3,3,12,['k'],['d'],Y,Y,None,N,,,,,Y,Y,f,21,
52,7,579,3,3,12,['k'],['d'],Y,Y,['space'],Y,,,,,Y,Y,f,21,
52,8,580,5,5,12,['d'],['k'],Y,Y,['space'],Y,,,,,Y,Y,f,21,
52,9,581,10,10,12,['k'],['d'],Y,Y,['space'],Y,,,,,Y,Y,f,21,
52,10,582,6,6,12,['d'],['k'],Y,N,None,Y,,,,,Y,Y,f,21,
53,0,583,7,7,12,['d'],['k'],Y,Y,['space'],Y,,,,,Y,Y,f,21,
53,1,584,0,0,12,['d'],['k'],Y,Y,['space'],Y,,,,,Y,Y,f,21,
53,2,585,2,2,12,['k'],['d'],Y,Y,['space'],Y,,,,,Y,Y,f,21,
53,3,586,0,0,12,['k'],['d'],Y,N,None,Y,,,,,Y,Y,f,21,
53,4,587,3,3,12,['k'],['d'],Y,N,None,Y,,,,,Y,Y,f,21,
53,5,588,6,6,12,['d'],['k'],Y,N,None,Y,,,,,Y,Y,f,21,
53,6,589,8,8,12,['d'],['k'],Y,Y,['space'],Y,,,,,Y,Y,f,21,
53,7,590,2,2,12,['k'],['d'],Y,Y,['space'],Y,,,,,Y,Y,f,21,
53,8,591,3,3,12,['d'],['k'],Y,Y,['space'],Y,,,,,Y,Y,f,21,
53,9,592,1,1,12,['d'],['k'],Y,N,None,Y,,,,,Y,Y,f,21,
53,10,593,10,10,12,['d'],['k'],Y,N,None,Y,,,,,Y,Y,f,21,
54,0,594,8,8,12,['k'],['d'],Y,N,None,Y,,,,,Y,Y,f,21,
54,1,595,7,7,12,['k'],['d'],Y,N,None,Y,,,,,Y,Y,f,21,
54,2,596,2,2,12,['k'],['d'],Y,N,None,Y,,,,,Y,Y,f,21,
54,3,597,5,5,12,['k'],['d'],Y,N,None,Y,,,,,Y,Y,f,21,
54,4,598,4,4,12,['k'],['d'],Y,N,None,Y,,,,,Y,Y,f,21,
54,5,599,0,0,12,['d'],['k'],Y,N,None,Y,48,46,25,,Y,Y,f,21,
