.thisRepN,.thisTrialN,.thisN,.thisIndex,.thisTrial,Block Number,Key pressed,Category,Correct?,Int Match?,Int Response,Int Correct?,Line Accuracy,Interference Accuracy,Matching Interferences,New instruction shown?,Buttons switched?,Fast?,gender,age,
0,0,0,8,8,1,['k'],['d'],N,,,,,,,,,,F,20,
0,1,1,4,4,1,['d'],['k'],N,,,,,,,,,,F,20,
0,2,2,6,6,1,['k'],['d'],N,N,None,Y,,,,,,,F,20,
0,3,3,1,1,1,['k'],['k'],Y,N,None,Y,,,,,,,F,20,
0,4,4,5,5,1,['k'],['k'],Y,N,None,Y,,,,,,,F,20,
0,5,5,6,6,1,['d'],['k'],N,Y,None,N,,,,,,,F,20,
0,6,6,2,2,1,['d'],['k'],N,Y,['space'],Y,,,,,,,F,20,
0,7,7,10,10,1,['k'],['d'],N,Y,['space'],Y,,,,,,,F,20,
0,8,8,8,8,1,['k'],['d'],N,N,None,Y,,,,,,,F,20,
0,9,9,7,7,1,['k'],['d'],N,Y,None,N,,,,,,,F,20,
0,10,10,9,9,1,['k'],['d'],N,N,None,Y,,,,,,,F,20,
1,0,11,1,1,1,['k'],['k'],Y,N,None,Y,,,,,,,F,20,
1,1,12,1,1,1,['k'],['k'],Y,N,['space'],N,,,,,,,F,20,
1,2,13,6,6,1,['k'],['k'],Y,Y,['space'],Y,,,,,,,F,20,
1,3,14,4,4,1,['k'],['d'],N,Y,None,N,,,,,,,F,20,
1,4,15,9,9,1,['k'],['k'],Y,N,None,Y,,,,,,,F,20,
1,5,16,4,4,1,['d'],['d'],Y,Y,['space'],Y,,,,,,,F,20,
1,6,17,4,4,1,['k'],['d'],N,N,None,Y,,,,,,,F,20,
1,7,18,3,3,1,['d'],['k'],N,Y,['space'],Y,,,,,,,F,20,
1,8,19,0,0,1,['k'],['d'],N,N,None,Y,,,,,,,F,20,
1,9,20,4,4,1,['k'],['k'],Y,Y,['space'],Y,,,,,,,F,20,
1,10,21,2,2,1,['d'],['d'],Y,Y,['space'],Y,,,,,,,F,20,
2,0,22,0,0,1,['k'],['k'],Y,Y,['space'],Y,,,,,,,F,20,
2,1,23,8,8,1,['k'],['k'],Y,Y,['space'],Y,,,,,,,F,20,
2,2,24,0,0,1,['k'],['k'],Y,N,['space'],N,,,,,,,F,20,
2,3,25,3,3,1,['k'],['k'],Y,N,None,Y,,,,,,,F,20,
2,4,26,8,8,1,['k'],['d'],N,Y,['space'],Y,,,,,,,F,20,
2,5,27,5,5,1,['k'],['k'],Y,N,None,Y,,,,,,,F,20,
2,6,28,0,0,1,['d'],['d'],Y,N,None,Y,,,,,,,F,20,
2,7,29,8,8,1,['d'],['d'],Y,N,['space'],N,,,,,,,F,20,
2,8,30,5,5,1,['k'],['k'],Y,N,None,Y,,,,,,,F,20,
2,9,31,3,3,1,['d'],['d'],Y,N,['space'],N,,,,,,,F,20,
2,10,32,1,1,1,['d'],['d'],Y,Y,['space'],Y,,,,,,,F,20,
3,0,33,5,5,1,['d'],['d'],Y,N,None,Y,,,,,,,F,20,
3,1,34,6,6,1,['k'],['k'],Y,Y,['space'],Y,,,,,,,F,20,
3,2,35,3,3,1,['d'],['d'],Y,Y,['space'],Y,,,,,,,F,20,
3,3,36,4,4,1,['k'],['d'],N,N,None,Y,,,,,,,F,20,
3,4,37,7,7,1,['k'],['k'],Y,N,None,Y,,,,,,,F,20,
3,5,38,5,5,1,['d'],['d'],Y,Y,None,N,,,,,,,F,20,
3,6,39,2,2,1,['k'],['k'],Y,N,['space'],N,,,,,,,F,20,
3,7,40,3,3,1,['d'],['d'],Y,N,None,Y,,,,,,,F,20,
3,8,41,2,2,1,['k'],['k'],Y,N,None,Y,,,,,,,F,20,
3,9,42,6,6,1,['k'],['k'],Y,N,None,Y,,,,,,,F,20,
3,10,43,2,2,1,['d'],['d'],Y,Y,None,N,,,,,,,F,20,
4,0,44,2,2,1,['d'],['d'],Y,N,None,Y,,,,,,,F,20,
4,1,45,0,0,1,['k'],['k'],Y,Y,None,N,,,,,,,F,20,
4,2,46,6,6,1,['d'],['d'],Y,N,None,Y,,,,,,,F,20,
4,3,47,0,0,1,['k'],['k'],Y,Y,None,N,,,,,,,F,20,
4,4,48,10,10,1,['d'],['d'],Y,N,None,Y,,,,,,,F,20,
4,5,49,5,5,1,['k'],['k'],Y,N,None,Y,35,36,20,,,,F,20,
4,6,50,1,1,2,['d'],['k'],N,,,,,,,,,,F,20,
4,7,51,1,1,2,['d'],['d'],Y,,,,,,,,,,F,20,
4,8,52,5,5,2,['d'],['d'],Y,Y,['space'],Y,,,,,,,F,20,
4,9,53,9,9,2,['k'],['d'],N,N,None,Y,,,,,,,F,20,
4,10,54,10,10,2,['k'],['k'],Y,Y,['space'],Y,,,,,,,F,20,
5,0,55,10,10,2,['k'],['k'],Y,Y,['space'],Y,,,,,,,F,20,
5,1,56,8,8,2,['d'],['d'],Y,Y,None,N,,,,,,,F,20,
5,2,57,1,1,2,['k'],['k'],Y,N,['space'],N,,,,,,,F,20,
5,3,58,1,1,2,['k'],['k'],Y,N,['d'],N,,,,,,,F,20,
5,4,59,0,0,2,['k'],['k'],Y,N,None,Y,,,,,,,F,20,
5,5,60,2,2,2,['k'],['d'],N,N,None,Y,,,,,,,F,20,
5,6,61,5,5,2,['d'],['d'],Y,N,None,Y,,,,,,,F,20,
5,7,62,5,5,2,['k'],['k'],Y,Y,['space'],Y,,,,,,,F,20,
5,8,63,8,8,2,['k'],['k'],Y,Y,['space'],Y,,,,,,,F,20,
5,9,64,2,2,2,['k'],['k'],Y,Y,['space'],Y,,,,,,,F,20,
5,10,65,1,1,2,['d'],['d'],Y,N,['d'],N,,,,,,,F,20,
6,0,66,7,7,2,['d'],['d'],Y,Y,['space'],Y,,,,,,,F,20,
6,1,67,1,1,2,['k'],['k'],Y,Y,None,N,,,,,,,F,20,
6,2,68,2,2,2,['k'],['k'],Y,Y,['space'],Y,,,,,,,F,20,
6,3,69,8,8,2,['d'],['d'],Y,Y,['space'],Y,,,,,,,F,20,
6,4,70,8,8,2,['d'],['d'],Y,N,None,Y,,,,,,,F,20,
6,5,71,9,9,2,['k'],['k'],Y,N,None,Y,,,,,,,F,20,
6,6,72,5,5,2,['d'],['k'],N,N,None,Y,,,,,,,F,20,
6,7,73,5,5,2,['k'],['k'],Y,N,None,Y,,,,,,,F,20,
6,8,74,8,8,2,['d'],['d'],Y,Y,None,N,,,,,,,F,20,
6,9,75,2,2,2,['k'],['k'],Y,N,None,Y,,,,,,,F,20,
6,10,76,9,9,2,['d'],['d'],Y,Y,None,N,,,,,,,F,20,
7,0,77,3,3,2,['k'],['k'],Y,Y,['space'],Y,,,,,,,F,20,
7,1,78,4,4,2,['k'],['k'],Y,Y,['space'],Y,,,,,,,F,20,
7,2,79,3,3,2,['d'],['d'],Y,Y,['space'],Y,,,,,,,F,20,
7,3,80,0,0,2,['k'],['k'],Y,Y,['space'],Y,,,,,,,F,20,
7,4,81,9,9,2,['d'],['d'],Y,Y,['space'],Y,,,,,,,F,20,
7,5,82,0,0,2,['d'],['d'],Y,Y,['space'],Y,,,,,,,F,20,
7,6,83,1,1,2,['k'],['k'],Y,N,None,Y,,,,,,,F,20,
7,7,84,7,7,2,['d'],['d'],Y,Y,['space'],Y,,,,,,,F,20,
7,8,85,5,5,2,['k'],['k'],Y,Y,['space'],Y,,,,,,,F,20,
7,9,86,7,7,2,['d'],['k'],N,N,None,Y,,,,,,,F,20,
7,10,87,9,9,2,['k'],['k'],Y,N,None,Y,,,,,,,F,20,
8,0,88,0,0,2,['d'],['d'],Y,N,None,Y,,,,,,,F,20,
8,1,89,9,9,2,['d'],['d'],Y,N,None,Y,,,,,,,F,20,
8,2,90,9,9,2,['d'],['k'],N,N,None,Y,,,,,,,F,20,
8,3,91,1,1,2,['k'],['k'],Y,Y,['space'],Y,,,,,,,F,20,
8,4,92,6,6,2,['d'],['d'],Y,Y,['space'],Y,,,,,,,F,20,
8,5,93,1,1,2,['d'],['d'],Y,Y,['space'],Y,,,,,,,F,20,
8,6,94,0,0,2,['d'],['d'],Y,Y,['space'],Y,,,,,,,F,20,
8,7,95,4,4,2,['k'],['k'],Y,N,None,Y,,,,,,,F,20,
8,8,96,5,5,2,['k'],['k'],Y,N,None,Y,,,,,,,F,20,
8,9,97,1,1,2,['d'],['d'],Y,N,None,Y,,,,,,,F,20,
8,10,98,10,10,2,['k'],['k'],Y,N,None,Y,,,,,,,F,20,
9,0,99,7,7,2,['d'],['d'],Y,N,None,Y,44,41,25,,,,F,20,
9,1,100,7,7,3,['d'],['d'],Y,,,,,,,,,,F,20,
9,2,101,7,7,3,['k'],['d'],N,,,,,,,,,,F,20,
9,3,102,6,6,3,['k'],['k'],Y,N,None,Y,,,,,,,F,20,
9,4,103,4,4,3,['d'],['d'],Y,Y,['space'],Y,,,,,,,F,20,
9,5,104,3,3,3,['k'],['k'],Y,N,None,Y,,,,,,,F,20,
9,6,105,4,4,3,['k'],['k'],Y,N,None,Y,,,,,,,F,20,
9,7,106,1,1,3,['d'],['d'],Y,Y,['space'],Y,,,,,,,F,20,
9,8,107,7,7,3,['k'],['k'],Y,N,['space'],N,,,,,,,F,20,
9,9,108,0,0,3,['k'],['k'],Y,N,None,Y,,,,,,,F,20,
9,10,109,6,6,3,['d'],['d'],Y,Y,['d'],N,,,,,,,F,20,
10,0,110,0,0,3,['d'],['d'],Y,Y,None,N,,,,,,,F,20,
10,1,111,2,2,3,['d'],['k'],N,N,None,Y,,,,,,,F,20,
10,2,112,7,7,3,['d'],['d'],Y,Y,['space'],Y,,,,,,,F,20,
10,3,113,3,3,3,['d'],['d'],Y,Y,None,N,,,,,,,F,20,
10,4,114,0,0,3,['k'],['d'],N,Y,['space'],Y,,,,,,,F,20,
10,5,115,9,9,3,['d'],['d'],Y,Y,None,N,,,,,,,F,20,
10,6,116,8,8,3,['k'],['k'],Y,N,None,Y,,,,,,,F,20,
10,7,117,3,3,3,['d'],['d'],Y,Y,None,N,,,,,,,F,20,
10,8,118,2,2,3,['k'],['k'],Y,Y,['space'],Y,,,,,,,F,20,
10,9,119,7,7,3,['k'],['k'],Y,N,None,Y,,,,,,,F,20,
10,10,120,3,3,3,['d'],['d'],Y,N,None,Y,,,,,,,F,20,
11,0,121,3,3,3,['d'],['d'],Y,Y,None,N,,,,,,,F,20,
11,1,122,10,10,3,['k'],['k'],Y,N,None,Y,,,,,,,F,20,
11,2,123,1,1,3,['k'],['k'],Y,Y,['space'],Y,,,,,,,F,20,
11,3,124,1,1,3,['k'],['k'],Y,Y,['space'],Y,,,,,,,F,20,
11,4,125,2,2,3,['k'],['k'],Y,Y,['space'],Y,,,,,,,F,20,
11,5,126,6,6,3,['k'],['k'],Y,N,None,Y,,,,,,,F,20,
11,6,127,2,2,3,['d'],['k'],N,Y,['space'],Y,,,,,,,F,20,
11,7,128,9,9,3,['k'],['k'],Y,N,None,Y,,,,,,,F,20,
11,8,129,3,3,3,['d'],['d'],Y,Y,['space'],Y,,,,,,,F,20,
11,9,130,1,1,3,['k'],['k'],Y,N,None,Y,,,,,,,F,20,
11,10,131,8,8,3,['d'],['d'],Y,N,None,Y,,,,,,,F,20,
12,0,132,7,7,3,['k'],['k'],Y,Y,['space'],Y,,,,,,,F,20,
12,1,133,5,5,3,['d'],['d'],Y,N,None,Y,,,,,,,F,20,
12,2,134,1,1,3,['k'],['k'],Y,Y,['space'],Y,,,,,,,F,20,
12,3,135,3,3,3,['d'],['d'],Y,Y,['space'],Y,,,,,,,F,20,
12,4,136,2,2,3,['k'],['k'],Y,Y,['space'],Y,,,,,,,F,20,
12,5,137,6,6,3,['k'],['k'],Y,N,None,Y,,,,,,,F,20,
12,6,138,4,4,3,['k'],['k'],Y,Y,['space'],Y,,,,,,,F,20,
12,7,139,3,3,3,['k'],['k'],Y,Y,['space'],Y,,,,,,,F,20,
12,8,140,8,8,3,['k'],['k'],Y,N,None,Y,,,,,,,F,20,
12,9,141,4,4,3,['k'],['k'],Y,Y,['space'],Y,,,,,,,F,20,
12,10,142,9,9,3,['k'],['k'],Y,N,None,Y,,,,,,,F,20,
13,0,143,0,0,3,['k'],['k'],Y,N,None,Y,,,,,,,F,20,
13,1,144,8,8,3,['d'],['d'],Y,Y,['space'],Y,,,,,,,F,20,
13,2,145,10,10,3,['d'],['d'],Y,Y,['space'],Y,,,,,,,F,20,
13,3,146,6,6,3,['k'],['k'],Y,N,None,Y,,,,,,,F,20,
13,4,147,3,3,3,['k'],['k'],Y,N,None,Y,,,,,,,F,20,
13,5,148,6,6,3,['d'],['d'],Y,N,None,Y,,,,,,,F,20,
13,6,149,4,4,3,['d'],['d'],Y,N,None,Y,46,41,25,,,,F,20,
13,7,150,10,10,4,['d'],['d'],Y,,,,,,,,,,F,20,
13,8,151,8,8,4,['k'],['k'],Y,,,,,,,,,,F,20,
13,9,152,3,3,4,['d'],['d'],Y,N,None,Y,,,,,,,F,20,
13,10,153,4,4,4,['d'],['d'],Y,N,None,Y,,,,,,,F,20,
14,0,154,5,5,4,['k'],['k'],Y,Y,None,N,,,,,,,F,20,
14,1,155,5,5,4,['d'],['d'],Y,N,None,Y,,,,,,,F,20,
14,2,156,1,1,4,['k'],['k'],Y,Y,None,N,,,,,,,F,20,
14,3,157,0,0,4,['d'],['d'],Y,N,None,Y,,,,,,,F,20,
14,4,158,10,10,4,['k'],['k'],Y,N,None,Y,,,,,,,F,20,
14,5,159,1,1,4,['d'],['d'],Y,Y,['space'],Y,,,,,,,F,20,
14,6,160,10,10,4,['d'],['d'],Y,N,None,Y,,,,,,,F,20,
14,7,161,0,0,4,['k'],['d'],N,Y,['space'],Y,,,,,,,F,20,
14,8,162,2,2,4,['d'],['d'],Y,Y,['space'],Y,,,,,,,F,20,
14,9,163,2,2,4,['k'],['k'],Y,Y,['space'],Y,,,,,,,F,20,
14,10,164,2,2,4,['d'],['d'],Y,N,None,Y,,,,,,,F,20,
15,0,165,10,10,4,['k'],['k'],Y,N,None,Y,,,,,,,F,20,
15,1,166,0,0,4,['d'],['d'],Y,Y,['space'],Y,,,,,,,F,20,
15,2,167,3,3,4,['k'],['k'],Y,N,None,Y,,,,,,,F,20,
15,3,168,3,3,4,['k'],['k'],Y,Y,['space'],Y,,,,,,,F,20,
15,4,169,8,8,4,['d'],['d'],Y,Y,['space'],Y,,,,,,,F,20,
15,5,170,1,1,4,['d'],['d'],Y,N,None,Y,,,,,,,F,20,
15,6,171,5,5,4,['d'],['d'],Y,Y,['space'],Y,,,,,,,F,20,
15,7,172,9,9,4,['k'],['k'],Y,N,None,Y,,,,,,,F,20,
15,8,173,0,0,4,['k'],['d'],N,N,None,Y,,,,,,,F,20,
15,9,174,2,2,4,['d'],['d'],Y,Y,['space'],Y,,,,,,,F,20,
15,10,175,10,10,4,['k'],['k'],Y,N,None,Y,,,,,,,F,20,
16,0,176,5,5,4,['k'],['d'],N,N,None,Y,,,,,,,F,20,
16,1,177,7,7,4,['d'],['d'],Y,N,None,Y,,,,,,,F,20,
16,2,178,1,1,4,['k'],['k'],Y,N,None,Y,,,,,,,F,20,
16,3,179,7,7,4,['d'],['d'],Y,N,None,Y,,,,,,,F,20,
16,4,180,8,8,4,['k'],['k'],Y,N,None,Y,,,,,,,F,20,
16,5,181,1,1,4,['k'],['k'],Y,Y,['space'],Y,,,,,,,F,20,
16,6,182,7,7,4,['k'],['k'],Y,Y,['space'],Y,,,,,,,F,20,
16,7,183,1,1,4,['d'],['k'],N,N,None,Y,,,,,,,F,20,
16,8,184,8,8,4,['k'],['k'],Y,Y,['space'],Y,,,,,,,F,20,
16,9,185,0,0,4,['d'],['d'],Y,N,None,Y,,,,,,,F,20,
16,10,186,5,5,4,['k'],['k'],Y,N,None,Y,,,,,,,F,20,
17,0,187,3,3,4,['d'],['d'],Y,Y,['space'],Y,,,,,,,F,20,
17,1,188,6,6,4,['k'],['k'],Y,N,None,Y,,,,,,,F,20,
17,2,189,5,5,4,['k'],['k'],Y,Y,None,N,,,,,,,F,20,
17,3,190,3,3,4,['k'],['k'],Y,N,None,Y,,,,,,,F,20,
17,4,191,2,2,4,['k'],['k'],Y,Y,['space'],Y,,,,,,,F,20,
17,5,192,3,3,4,['d'],['d'],Y,N,None,Y,,,,,,,F,20,
17,6,193,0,0,4,['k'],['k'],Y,Y,None,N,,,,,,,F,20,
17,7,194,9,9,4,['d'],['k'],N,Y,['space'],Y,,,,,,,F,20,
17,8,195,4,4,4,['d'],['d'],Y,Y,['space'],Y,,,,,,,F,20,
17,9,196,2,2,4,['k'],['k'],Y,Y,['space'],Y,,,,,,,F,20,
17,10,197,10,10,4,['d'],['d'],Y,N,['space'],N,,,,,,,F,20,
18,0,198,6,6,4,['k'],['k'],Y,Y,['space'],Y,,,,,,,F,20,
18,1,199,0,0,4,['d'],['d'],Y,N,['space'],N,45,42,22,,,,F,20,
18,2,200,6,6,5,['k'],['k'],Y,,,,,,,,,,F,20,
18,3,201,4,4,5,['d'],['d'],Y,,,,,,,,,,F,20,
18,4,202,4,4,5,['k'],['k'],Y,N,None,Y,,,,,,,F,20,
18,5,203,3,3,5,['k'],['k'],Y,Y,['space'],Y,,,,,,,F,20,
18,6,204,7,7,5,['d'],['d'],Y,Y,['space'],Y,,,,,,,F,20,
18,7,205,2,2,5,['d'],['d'],Y,N,None,Y,,,,,,,F,20,
18,8,206,9,9,5,['d'],['d'],Y,N,None,Y,,,,,,,F,20,
18,9,207,5,5,5,['k'],['k'],Y,N,None,Y,,,,,,,F,20,
18,10,208,0,0,5,['k'],['k'],Y,N,None,Y,,,,,,,F,20,
19,0,209,10,10,5,['k'],['k'],Y,N,None,Y,,,,,,,F,20,
19,1,210,8,8,5,['k'],['k'],Y,N,None,Y,,,,,,,F,20,
19,2,211,1,1,5,['d'],['d'],Y,Y,['space'],Y,,,,,,,F,20,
19,3,212,7,7,5,['d'],['d'],Y,Y,['space'],Y,,,,,,,F,20,
19,4,213,0,0,5,['d'],['k'],N,N,None,Y,,,,,,,F,20,
19,5,214,3,3,5,['d'],['d'],Y,N,None,Y,,,,,,,F,20,
19,6,215,2,2,5,['d'],['d'],Y,N,None,Y,,,,,,,F,20,
19,7,216,2,2,5,['k'],['k'],Y,Y,['space'],Y,,,,,,,F,20,
19,8,217,2,2,5,['k'],['k'],Y,Y,['space'],Y,,,,,,,F,20,
19,9,218,8,8,5,['k'],['d'],N,Y,['space'],Y,,,,,,,F,20,
19,10,219,2,2,5,['k'],['k'],Y,N,None,Y,,,,,,,F,20,
20,0,220,8,8,5,['d'],['d'],Y,N,None,Y,,,,,,,F,20,
20,1,221,4,4,5,['d'],['d'],Y,N,None,Y,,,,,,,F,20,
20,2,222,10,10,5,['d'],['d'],Y,Y,['space'],Y,,,,,,,F,20,
20,3,223,10,10,5,['k'],['k'],Y,Y,['space'],Y,,,,,,,F,20,
20,4,224,10,10,5,['k'],['k'],Y,N,None,Y,,,,,,,F,20,
20,5,225,5,5,5,['k'],['k'],Y,N,None,Y,,,,,,,F,20,
20,6,226,3,3,5,['k'],['d'],N,N,None,Y,,,,,,,F,20,
20,7,227,5,5,5,['d'],['d'],Y,N,None,Y,,,,,,,F,20,
20,8,228,1,1,5,['k'],['d'],N,N,None,Y,,,,,,,F,20,
20,9,229,6,6,5,['d'],['d'],Y,N,None,Y,,,,,,,F,20,
20,10,230,10,10,5,['d'],['d'],Y,N,None,Y,,,,,,,F,20,
21,0,231,10,10,5,['d'],['d'],Y,Y,['space'],Y,,,,,,,F,20,
21,1,232,2,2,5,['d'],['d'],Y,Y,['space'],Y,,,,,,,F,20,
21,2,233,4,4,5,['k'],['k'],Y,Y,['space'],Y,,,,,,,F,20,
21,3,234,3,3,5,['d'],['d'],Y,Y,['space'],Y,,,,,,,F,20,
21,4,235,1,1,5,['d'],['d'],Y,N,None,Y,,,,,,,F,20,
21,5,236,2,2,5,['d'],['d'],Y,Y,['space'],Y,,,,,,,F,20,
21,6,237,3,3,5,['d'],['d'],Y,Y,None,N,,,,,,,F,20,
21,7,238,1,1,5,['d'],['d'],Y,N,['space'],N,,,,,,,F,20,
21,8,239,5,5,5,['d'],['d'],Y,Y,['space'],Y,,,,,,,F,20,
21,9,240,0,0,5,['d'],['d'],Y,Y,['space'],Y,,,,,,,F,20,
21,10,241,6,6,5,['d'],['d'],Y,Y,['space'],Y,,,,,,,F,20,
22,0,242,1,1,5,['k'],['k'],Y,N,None,Y,,,,,,,F,20,
22,1,243,4,4,5,['k'],['k'],Y,Y,['space'],Y,,,,,,,F,20,
22,2,244,9,9,5,['d'],['d'],Y,Y,['space'],Y,,,,,,,F,20,
22,3,245,7,7,5,['k'],['k'],Y,N,None,Y,,,,,,,F,20,
22,4,246,1,1,5,['d'],['d'],Y,Y,['space'],Y,,,,,,,F,20,
22,5,247,5,5,5,['d'],['d'],Y,Y,['space'],Y,,,,,,,F,20,
22,6,248,0,0,5,['k'],['k'],Y,Y,['space'],Y,,,,,,,F,20,
22,7,249,5,5,5,['d'],['d'],Y,Y,['space'],Y,46,46,24,,,,F,20,
22,8,250,4,4,6,['k'],['k'],Y,,,,,,,,,,F,20,
22,9,251,9,9,6,['d'],['d'],Y,,,,,,,,,,F,20,
22,10,252,10,10,6,['d'],['d'],Y,Y,['space'],Y,,,,,,,F,20,
23,0,253,9,9,6,['d'],['d'],Y,N,None,Y,,,,,,,F,20,
23,1,254,6,6,6,['k'],['k'],Y,Y,['space'],Y,,,,,,,F,20,
23,2,255,0,0,6,['d'],['d'],Y,N,None,Y,,,,,,,F,20,
23,3,256,2,2,6,['k'],['k'],Y,Y,['space'],Y,,,,,,,F,20,
23,4,257,0,0,6,['d'],['d'],Y,N,None,Y,,,,,,,F,20,
23,5,258,4,4,6,['k'],['d'],N,Y,None,N,,,,,,,F,20,
23,6,259,10,10,6,['d'],['k'],N,Y,['space'],Y,,,,,,,F,20,
23,7,260,2,2,6,['k'],['k'],Y,Y,['space'],Y,,,,,,,F,20,
23,8,261,7,7,6,['k'],['k'],Y,Y,['space'],Y,,,,,,,F,20,
23,9,262,4,4,6,['k'],['k'],Y,N,None,Y,,,,,,,F,20,
23,10,263,0,0,6,['d'],['d'],Y,Y,['space'],Y,,,,,,,F,20,
24,0,264,5,5,6,['k'],['d'],N,N,None,Y,,,,,,,F,20,
24,1,265,4,4,6,['k'],['k'],Y,N,None,Y,,,,,,,F,20,
24,2,266,9,9,6,['d'],['d'],Y,Y,['space'],Y,,,,,,,F,20,
24,3,267,9,9,6,['d'],['d'],Y,N,None,Y,,,,,,,F,20,
24,4,268,9,9,6,['k'],['k'],Y,Y,['space'],Y,,,,,,,F,20,
24,5,269,3,3,6,['k'],['k'],Y,Y,['space'],Y,,,,,,,F,20,
24,6,270,4,4,6,['d'],['d'],Y,N,None,Y,,,,,,,F,20,
24,7,271,8,8,6,['d'],['d'],Y,Y,['space'],Y,,,,,,,F,20,
24,8,272,1,1,6,['d'],['d'],Y,N,None,Y,,,,,,,F,20,
24,9,273,8,8,6,['d'],['d'],Y,N,None,Y,,,,,,,F,20,
24,10,274,4,4,6,['k'],['k'],Y,Y,['space'],Y,,,,,,,F,20,
25,0,275,6,6,6,['k'],['k'],Y,N,None,Y,,,,,,,F,20,
25,1,276,1,1,6,['k'],['k'],Y,Y,['space'],Y,,,,,,,F,20,
25,2,277,5,5,6,['d'],['d'],Y,Y,['space'],Y,,,,,,,F,20,
25,3,278,6,6,6,['d'],['d'],Y,N,None,Y,,,,,,,F,20,
25,4,279,9,9,6,['d'],['d'],Y,N,None,Y,,,,,,,F,20,
25,5,280,2,2,6,['k'],['k'],Y,N,None,Y,,,,,,,F,20,
25,6,281,9,9,6,['d'],['d'],Y,N,None,Y,,,,,,,F,20,
25,7,282,5,5,6,['d'],['d'],Y,Y,['space'],Y,,,,,,,F,20,
25,8,283,10,10,6,['k'],['k'],Y,N,None,Y,,,,,,,F,20,
25,9,284,7,7,6,['d'],['k'],N,Y,['space'],Y,,,,,,,F,20,
25,10,285,4,4,6,['d'],['d'],Y,Y,['space'],Y,,,,,,,F,20,
26,0,286,8,8,6,['k'],['k'],Y,N,None,Y,,,,,,,F,20,
26,1,287,8,8,6,['d'],['d'],Y,N,None,Y,,,,,,,F,20,
26,2,288,0,0,6,['k'],['k'],Y,N,None,Y,,,,,,,F,20,
26,3,289,2,2,6,['k'],['k'],Y,N,None,Y,,,,,,,F,20,
26,4,290,9,9,6,['k'],['k'],Y,N,None,Y,,,,,,,F,20,
26,5,291,10,10,6,['d'],['d'],Y,N,None,Y,,,,,,,F,20,
26,6,292,5,5,6,['d'],['d'],Y,N,None,Y,,,,,,,F,20,
26,7,293,6,6,6,['k'],['k'],Y,Y,['space'],Y,,,,,,,F,20,
26,8,294,2,2,6,['k'],['k'],Y,Y,['space'],Y,,,,,,,F,20,
26,9,295,10,10,6,['k'],['k'],Y,N,None,Y,,,,,,,F,20,
26,10,296,6,6,6,['d'],['d'],Y,Y,['space'],Y,,,,,,,F,20,
27,0,297,10,10,6,['d'],['d'],Y,N,None,Y,,,,,,,F,20,
27,1,298,6,6,6,['d'],['d'],Y,Y,['space'],Y,,,,,,,F,20,
27,2,299,7,7,6,['d'],['d'],Y,N,None,Y,46,47,22,,,,F,20,
27,3,300,4,4,7,['k'],['k'],Y,,,,,,,,,,F,20,
27,4,301,7,7,7,['k'],['k'],Y,,,,,,,,,,F,20,
27,5,302,3,3,7,['k'],['k'],Y,N,None,Y,,,,,,,F,20,
27,6,303,5,5,7,['d'],['d'],Y,N,None,Y,,,,,,,F,20,
27,7,304,4,4,7,['k'],['k'],Y,N,None,Y,,,,,,,F,20,
27,8,305,10,10,7,['k'],['k'],Y,N,None,Y,,,,,,,F,20,
27,9,306,8,8,7,['d'],['d'],Y,N,None,Y,,,,,,,F,20,
27,10,307,6,6,7,['k'],['d'],N,N,None,Y,,,,,,,F,20,
28,0,308,6,6,7,['k'],['d'],N,Y,['space'],Y,,,,,,,F,20,
28,1,309,1,1,7,['k'],['k'],Y,Y,['space'],Y,,,,,,,F,20,
28,2,310,4,4,7,['k'],['k'],Y,N,None,Y,,,,,,,F,20,
28,3,311,0,0,7,['k'],['d'],N,Y,['space'],Y,,,,,,,F,20,
28,4,312,0,0,7,['k'],['k'],Y,Y,['space'],Y,,,,,,,F,20,
28,5,313,7,7,7,['k'],['k'],Y,Y,['space'],Y,,,,,,,F,20,
28,6,314,10,10,7,['d'],['d'],Y,N,None,Y,,,,,,,F,20,
28,7,315,5,5,7,['d'],['d'],Y,N,None,Y,,,,,,,F,20,
28,8,316,0,0,7,['d'],['d'],Y,Y,['space'],Y,,,,,,,F,20,
28,9,317,2,2,7,['d'],['d'],Y,N,None,Y,,,,,,,F,20,
28,10,318,5,5,7,['k'],['k'],Y,Y,['space'],Y,,,,,,,F,20,
29,0,319,1,1,7,['k'],['k'],Y,Y,['space'],Y,,,,,,,F,20,
29,1,320,0,0,7,['k'],['k'],Y,N,None,Y,,,,,,,F,20,
29,2,321,9,9,7,['d'],['d'],Y,Y,['space'],Y,,,,,,,F,20,
29,3,322,8,8,7,['d'],['d'],Y,N,None,Y,,,,,,,F,20,
29,4,323,7,7,7,['d'],['d'],Y,Y,['space'],Y,,,,,,,F,20,
29,5,324,4,4,7,['k'],['k'],Y,N,None,Y,,,,,,,F,20,
29,6,325,6,6,7,['k'],['k'],Y,N,None,Y,,,,,,,F,20,
29,7,326,7,7,7,['d'],['k'],N,Y,['space'],Y,,,,,,,F,20,
29,8,327,8,8,7,['k'],['k'],Y,Y,['space'],Y,,,,,,,F,20,
29,9,328,9,9,7,['d'],['d'],Y,Y,['space'],Y,,,,,,,F,20,
29,10,329,6,6,7,['d'],['d'],Y,Y,['space'],Y,,,,,,,F,20,
30,0,330,7,7,7,['d'],['d'],Y,Y,['space'],Y,,,,,,,F,20,
30,1,331,8,8,7,['k'],['k'],Y,N,None,Y,,,,,,,F,20,
30,2,332,3,3,7,['d'],['d'],Y,N,None,Y,,,,,,,F,20,
30,3,333,8,8,7,['d'],['d'],Y,N,None,Y,,,,,,,F,20,
30,4,334,4,4,7,['d'],['k'],N,N,None,Y,,,,,,,F,20,
30,5,335,3,3,7,['k'],['k'],Y,Y,['space'],Y,,,,,,,F,20,
30,6,336,6,6,7,['k'],['d'],N,N,None,Y,,,,,,,F,20,
30,7,337,4,4,7,['k'],['k'],Y,Y,['space'],Y,,,,,,,F,20,
30,8,338,2,2,7,['d'],['d'],Y,Y,['space'],Y,,,,,,,F,20,
30,9,339,3,3,7,['d'],['d'],Y,Y,['space'],Y,,,,,,,F,20,
30,10,340,9,9,7,['k'],['k'],Y,Y,['space'],Y,,,,,,,F,20,
31,0,341,0,0,7,['k'],['k'],Y,N,None,Y,,,,,,,F,20,
31,1,342,0,0,7,['d'],['d'],Y,Y,['space'],Y,,,,,,,F,20,
31,2,343,0,0,7,['k'],['k'],Y,N,['space'],N,,,,,,,F,20,
31,3,344,1,1,7,['k'],['k'],Y,N,None,Y,,,,,,,F,20,
31,4,345,4,4,7,['k'],['k'],Y,N,None,Y,,,,,,,F,20,
31,5,346,7,7,7,['d'],['d'],Y,N,None,Y,,,,,,,F,20,
31,6,347,6,6,7,['k'],['k'],Y,N,None,Y,,,,,,,F,20,
31,7,348,7,7,7,['d'],['d'],Y,Y,['space'],Y,,,,,,,F,20,
31,8,349,7,7,7,['k'],['k'],Y,Y,['space'],Y,44,47,23,,,,F,20,
31,9,350,9,9,8,['d'],['d'],Y,,,,,,,,,,F,20,
31,10,351,4,4,8,['d'],['d'],Y,,,,,,,,,,F,20,
32,0,352,6,6,8,['k'],['k'],Y,Y,['space'],Y,,,,,,,F,20,
32,1,353,7,7,8,['d'],['d'],Y,Y,['space'],Y,,,,,,,F,20,
32,2,354,5,5,8,['k'],['k'],Y,Y,['space'],Y,,,,,,,F,20,
32,3,355,8,8,8,['d'],['d'],Y,Y,['space'],Y,,,,,,,F,20,
32,4,356,2,2,8,['k'],['k'],Y,N,None,Y,,,,,,,F,20,
32,5,357,0,0,8,['k'],['k'],Y,Y,['space'],Y,,,,,,,F,20,
32,6,358,4,4,8,['d'],['d'],Y,N,None,Y,,,,,,,F,20,
32,7,359,1,1,8,['d'],['d'],Y,N,None,Y,,,,,,,F,20,
32,8,360,1,1,8,['k'],['k'],Y,Y,['space'],Y,,,,,,,F,20,
32,9,361,0,0,8,['d'],['d'],Y,N,None,Y,,,,,,,F,20,
32,10,362,4,4,8,['k'],['k'],Y,Y,['space'],Y,,,,,,,F,20,
33,0,363,1,1,8,['k'],['k'],Y,Y,['space'],Y,,,,,,,F,20,
33,1,364,1,1,8,['k'],['k'],Y,Y,['space'],Y,,,,,,,F,20,
33,2,365,0,0,8,['k'],['k'],Y,Y,None,N,,,,,,,F,20,
33,3,366,9,9,8,['d'],['d'],Y,N,None,Y,,,,,,,F,20,
33,4,367,10,10,8,['k'],['k'],Y,Y,['space'],Y,,,,,,,F,20,
33,5,368,10,10,8,['k'],['k'],Y,N,None,Y,,,,,,,F,20,
33,6,369,2,2,8,['d'],['d'],Y,Y,['space'],Y,,,,,,,F,20,
33,7,370,8,8,8,['k'],['k'],Y,N,None,Y,,,,,,,F,20,
33,8,371,6,6,8,['k'],['k'],Y,Y,['space'],Y,,,,,,,F,20,
33,9,372,5,5,8,['d'],['d'],Y,Y,['space'],Y,,,,,,,F,20,
33,10,373,0,0,8,['k'],['k'],Y,Y,None,N,,,,,,,F,20,
34,0,374,6,6,8,['d'],['d'],Y,Y,['space'],Y,,,,,,,F,20,
34,1,375,2,2,8,['d'],['d'],Y,N,None,Y,,,,,,,F,20,
34,2,376,3,3,8,['k'],['k'],Y,Y,['space'],Y,,,,,,,F,20,
34,3,377,0,0,8,['k'],['k'],Y,Y,['space'],Y,,,,,,,F,20,
34,4,378,5,5,8,['k'],['k'],Y,N,None,Y,,,,,,,F,20,
34,5,379,8,8,8,['d'],['k'],N,N,None,Y,,,,,,,F,20,
34,6,380,6,6,8,['k'],['k'],Y,N,None,Y,,,,,,,F,20,
34,7,381,5,5,8,['k'],['k'],Y,N,None,Y,,,,,,,F,20,
34,8,382,9,9,8,['d'],['d'],Y,Y,['space'],Y,,,,,,,F,20,
34,9,383,6,6,8,['k'],['k'],Y,Y,['k'],N,,,,,,,F,20,
34,10,384,8,8,8,['k'],['k'],Y,N,None,Y,,,,,,,F,20,
35,0,385,5,5,8,['k'],['k'],Y,N,None,Y,,,,,,,F,20,
35,1,386,1,1,8,['d'],['d'],Y,Y,['space'],Y,,,,,,,F,20,
35,2,387,5,5,8,['d'],['d'],Y,Y,['space'],Y,,,,,,,F,20,
35,3,388,3,3,8,['k'],['k'],Y,Y,['space'],Y,,,,,,,F,20,
35,4,389,3,3,8,['k'],['k'],Y,Y,None,N,,,,,,,F,20,
35,5,390,10,10,8,['d'],['d'],Y,Y,None,N,,,,,,,F,20,
35,6,391,9,9,8,['k'],['k'],Y,N,None,Y,,,,,,,F,20,
35,7,392,6,6,8,['k'],['k'],Y,N,None,Y,,,,,,,F,20,
35,8,393,4,4,8,['k'],['k'],Y,N,None,Y,,,,,,,F,20,
35,9,394,2,2,8,['d'],['d'],Y,N,None,Y,,,,,,,F,20,
35,10,395,9,9,8,['d'],['d'],Y,N,None,Y,,,,,,,F,20,
36,0,396,5,5,8,['k'],['k'],Y,N,None,Y,,,,,,,F,20,
36,1,397,5,5,8,['d'],['d'],Y,N,None,Y,,,,,,,F,20,
36,2,398,9,9,8,['d'],['d'],Y,N,None,Y,,,,,,,F,20,
36,3,399,2,2,8,['d'],['d'],Y,N,None,Y,49,43,25,,,,F,20,
36,4,400,0,0,9,['k'],['k'],Y,,,,,,,,,,F,20,
36,5,401,8,8,9,['k'],['k'],Y,,,,,,,,,,F,20,
36,6,402,9,9,9,['k'],['k'],Y,N,None,Y,,,,,,,F,20,
36,7,403,3,3,9,['k'],['k'],Y,N,None,Y,,,,,,,F,20,
36,8,404,10,10,9,['d'],['d'],Y,N,None,Y,,,,,,,F,20,
36,9,405,6,6,9,['d'],['d'],Y,N,None,Y,,,,,,,F,20,
36,10,406,3,3,9,['k'],['k'],Y,N,None,Y,,,,,,,F,20,
37,0,407,1,1,9,['d'],['d'],Y,N,None,Y,,,,,,,F,20,
37,1,408,1,1,9,['d'],['d'],Y,Y,['space'],Y,,,,,,,F,20,
37,2,409,1,1,9,['d'],['d'],Y,Y,['space'],Y,,,,,,,F,20,
37,3,410,5,5,9,['k'],['k'],Y,N,None,Y,,,,,,,F,20,
37,4,411,7,7,9,['d'],['d'],Y,N,None,Y,,,,,,,F,20,
37,5,412,7,7,9,['d'],['d'],Y,N,['space'],N,,,,,,,F,20,
37,6,413,7,7,9,['d'],['d'],Y,Y,None,N,,,,,,,F,20,
37,7,414,1,1,9,['k'],['k'],Y,Y,['space'],Y,,,,,,,F,20,
37,8,415,7,7,9,['d'],['d'],Y,Y,['space'],Y,,,,,,,F,20,
37,9,416,7,7,9,['d'],['d'],Y,Y,['space'],Y,,,,,,,F,20,
37,10,417,4,4,9,['d'],['d'],Y,Y,['space'],Y,,,,,,,F,20,
38,0,418,8,8,9,['d'],['d'],Y,N,None,Y,,,,,,,F,20,
38,1,419,8,8,9,['k'],['k'],Y,Y,['space'],Y,,,,,,,F,20,
38,2,420,7,7,9,['k'],['k'],Y,N,None,Y,,,,,,,F,20,
38,3,421,8,8,9,['k'],['k'],Y,Y,['space'],Y,,,,,,,F,20,
38,4,422,7,7,9,['k'],['k'],Y,N,None,Y,,,,,,,F,20,
38,5,423,2,2,9,['k'],['k'],Y,Y,['space'],Y,,,,,,,F,20,
38,6,424,2,2,9,['d'],['d'],Y,N,None,Y,,,,,,,F,20,
38,7,425,10,10,9,['k'],['k'],Y,Y,['space'],Y,,,,,,,F,20,
38,8,426,3,3,9,['d'],['d'],Y,Y,['space'],Y,,,,,,,F,20,
38,9,427,7,7,9,['k'],['k'],Y,Y,['space'],Y,,,,,,,F,20,
38,10,428,4,4,9,['d'],['d'],Y,N,None,Y,,,,,,,F,20,
39,0,429,7,7,9,['d'],['d'],Y,Y,['space'],Y,,,,,,,F,20,
39,1,430,10,10,9,['k'],['k'],Y,Y,['space'],Y,,,,,,,F,20,
39,2,431,10,10,9,['k'],['k'],Y,N,None,Y,,,,,,,F,20,
39,3,432,2,2,9,['k'],['k'],Y,N,None,Y,,,,,,,F,20,
39,4,433,7,7,9,['k'],['k'],Y,Y,['space'],Y,,,,,,,F,20,
39,5,434,6,6,9,['k'],['k'],Y,N,None,Y,,,,,,,F,20,
39,6,435,6,6,9,['d'],['d'],Y,Y,['space'],Y,,,,,,,F,20,
39,7,436,8,8,9,['d'],['d'],Y,N,None,Y,,,,,,,F,20,
39,8,437,5,5,9,['d'],['d'],Y,Y,['space'],Y,,,,,,,F,20,
39,9,438,8,8,9,['k'],['k'],Y,Y,['space'],Y,,,,,,,F,20,
39,10,439,0,0,9,['k'],['k'],Y,Y,['space'],Y,,,,,,,F,20,
40,0,440,5,5,9,['d'],['d'],Y,Y,['space'],Y,,,,,,,F,20,
40,1,441,7,7,9,['k'],['k'],Y,N,None,Y,,,,,,,F,20,
40,2,442,6,6,9,['d'],['d'],Y,N,None,Y,,,,,,,F,20,
40,3,443,3,3,9,['d'],['d'],Y,N,None,Y,,,,,,,F,20,
40,4,444,7,7,9,['k'],['k'],Y,N,None,Y,,,,,,,F,20,
40,5,445,6,6,9,['k'],['k'],Y,N,None,Y,,,,,,,F,20,
40,6,446,8,8,9,['d'],['d'],Y,Y,None,N,,,,,,,F,20,
40,7,447,3,3,9,['k'],['k'],Y,Y,None,N,,,,,,,F,20,
40,8,448,8,8,9,['k'],['k'],Y,Y,None,N,,,,,,,F,20,
40,9,449,6,6,9,['d'],['d'],Y,Y,None,N,50,42,25,,,,F,20,
40,10,450,1,1,10,['k'],['k'],Y,,,,,,,,,,F,20,
41,0,451,2,2,10,['k'],['k'],Y,,,,,,,,,,F,20,
41,1,452,4,4,10,['k'],['k'],Y,N,None,Y,,,,,,,F,20,
41,2,453,6,6,10,['d'],['d'],Y,Y,['space'],Y,,,,,,,F,20,
41,3,454,1,1,10,['k'],['k'],Y,N,None,Y,,,,,,,F,20,
41,4,455,2,2,10,['k'],['k'],Y,Y,['space'],Y,,,,,,,F,20,
41,5,456,0,0,10,['k'],['k'],Y,Y,['space'],Y,,,,,,,F,20,
41,6,457,4,4,10,['d'],['d'],Y,Y,['space'],Y,,,,,,,F,20,
41,7,458,10,10,10,['d'],['d'],Y,Y,['space'],Y,,,,,,,F,20,
41,8,459,9,9,10,['k'],['k'],Y,Y,['space'],Y,,,,,,,F,20,
41,9,460,6,6,10,['d'],['d'],Y,N,None,Y,,,,,,,F,20,
41,10,461,10,10,10,['d'],['d'],Y,Y,['space'],Y,,,,,,,F,20,
42,0,462,8,8,10,['k'],['k'],Y,N,None,Y,,,,,,,F,20,
42,1,463,2,2,10,['k'],['k'],Y,N,None,Y,,,,,,,F,20,
42,2,464,4,4,10,['k'],['k'],Y,Y,['space'],Y,,,,,,,F,20,
42,3,465,10,10,10,['d'],['d'],Y,Y,['space'],Y,,,,,,,F,20,
42,4,466,5,5,10,['k'],['k'],Y,N,None,Y,,,,,,,F,20,
42,5,467,7,7,10,['d'],['d'],Y,Y,['space'],Y,,,,,,,F,20,
42,6,468,9,9,10,['k'],['d'],N,N,None,Y,,,,,,,F,20,
42,7,469,8,8,10,['k'],['k'],Y,Y,['space'],Y,,,,,,,F,20,
42,8,470,6,6,10,['d'],['d'],Y,N,None,Y,,,,,,,F,20,
42,9,471,0,0,10,['d'],['d'],Y,Y,['space'],Y,,,,,,,F,20,
42,10,472,9,9,10,['d'],['d'],Y,Y,['space'],Y,,,,,,,F,20,
43,0,473,9,9,10,['k'],['k'],Y,Y,['space'],Y,,,,,,,F,20,
43,1,474,3,3,10,['d'],['d'],Y,Y,['space'],Y,,,,,,,F,20,
43,2,475,2,2,10,['d'],['d'],Y,Y,['space'],Y,,,,,,,F,20,
43,3,476,6,6,10,['k'],['k'],Y,N,None,Y,,,,,,,F,20,
43,4,477,7,7,10,['k'],['k'],Y,N,None,Y,,,,,,,F,20,
43,5,478,7,7,10,['k'],['k'],Y,N,None,Y,,,,,,,F,20,
43,6,479,4,4,10,['k'],['k'],Y,Y,['space'],Y,,,,,,,F,20,
43,7,480,9,9,10,['d'],['d'],Y,N,None,Y,,,,,,,F,20,
43,8,481,2,2,10,['d'],['d'],Y,Y,['space'],Y,,,,,,,F,20,
43,9,482,9,9,10,['k'],['k'],Y,Y,['space'],Y,,,,,,,F,20,
43,10,483,10,10,10,['k'],['k'],Y,N,None,Y,,,,,,,F,20,
44,0,484,5,5,10,['d'],['d'],Y,Y,['space'],Y,,,,,,,F,20,
44,1,485,4,4,10,['k'],['k'],Y,Y,['space'],Y,,,,,,,F,20,
44,2,486,8,8,10,['d'],['d'],Y,N,None,Y,,,,,,,F,20,
44,3,487,7,7,10,['k'],['k'],Y,Y,['space'],Y,,,,,,,F,20,
44,4,488,9,9,10,['d'],['d'],Y,Y,['space'],Y,,,,,,,F,20,
44,5,489,3,3,10,['k'],['k'],Y,Y,['space'],Y,,,,,,,F,20,
44,6,490,3,3,10,['d'],['d'],Y,Y,['space'],Y,,,,,,,F,20,
44,7,491,6,6,10,['d'],['d'],Y,N,None,Y,,,,,,,F,20,
44,8,492,10,10,10,['d'],['d'],Y,N,None,Y,,,,,,,F,20,
44,9,493,8,8,10,['d'],['d'],Y,N,None,Y,,,,,,,F,20,
44,10,494,2,2,10,['d'],['d'],Y,N,None,Y,,,,,,,F,20,
45,0,495,5,5,10,['k'],['k'],Y,N,None,Y,,,,,,,F,20,
45,1,496,9,9,10,['k'],['k'],Y,N,None,Y,,,,,,,F,20,
45,2,497,5,5,10,['k'],['k'],Y,N,None,Y,,,,,,,F,20,
45,3,498,7,7,10,['k'],['k'],Y,N,None,Y,,,,,,,F,20,
45,4,499,10,10,10,['d'],['d'],Y,N,None,Y,49,48,25,,,,F,20,
45,5,500,4,4,11,['k'],['d'],Y,,,,,,,Y,Y,Y,F,20,
45,6,501,9,9,11,['k'],['d'],Y,,,,,,,,Y,Y,F,20,
45,7,502,4,4,11,['k'],['d'],Y,Y,['space'],Y,,,,,Y,Y,F,20,
45,8,503,10,10,11,['d'],['k'],Y,Y,['space'],Y,,,,,Y,Y,F,20,
45,9,504,6,6,11,['d'],['k'],Y,Y,['space'],Y,,,,,Y,Y,F,20,
45,10,505,8,8,11,['k'],['d'],Y,Y,['space'],Y,,,,,Y,Y,F,20,
46,0,506,7,7,11,['d'],['k'],Y,N,None,Y,,,,,Y,Y,F,20,
46,1,507,10,10,11,['d'],['k'],Y,Y,['space'],Y,,,,,Y,Y,F,20,
46,2,508,4,4,11,['d'],['k'],Y,N,None,Y,,,,,Y,Y,F,20,
46,3,509,5,5,11,['k'],['d'],Y,Y,['space'],Y,,,,,Y,Y,F,20,
46,4,510,9,9,11,['k'],['d'],Y,Y,None,N,,,,,Y,Y,F,20,
46,5,511,10,10,11,['d'],['k'],Y,N,None,Y,,,,,Y,Y,F,20,
46,6,512,1,1,11,['d'],['k'],Y,N,None,Y,,,,,Y,Y,F,20,
46,7,513,10,10,11,['d'],['k'],Y,N,None,Y,,,,,Y,Y,F,20,
46,8,514,2,2,11,['k'],['d'],Y,Y,['space'],Y,,,,,Y,Y,F,20,
46,9,515,7,7,11,['d'],['k'],Y,N,None,Y,,,,,Y,Y,F,20,
46,10,516,7,7,11,['d'],['k'],Y,N,None,Y,,,,,Y,Y,F,20,
47,0,517,9,9,11,['d'],['k'],Y,N,None,Y,,,,,Y,Y,F,20,
47,1,518,8,8,11,['k'],['d'],Y,Y,['space'],Y,,,,,Y,Y,F,20,
47,2,519,3,3,11,['d'],['k'],Y,Y,['space'],Y,,,,,Y,Y,F,20,
47,3,520,0,0,11,['k'],['d'],Y,N,None,Y,,,,,Y,Y,F,20,
47,4,521,0,0,11,['d'],['k'],Y,N,None,Y,,,,,Y,Y,F,20,
47,5,522,1,1,11,['d'],['k'],Y,Y,['space'],Y,,,,,Y,Y,F,20,
47,6,523,1,1,11,['d'],['k'],Y,N,None,Y,,,,,Y,Y,F,20,
47,7,524,8,8,11,['k'],['d'],Y,Y,['space'],Y,,,,,Y,Y,F,20,
47,8,525,10,10,11,['k'],['d'],Y,N,None,Y,,,,,Y,Y,F,20,
47,9,526,2,2,11,['k'],['d'],Y,Y,['space'],Y,,,,,Y,Y,F,20,
47,10,527,10,10,11,['d'],['k'],Y,N,None,Y,,,,,Y,Y,F,20,
48,0,528,9,9,11,['k'],['d'],Y,N,None,Y,,,,,Y,Y,F,20,
48,1,529,0,0,11,['d'],['k'],Y,N,None,Y,,,,,Y,Y,F,20,
48,2,530,7,7,11,['d'],['k'],Y,N,None,Y,,,,,Y,Y,F,20,
48,3,531,6,6,11,['k'],['d'],Y,Y,['space'],Y,,,,,Y,Y,F,20,
48,4,532,6,6,11,['d'],['k'],Y,Y,['space'],Y,,,,,Y,Y,F,20,
48,5,533,5,5,11,['d'],['k'],Y,Y,['space'],Y,,,,,Y,Y,F,20,
48,6,534,2,2,11,['k'],['d'],Y,Y,['space'],Y,,,,,Y,Y,F,20,
48,7,535,4,4,11,['d'],['k'],Y,Y,['space'],Y,,,,,Y,Y,F,20,
48,8,536,4,4,11,['d'],['k'],Y,Y,['space'],Y,,,,,Y,Y,F,20,
48,9,537,6,6,11,['k'],['d'],Y,Y,['space'],Y,,,,,Y,Y,F,20,
48,10,538,1,1,11,['k'],['d'],Y,N,None,Y,,,,,Y,Y,F,20,
49,0,539,1,1,11,['k'],['d'],Y,Y,['space'],Y,,,,,Y,Y,F,20,
49,1,540,9,9,11,['k'],['d'],Y,N,None,Y,,,,,Y,Y,F,20,
49,2,541,10,10,11,['k'],['d'],Y,N,None,Y,,,,,Y,Y,F,20,
49,3,542,2,2,11,['d'],['k'],Y,N,None,Y,,,,,Y,Y,F,20,
49,4,543,0,0,11,['d'],['k'],Y,Y,['space'],Y,,,,,Y,Y,F,20,
49,5,544,6,6,11,['d'],['k'],Y,Y,['space'],Y,,,,,Y,Y,F,20,
49,6,545,5,5,11,['d'],['k'],Y,Y,['space'],Y,,,,,Y,Y,F,20,
49,7,546,6,6,11,['d'],['k'],Y,N,None,Y,,,,,Y,Y,F,20,
49,8,547,1,1,11,['k'],['d'],Y,Y,['space'],Y,,,,,Y,Y,F,20,
49,9,548,9,9,11,['k'],['d'],Y,N,None,Y,,,,,Y,Y,F,20,
49,10,549,1,1,11,['k'],['d'],Y,N,None,Y,50,47,25,,Y,Y,F,20,
50,0,550,10,10,12,['k'],['d'],Y,,,,,,,,Y,Y,F,20,
50,1,551,3,3,12,['d'],['k'],Y,,,,,,,,Y,Y,F,20,
50,2,552,10,10,12,['k'],['d'],Y,N,None,Y,,,,,Y,Y,F,20,
50,3,553,3,3,12,['d'],['k'],Y,Y,['space'],Y,,,,,Y,Y,F,20,
50,4,554,4,4,12,['d'],['k'],Y,Y,['space'],Y,,,,,Y,Y,F,20,
50,5,555,3,3,12,['d'],['k'],Y,Y,['space'],Y,,,,,Y,Y,F,20,
50,6,556,3,3,12,['k'],['d'],Y,N,None,Y,,,,,Y,Y,F,20,
50,7,557,10,10,12,['d'],['k'],Y,N,None,Y,,,,,Y,Y,F,20,
50,8,558,8,8,12,['d'],['k'],Y,Y,['space'],Y,,,,,Y,Y,F,20,
50,9,559,8,8,12,['k'],['d'],Y,N,None,Y,,,,,Y,Y,F,20,
50,10,560,9,9,12,['k'],['d'],Y,Y,['space'],Y,,,,,Y,Y,F,20,
51,0,561,9,9,12,['d'],['k'],Y,N,None,Y,,,,,Y,Y,F,20,
51,1,562,4,4,12,['k'],['d'],Y,N,None,Y,,,,,Y,Y,F,20,
51,2,563,5,5,12,['k'],['d'],Y,N,None,Y,,,,,Y,Y,F,20,
51,3,564,5,5,12,['k'],['d'],Y,N,None,Y,,,,,Y,Y,F,20,
51,4,565,6,6,12,['d'],['k'],Y,Y,['space'],Y,,,,,Y,Y,F,20,
51,5,566,9,9,12,['k'],['d'],Y,N,None,Y,,,,,Y,Y,F,20,
51,6,567,8,8,12,['k'],['d'],Y,Y,['space'],Y,,,,,Y,Y,F,20,
51,7,568,3,3,12,['k'],['d'],Y,N,None,Y,,,,,Y,Y,F,20,
51,8,569,8,8,12,['d'],['k'],Y,Y,['space'],Y,,,,,Y,Y,F,20,
51,9,570,0,0,12,['d'],['k'],Y,Y,['space'],Y,,,,,Y,Y,F,20,
51,10,571,0,0,12,['k'],['d'],Y,N,None,Y,,,,,Y,Y,F,20,
52,0,572,9,9,12,['k'],['d'],Y,Y,['space'],Y,,,,,Y,Y,F,20,
52,1,573,3,3,12,['k'],['k'],N,N,None,Y,,,,,Y,Y,F,20,
52,2,574,10,10,12,['k'],['d'],Y,Y,['space'],Y,,,,,Y,Y,F,20,
52,3,575,10,10,12,['d'],['k'],Y,N,None,Y,,,,,Y,Y,F,20,
52,4,576,3,3,12,['k'],['d'],Y,N,None,Y,,,,,Y,Y,F,20,
52,5,577,1,1,12,['d'],['k'],Y,N,None,Y,,,,,Y,Y,F,20,
52,6,578,9,9,12,['k'],['d'],Y,N,None,Y,,,,,Y,Y,F,20,
52,7,579,8,8,12,['k'],['d'],Y,Y,['space'],Y,,,,,Y,Y,F,20,
52,8,580,7,7,12,['k'],['d'],Y,Y,['space'],Y,,,,,Y,Y,F,20,
52,9,581,10,10,12,['k'],['d'],Y,Y,['space'],Y,,,,,Y,Y,F,20,
52,10,582,2,2,12,['k'],['d'],Y,Y,['space'],Y,,,,,Y,Y,F,20,
53,0,583,9,9,12,['d'],['k'],Y,Y,['space'],Y,,,,,Y,Y,F,20,
53,1,584,10,10,12,['k'],['d'],Y,N,None,Y,,,,,Y,Y,F,20,
53,2,585,3,3,12,['k'],['d'],Y,Y,['space'],Y,,,,,Y,Y,F,20,
53,3,586,7,7,12,['k'],['d'],Y,N,None,Y,,,,,Y,Y,F,20,
53,4,587,8,8,12,['k'],['d'],Y,Y,['space'],Y,,,,,Y,Y,F,20,
53,5,588,4,4,12,['k'],['d'],Y,Y,['space'],Y,,,,,Y,Y,F,20,
53,6,589,0,0,12,['k'],['d'],Y,Y,['space'],Y,,,,,Y,Y,F,20,
53,7,590,6,6,12,['d'],['k'],Y,Y,['space'],Y,,,,,Y,Y,F,20,
53,8,591,3,3,12,['k'],['d'],Y,Y,['space'],Y,,,,,Y,Y,F,20,
53,9,592,0,0,12,['k'],['d'],Y,Y,['space'],Y,,,,,Y,Y,F,20,
53,10,593,5,5,12,['d'],['d'],N,Y,['space'],Y,,,,,Y,Y,F,20,
54,0,594,7,7,12,['d'],['k'],Y,N,None,Y,,,,,Y,Y,F,20,
54,1,595,3,3,12,['d'],['k'],Y,Y,['space'],Y,,,,,Y,Y,F,20,
54,2,596,2,2,12,['k'],['d'],Y,N,None,Y,,,,,Y,Y,F,20,
54,3,597,10,10,12,['k'],['d'],Y,N,None,Y,,,,,Y,Y,F,20,
54,4,598,5,5,12,['k'],['d'],Y,N,None,Y,,,,,Y,Y,F,20,
54,5,599,9,9,12,['k'],['d'],Y,N,None,Y,48,48,25,,Y,Y,F,20,
