.thisRepN,.thisTrialN,.thisN,.thisIndex,Block Number,Key pressed,Correct?,Category,Match?,Interference correct?,Total correct in block,Button switch shown?,Actually switched?,Fast?,gender,age
0,0,0,28,1,None,Timed out,,,,,,,,F,20
0,1,1,548,1,['y'],Y,['k'],Y,Y,,,,,F,20
0,2,2,408,1,['n'],Y,['k'],N,Y,,,,,F,20
0,3,3,325,1,['y'],N,['k'],Y,Y,,,,,F,20
0,4,4,439,1,['y'],Y,['k'],Y,Y,,,,,F,20
0,5,5,232,1,['n'],Y,['d'],N,Y,,,,,F,20
0,6,6,450,1,['y'],N,['k'],Y,Y,,,,,F,20
0,7,7,148,1,['n'],N,['d'],Y,N,,,,,F,20
0,8,8,35,1,['y'],N,['d'],Y,Y,,,,,F,20
0,9,9,436,1,['y'],Y,['k'],Y,Y,,,,,F,20
0,10,10,429,1,['y'],N,['k'],Y,Y,,,,,F,20
0,11,11,183,1,['n'],N,['d'],N,Y,,,,,F,20
0,12,12,63,1,['y'],N,['d'],Y,Y,,,,,F,20
0,13,13,561,1,['n'],Y,['k'],N,Y,,,,,F,20
0,14,14,437,1,['n'],N,['k'],N,Y,,,,,F,20
0,15,15,149,1,['y'],N,['d'],Y,Y,,,,,F,20
0,16,16,362,1,['y'],Y,['k'],Y,Y,,,,,F,20
0,17,17,499,1,['y'],N,['k'],Y,Y,,,,,F,20
0,18,18,49,1,['n'],N,['d'],N,Y,,,,,F,20
0,19,19,217,1,['n'],N,['d'],N,Y,,,,,F,20
0,20,20,30,1,['n'],Y,['d'],Y,N,,,,,F,20
0,21,21,430,1,['y'],N,['k'],Y,Y,,,,,F,20
0,22,22,192,1,['n'],Y,['d'],Y,N,,,,,F,20
0,23,23,39,1,['n'],N,['d'],N,Y,,,,,F,20
0,24,24,291,1,['n'],N,['d'],Y,N,,,,,F,20
0,25,25,520,1,['y'],N,['k'],Y,Y,,,,,F,20
0,26,26,129,1,None,Timed out,,,,,,,,F,20
0,27,27,494,1,['n'],Y,['k'],Y,N,,,,,F,20
0,28,28,448,1,['n'],N,['k'],N,Y,,,,,F,20
0,29,29,449,1,['y'],Y,['k'],Y,Y,,,,,F,20
0,30,30,535,1,['n'],N,['k'],N,Y,,,,,F,20
0,31,31,103,1,['n'],Y,['d'],N,Y,,,,,F,20
0,32,32,435,1,['n'],N,['k'],N,Y,,,,,F,20
0,33,33,266,1,['y'],N,['d'],N,N,,,,,F,20
0,34,34,428,1,['y'],N,['k'],Y,Y,,,,,F,20
0,35,35,3,1,['n'],N,['d'],Y,N,,,,,F,20
0,36,36,472,1,['y'],Y,['k'],Y,Y,,,,,F,20
0,37,37,120,1,['n'],Y,['d'],Y,N,,,,,F,20
0,38,38,225,1,['n'],Y,['d'],N,Y,,,,,F,20
0,39,39,453,1,['n'],N,['k'],N,Y,,,,,F,20
0,40,40,352,1,['n'],N,['k'],Y,N,,,,,F,20
0,41,41,364,1,['n'],Y,['k'],N,Y,,,,,F,20
0,42,42,461,1,['y'],Y,['k'],Y,Y,,,,,F,20
0,43,43,7,1,['n'],Y,['d'],Y,N,,,,,F,20
0,44,44,98,1,['y'],Y,['d'],Y,Y,,,,,F,20
0,45,45,509,1,['y'],Y,['k'],Y,Y,,,,,F,20
0,46,46,483,1,['y'],Y,['k'],Y,Y,,,,,F,20
0,47,47,83,1,['y'],Y,['d'],Y,Y,,,,,F,20
0,48,48,306,1,['n'],Y,['k'],N,Y,,,,,F,20
0,49,49,239,1,['n'],Y,['d'],N,Y,24,,,,F,20
,,,,,,,,,,,,,,,
0,50,50,125,2,['y'],N,['d'],Y,Y,,,,,F,20
0,51,51,566,2,['n'],N,['k'],N,Y,,,,,F,20
0,52,52,390,2,['y'],N,['k'],Y,Y,,,,,F,20
0,53,53,368,2,['y'],Y,['k'],Y,Y,,,,,F,20
0,54,54,303,2,['y'],Y,['k'],Y,Y,,,,,F,20
0,55,55,474,2,['n'],Y,['k'],N,Y,,,,,F,20
0,56,56,168,2,['y'],N,['d'],Y,Y,,,,,F,20
0,57,57,186,2,['n'],Y,['d'],N,Y,,,,,F,20
0,58,58,214,2,['n'],N,['d'],N,Y,,,,,F,20
0,59,59,237,2,['n'],Y,['d'],N,Y,,,,,F,20
0,60,60,5,2,['n'],N,['d'],N,Y,,,,,F,20
0,61,61,50,2,['n'],N,['d'],N,Y,,,,,F,20
0,62,62,265,2,['y'],Y,['d'],Y,Y,,,,,F,20
0,63,63,252,2,['y'],Y,['d'],Y,Y,,,,,F,20
0,64,64,361,2,['y'],N,['k'],Y,Y,,,,,F,20
0,65,65,415,2,['n'],Y,['k'],N,Y,,,,,F,20
0,66,66,518,2,['n'],Y,['k'],N,Y,,,,,F,20
0,67,67,476,2,['y'],N,['k'],N,N,,,,,F,20
0,68,68,209,2,['y'],Y,['d'],Y,Y,,,,,F,20
0,69,69,481,2,['n'],Y,['k'],Y,N,,,,,F,20
0,70,70,96,2,['y'],Y,['d'],Y,Y,,,,,F,20
0,71,71,62,2,['y'],N,['d'],N,N,,,,,F,20
0,72,72,207,2,['n'],Y,['d'],N,Y,,,,,F,20
0,73,73,34,2,['n'],N,['d'],N,Y,,,,,F,20
0,74,74,586,2,['y'],Y,['k'],Y,Y,,,,,F,20
0,75,75,375,2,['n'],Y,['k'],Y,N,,,,,F,20
0,76,76,111,2,['n'],N,['d'],N,Y,,,,,F,20
0,77,77,477,2,['y'],N,['k'],Y,Y,,,,,F,20
0,78,78,104,2,['y'],N,['d'],Y,Y,,,,,F,20
0,79,79,37,2,['n'],N,['d'],N,Y,,,,,F,20
0,80,80,500,2,['y'],Y,['k'],Y,Y,,,,,F,20
0,81,81,216,2,['n'],N,['d'],N,Y,,,,,F,20
0,82,82,16,2,['n'],N,['d'],Y,N,,,,,F,20
0,83,83,231,2,['y'],N,['d'],Y,Y,,,,,F,20
0,84,84,587,2,['n'],N,['k'],Y,N,,,,,F,20
0,85,85,64,2,['n'],N,['d'],Y,N,,,,,F,20
0,86,86,245,2,['n'],Y,['d'],N,Y,,,,,F,20
0,87,87,584,2,['n'],Y,['k'],Y,N,,,,,F,20
0,88,88,327,2,['n'],N,['k'],N,Y,,,,,F,20
0,89,89,69,2,['n'],N,['d'],N,Y,,,,,F,20
0,90,90,112,2,['n'],Y,['d'],N,Y,,,,,F,20
0,91,91,263,2,['y'],N,['d'],Y,Y,,,,,F,20
0,92,92,254,2,['n'],Y,['d'],N,Y,,,,,F,20
0,93,93,280,2,['n'],N,['d'],N,Y,,,,,F,20
0,94,94,197,2,['y'],Y,['d'],Y,Y,,,,,F,20
0,95,95,15,2,['n'],N,['d'],N,Y,,,,,F,20
0,96,96,397,2,['y'],N,['k'],Y,Y,,,,,F,20
0,97,97,92,2,['y'],N,['d'],Y,Y,,,,,F,20
0,98,98,305,2,['y'],N,['k'],Y,Y,,,,,F,20
0,99,99,53,2,['n'],N,['d'],N,Y,21,,,,F,20
,,,,,,,,,,,,,,,
0,100,100,123,3,['y'],Y,['d'],Y,Y,,,,,F,20
0,101,101,487,3,['n'],N,['k'],N,Y,,,,,F,20
0,102,102,43,3,['y'],Y,['d'],Y,Y,,,,,F,20
0,103,103,271,3,['y'],Y,['d'],Y,Y,,,,,F,20
0,104,104,344,3,['n'],N,['k'],N,Y,,,,,F,20
0,105,105,193,3,['n'],N,['d'],N,Y,,,,,F,20
0,106,106,147,3,['n'],Y,['d'],N,Y,,,,,F,20
0,107,107,58,3,['y'],Y,['d'],Y,Y,,,,,F,20
0,108,108,91,3,['n'],Y,['d'],N,Y,,,,,F,20
0,109,109,596,3,['n'],N,['k'],N,Y,,,,,F,20
0,110,110,560,3,['n'],Y,['k'],N,Y,,,,,F,20
0,111,111,161,3,['n'],N,['d'],Y,N,,,,,F,20
0,112,112,388,3,['n'],Y,['k'],N,Y,,,,,F,20
0,113,113,73,3,['n'],N,['d'],N,Y,,,,,F,20
0,114,114,331,3,['n'],Y,['k'],N,Y,,,,,F,20
0,115,115,282,3,['n'],Y,['d'],Y,N,,,,,F,20
0,116,116,313,3,['n'],Y,['k'],N,Y,,,,,F,20
0,117,117,302,3,['n'],N,['k'],N,Y,,,,,F,20
0,118,118,493,3,['y'],Y,['k'],Y,Y,,,,,F,20
0,119,119,255,3,['y'],Y,['d'],Y,Y,,,,,F,20
0,120,120,359,3,['y'],N,['k'],Y,Y,,,,,F,20
0,121,121,504,3,['n'],Y,['k'],Y,N,,,,,F,20
0,122,122,575,3,['n'],Y,['k'],N,Y,,,,,F,20
0,123,123,595,3,['n'],N,['k'],N,Y,,,,,F,20
0,124,124,517,3,['n'],N,['k'],N,Y,,,,,F,20
0,125,125,480,3,['y'],Y,['k'],Y,Y,,,,,F,20
0,126,126,74,3,['n'],Y,['d'],N,Y,,,,,F,20
0,127,127,431,3,['y'],N,['k'],Y,Y,,,,,F,20
0,128,128,278,3,['n'],N,['d'],N,Y,,,,,F,20
0,129,129,531,3,['y'],Y,['k'],Y,Y,,,,,F,20
0,130,130,285,3,['y'],Y,['d'],Y,Y,,,,,F,20
0,131,131,339,3,['y'],N,['k'],Y,Y,,,,,F,20
0,132,132,569,3,['y'],Y,['k'],Y,Y,,,,,F,20
0,133,133,459,3,['y'],N,['k'],N,N,,,,,F,20
0,134,134,425,3,['y'],Y,['k'],N,N,,,,,F,20
0,135,135,77,3,['y'],Y,['d'],N,N,,,,,F,20
0,136,136,541,3,['n'],Y,['k'],N,Y,,,,,F,20
0,137,137,97,3,['y'],N,['d'],Y,Y,,,,,F,20
0,138,138,41,3,['n'],Y,['d'],N,Y,,,,,F,20
0,139,139,463,3,['n'],Y,['k'],N,Y,,,,,F,20
0,140,140,134,3,['n'],Y,['d'],Y,N,,,,,F,20
0,141,141,314,3,['y'],N,['k'],Y,Y,,,,,F,20
0,142,142,501,3,['y'],N,['k'],N,N,,,,,F,20
0,143,143,345,3,['y'],Y,['k'],Y,Y,,,,,F,20
0,144,144,33,3,['n'],N,['d'],N,Y,,,,,F,20
0,145,145,473,3,['n'],N,['k'],Y,N,,,,,F,20
0,146,146,259,3,['n'],N,['d'],Y,N,,,,,F,20
0,147,147,267,3,['n'],Y,['d'],N,Y,,,,,F,20
0,148,148,564,3,['n'],N,['k'],N,Y,,,,,F,20
0,149,149,385,3,['n'],Y,['k'],Y,N,29,,,,F,20
,,,,,,,,,,,,,,,
0,150,150,80,4,['y'],N,['d'],N,N,,,,,F,20
0,151,151,190,4,['y'],Y,['d'],Y,Y,,,,,F,20
0,152,152,556,4,['n'],Y,['k'],N,Y,,,,,F,20
0,153,153,201,4,['n'],N,['d'],N,Y,,,,,F,20
0,154,154,497,4,['n'],N,['k'],N,Y,,,,,F,20
0,155,155,350,4,['n'],Y,['k'],N,Y,,,,,F,20
0,156,156,212,4,['n'],Y,['d'],N,Y,,,,,F,20
0,157,157,300,4,['y'],Y,['k'],Y,Y,,,,,F,20
0,158,158,479,4,['y'],N,['k'],N,N,,,,,F,20
0,159,159,40,4,['y'],Y,['d'],Y,Y,,,,,F,20
0,160,160,533,4,['y'],Y,['k'],N,N,,,,,F,20
0,161,161,423,4,['n'],N,['k'],N,Y,,,,,F,20
0,162,162,42,4,['n'],N,['d'],N,Y,,,,,F,20
0,163,163,389,4,['n'],N,['k'],Y,N,,,,,F,20
0,164,164,443,4,['n'],N,['k'],Y,N,,,,,F,20
0,165,165,446,4,['n'],Y,['k'],N,Y,,,,,F,20
0,166,166,482,4,['n'],Y,['k'],Y,N,,,,,F,20
0,167,167,292,4,['n'],Y,['d'],N,Y,,,,,F,20
0,168,168,579,4,['n'],N,['k'],N,Y,,,,,F,20
0,169,169,594,4,['y'],N,['k'],Y,Y,,,,,F,20
0,170,170,29,4,['n'],Y,['d'],N,Y,,,,,F,20
0,171,171,355,4,['y'],Y,['k'],Y,Y,,,,,F,20
0,172,172,466,4,['n'],Y,['k'],N,Y,,,,,F,20
0,173,173,334,4,['n'],N,['k'],N,Y,,,,,F,20
0,174,174,31,4,['n'],N,['d'],Y,N,,,,,F,20
0,175,175,414,4,['y'],N,['k'],Y,Y,,,,,F,20
0,176,176,588,4,['n'],N,['k'],N,Y,,,,,F,20
0,177,177,550,4,['y'],N,['k'],Y,Y,,,,,F,20
0,178,178,4,4,['n'],N,['d'],N,Y,,,,,F,20
0,179,179,88,4,['n'],Y,['d'],Y,N,,,,,F,20
0,180,180,243,4,['n'],N,['d'],N,Y,,,,,F,20
0,181,181,492,4,['n'],N,['k'],N,Y,,,,,F,20
0,182,182,424,4,['n'],Y,['k'],N,Y,,,,,F,20
0,183,183,455,4,['n'],Y,['k'],N,Y,,,,,F,20
0,184,184,537,4,['n'],N,['k'],N,Y,,,,,F,20
0,185,185,597,4,['y'],Y,['k'],Y,Y,,,,,F,20
0,186,186,442,4,['n'],N,['k'],Y,N,,,,,F,20
0,187,187,513,4,['y'],Y,['k'],Y,Y,,,,,F,20
0,188,188,326,4,['y'],N,['k'],Y,Y,,,,,F,20
0,189,189,307,4,['y'],Y,['k'],Y,Y,,,,,F,20
0,190,190,340,4,['y'],Y,['k'],Y,Y,,,,,F,20
0,191,191,406,4,['y'],N,['k'],Y,Y,,,,,F,20
0,192,192,211,4,['n'],Y,['d'],N,Y,,,,,F,20
0,193,193,86,4,['y'],Y,['d'],Y,Y,,,,,F,20
0,194,194,130,4,['n'],Y,['d'],Y,N,,,,,F,20
0,195,195,247,4,['n'],Y,['d'],N,Y,,,,,F,20
0,196,196,290,4,['y'],N,['d'],Y,Y,,,,,F,20
0,197,197,532,4,['y'],Y,['k'],N,N,,,,,F,20
0,198,198,320,4,['n'],Y,['k'],N,Y,,,,,F,20
0,199,199,332,4,['n'],N,['k'],Y,N,26,,,,F,20
0,200,200,318,5,['n'],N,['k'],N,Y,,,,,F,20
0,201,201,366,5,['y'],Y,['k'],N,N,,,,,F,20
0,202,202,405,5,['y'],Y,['k'],N,N,,,,,F,20
0,203,203,113,5,['y'],N,['d'],Y,Y,,,,,F,20
0,204,204,582,5,['y'],Y,['k'],Y,Y,,,,,F,20
0,205,205,114,5,['y'],N,['d'],Y,Y,,,,,F,20
0,206,206,274,5,['n'],Y,['d'],N,Y,,,,,F,20
0,207,207,139,5,['y'],Y,['d'],Y,Y,,,,,F,20
0,208,208,539,5,['n'],Y,['k'],N,Y,,,,,F,20
0,209,209,84,5,['n'],N,['d'],Y,N,,,,,F,20
0,210,210,524,5,['n'],N,['k'],N,Y,,,,,F,20
0,211,211,65,5,['n'],N,['d'],N,Y,,,,,F,20
0,212,212,14,5,['y'],Y,['d'],Y,Y,,,,,F,20
0,213,213,51,5,['n'],Y,['d'],N,Y,,,,,F,20
0,214,214,589,5,['y'],Y,['k'],Y,Y,,,,,F,20
0,215,215,141,5,['y'],N,['d'],Y,Y,,,,,F,20
0,216,216,470,5,['y'],N,['k'],Y,Y,,,,,F,20
0,217,217,578,5,['y'],Y,['k'],Y,Y,,,,,F,20
0,218,218,342,5,['y'],Y,['k'],Y,Y,,,,,F,20
0,219,219,464,5,['n'],N,['k'],N,Y,,,,,F,20
0,220,220,67,5,['y'],N,['d'],Y,Y,,,,,F,20
0,221,221,205,5,['n'],Y,['d'],N,Y,,,,,F,20
0,222,222,351,5,['y'],Y,['k'],Y,Y,,,,,F,20
0,223,223,456,5,['n'],Y,['k'],N,Y,,,,,F,20
0,224,224,563,5,['n'],N,['k'],Y,N,,,,,F,20
0,225,225,507,5,['n'],N,['k'],N,Y,,,,,F,20
0,226,226,61,5,['y'],N,['d'],Y,Y,,,,,F,20
0,227,227,396,5,['n'],Y,['k'],N,Y,,,,,F,20
0,228,228,383,5,['n'],N,['k'],N,Y,,,,,F,20
0,229,229,108,5,['y'],N,['d'],Y,Y,,,,,F,20
0,230,230,468,5,['n'],Y,['k'],N,Y,,,,,F,20
0,231,231,221,5,['n'],N,['d'],N,Y,,,,,F,20
0,232,232,185,5,['y'],N,['d'],Y,Y,,,,,F,20
0,233,233,202,5,['y'],N,['d'],N,N,,,,,F,20
0,234,234,407,5,['y'],Y,['k'],Y,Y,,,,,F,20
0,235,235,195,5,['y'],Y,['d'],Y,Y,,,,,F,20
0,236,236,599,5,['y'],N,['k'],Y,Y,,,,,F,20
0,237,237,170,5,['y'],N,['d'],Y,Y,,,,,F,20
0,238,238,432,5,['y'],N,['k'],Y,Y,,,,,F,20
0,239,239,115,5,['y'],Y,['d'],N,N,,,,,F,20
0,240,240,555,5,['n'],Y,['k'],N,Y,,,,,F,20
0,241,241,109,5,['n'],Y,['d'],Y,N,,,,,F,20
0,242,242,310,5,['n'],Y,['k'],Y,N,,,,,F,20
0,243,243,196,5,['n'],N,['d'],N,Y,,,,,F,20
0,244,244,324,5,['n'],N,['k'],N,Y,,,,,F,20
0,245,245,451,5,['n'],Y,['k'],N,Y,,,,,F,20
0,246,246,478,5,['y'],Y,['k'],Y,Y,,,,,F,20
0,247,247,227,5,['y'],N,['d'],Y,Y,,,,,F,20
0,248,248,153,5,['y'],N,['d'],N,N,,,,,F,20
0,249,249,402,5,['n'],N,['k'],N,Y,24,,,,F,20
0,250,250,328,6,['n'],N,['k'],Y,N,,,,,F,20
0,251,251,68,6,['n'],N,['d'],Y,N,,,,,F,20
0,252,252,210,6,['n'],Y,['d'],N,Y,,,,,F,20
0,253,253,132,6,['n'],Y,['d'],N,Y,,,,,F,20
0,254,254,166,6,['n'],N,['d'],N,Y,,,,,F,20
0,255,255,304,6,['y'],N,['k'],Y,Y,,,,,F,20
0,256,256,11,6,['n'],N,['d'],Y,N,,,,,F,20
0,257,257,162,6,['n'],N,['d'],N,Y,,,,,F,20
0,258,258,341,6,['y'],N,['k'],Y,Y,,,,,F,20
0,259,259,22,6,['n'],Y,['d'],Y,N,,,,,F,20
0,260,260,124,6,['n'],N,['d'],Y,N,,,,,F,20
0,261,261,262,6,['n'],Y,['d'],Y,N,,,,,F,20
0,262,262,169,6,['n'],N,['d'],N,Y,,,,,F,20
0,263,263,395,6,['n'],N,['k'],N,Y,,,,,F,20
0,264,264,256,6,['n'],N,['d'],Y,N,,,,,F,20
0,265,265,122,6,['y'],Y,['d'],N,N,,,,,F,20
0,266,266,184,6,['n'],Y,['d'],N,Y,,,,,F,20
0,267,267,25,6,['n'],N,['d'],N,Y,,,,,F,20
0,268,268,182,6,['y'],Y,['d'],Y,Y,,,,,F,20
0,269,269,238,6,['n'],N,['d'],N,Y,,,,,F,20
0,270,270,38,6,['n'],Y,['d'],Y,N,,,,,F,20
0,271,271,484,6,['y'],N,['k'],Y,Y,,,,,F,20
0,272,272,506,6,['n'],N,['k'],N,Y,,,,,F,20
0,273,273,279,6,['y'],N,['d'],Y,Y,,,,,F,20
0,274,274,354,6,['n'],N,['k'],N,Y,,,,,F,20
0,275,275,56,6,['n'],N,['d'],N,Y,,,,,F,20
0,276,276,369,6,['n'],Y,['k'],N,Y,,,,,F,20
0,277,277,387,6,['n'],Y,['k'],N,Y,,,,,F,20
0,278,278,118,6,['n'],Y,['d'],N,Y,,,,,F,20
0,279,279,374,6,['y'],Y,['k'],N,N,,,,,F,20
0,280,280,156,6,['y'],N,['d'],N,N,,,,,F,20
0,281,281,233,6,['y'],Y,['d'],Y,Y,,,,,F,20
0,282,282,521,6,['n'],N,['k'],Y,N,,,,,F,20
0,283,283,540,6,['y'],Y,['k'],N,N,,,,,F,20
0,284,284,427,6,['n'],Y,['k'],Y,N,,,,,F,20
0,285,285,119,6,['n'],N,['d'],Y,N,,,,,F,20
0,286,286,433,6,['n'],N,['k'],N,Y,,,,,F,20
0,287,287,416,6,['y'],Y,['k'],N,N,,,,,F,20
0,288,288,574,6,['y'],N,['k'],Y,Y,,,,,F,20
0,289,289,503,6,['y'],N,['k'],Y,Y,,,,,F,20
0,290,290,330,6,['y'],Y,['k'],N,N,,,,,F,20
0,291,291,194,6,['n'],Y,['d'],Y,N,,,,,F,20
0,292,292,376,6,['n'],N,['k'],N,Y,,,,,F,20
0,293,293,583,6,['n'],Y,['k'],N,Y,,,,,F,20
0,294,294,392,6,['n'],N,['k'],N,Y,,,,,F,20
0,295,295,323,6,['n'],Y,['k'],N,Y,,,,,F,20
0,296,296,213,6,['n'],Y,['d'],Y,N,,,,,F,20
0,297,297,543,6,['n'],Y,['k'],N,Y,,,,,F,20
0,298,298,398,6,['n'],Y,['k'],Y,N,,,,,F,20
0,299,299,235,6,['y'],Y,['d'],Y,Y,24,,,,F,20
0,300,300,277,7,['n'],Y,['d'],N,Y,,,,,F,20
0,301,301,26,7,['n'],N,['d'],Y,N,,,,,F,20
0,302,302,576,7,['y'],N,['k'],Y,Y,,,,,F,20
0,303,303,393,7,['y'],N,['k'],Y,Y,,,,,F,20
0,304,304,444,7,['n'],N,['k'],N,Y,,,,,F,20
0,305,305,240,7,['y'],Y,['d'],Y,Y,,,,,F,20
0,306,306,311,7,['y'],Y,['k'],Y,Y,,,,,F,20
0,307,307,260,7,['n'],Y,['d'],N,Y,,,,,F,20
0,308,308,413,7,['y'],Y,['k'],Y,Y,,,,,F,20
0,309,309,371,7,['n'],N,['k'],N,Y,,,,,F,20
0,310,310,152,7,['y'],N,['d'],Y,Y,,,,,F,20
0,311,311,496,7,['y'],N,['k'],Y,Y,,,,,F,20
0,312,312,47,7,['y'],N,['d'],Y,Y,,,,,F,20
0,313,313,475,7,['n'],Y,['k'],N,Y,,,,,F,20
0,314,314,421,7,['y'],Y,['k'],Y,Y,,,,,F,20
0,315,315,337,7,['y'],Y,['k'],Y,Y,,,,,F,20
0,316,316,441,7,['y'],N,['k'],Y,Y,,,,,F,20
0,317,317,495,7,['y'],Y,['k'],N,N,,,,,F,20
0,318,318,272,7,['y'],Y,['d'],Y,Y,,,,,F,20
0,319,319,0,7,['y'],N,['d'],N,N,,,,,F,20
0,320,320,95,7,['n'],N,['d'],N,Y,,,,,F,20
0,321,321,529,7,['n'],N,['k'],N,Y,,,,,F,20
0,322,322,581,7,['n'],N,['k'],N,Y,,,,,F,20
0,323,323,356,7,['y'],N,['k'],Y,Y,,,,,F,20
0,324,324,525,7,['n'],Y,['k'],N,Y,,,,,F,20
0,325,325,160,7,['n'],N,['d'],N,Y,,,,,F,20
0,326,326,562,7,['n'],Y,['k'],Y,N,,,,,F,20
0,327,327,154,7,['n'],Y,['d'],N,Y,,,,,F,20
0,328,328,381,7,['n'],N,['k'],N,Y,,,,,F,20
0,329,329,127,7,['y'],N,['d'],Y,Y,,,,,F,20
0,330,330,438,7,['y'],Y,['k'],Y,Y,,,,,F,20
0,331,331,565,7,['n'],N,['k'],N,Y,,,,,F,20
0,332,332,179,7,['y'],Y,['d'],Y,Y,,,,,F,20
0,333,333,333,7,['y'],Y,['k'],Y,Y,,,,,F,20
0,334,334,175,7,['y'],Y,['d'],Y,Y,,,,,F,20
0,335,335,107,7,['y'],N,['d'],Y,Y,,,,,F,20
0,336,336,220,7,['y'],Y,['d'],Y,Y,,,,,F,20
0,337,337,516,7,['y'],N,['k'],Y,Y,,,,,F,20
0,338,338,54,7,['n'],Y,['d'],N,Y,,,,,F,20
0,339,339,9,7,['y'],Y,['d'],N,N,,,,,F,20
0,340,340,79,7,['y'],N,['d'],Y,Y,,,,,F,20
0,341,341,519,7,['y'],N,['k'],Y,Y,,,,,F,20
0,342,342,409,7,None,Timed out,,,,,,,,F,20
0,343,343,299,7,['y'],Y,['d'],Y,Y,,,,,F,20
0,344,344,514,7,['y'],N,['k'],Y,Y,,,,,F,20
0,345,345,401,7,['y'],Y,['k'],Y,Y,,,,,F,20
0,346,346,151,7,['n'],Y,['d'],N,Y,,,,,F,20
0,347,347,523,7,['n'],Y,['k'],N,Y,,,,,F,20
0,348,348,571,7,['n'],N,['k'],N,Y,,,,,F,20
0,349,349,167,7,['n'],Y,['d'],N,Y,25,,,,F,20
0,350,350,222,8,['n'],Y,['d'],N,Y,,,,,F,20
0,351,351,554,8,['n'],N,['k'],N,Y,,,,,F,20
0,352,352,230,8,['n'],N,['d'],N,Y,,,,,F,20
0,353,353,138,8,['n'],N,['d'],Y,N,,,,,F,20
0,354,354,52,8,['y'],Y,['d'],Y,Y,,,,,F,20
0,355,355,288,8,['n'],Y,['d'],N,Y,,,,,F,20
0,356,356,242,8,['y'],Y,['d'],Y,Y,,,,,F,20
0,357,357,585,8,['y'],Y,['k'],Y,Y,,,,,F,20
0,358,358,199,8,['y'],Y,['d'],Y,Y,,,,,F,20
0,359,359,452,8,['y'],N,['k'],Y,Y,,,,,F,20
0,360,360,32,8,['y'],Y,['d'],N,N,,,,,F,20
0,361,361,293,8,['y'],Y,['d'],Y,Y,,,,,F,20
0,362,362,215,8,['y'],N,['d'],Y,Y,,,,,F,20
0,363,363,502,8,['n'],Y,['k'],Y,N,,,,,F,20
0,364,364,142,8,['n'],Y,['d'],N,Y,,,,,F,20
0,365,365,284,8,['n'],N,['d'],N,Y,,,,,F,20
0,366,366,143,8,['n'],Y,['d'],N,Y,,,,,F,20
0,367,367,549,8,['n'],Y,['k'],N,Y,,,,,F,20
0,368,368,546,8,['n'],N,['k'],N,Y,,,,,F,20
0,369,369,178,8,['n'],N,['d'],N,Y,,,,,F,20
0,370,370,188,8,['y'],Y,['d'],Y,Y,,,,,F,20
0,371,371,224,8,['y'],Y,['d'],Y,Y,,,,,F,20
0,372,372,527,8,['y'],N,['k'],Y,Y,,,,,F,20
0,373,373,174,8,['y'],N,['d'],Y,Y,,,,,F,20
0,374,374,568,8,['n'],N,['k'],N,Y,,,,,F,20
0,375,375,346,8,['n'],Y,['k'],N,Y,,,,,F,20
0,376,376,60,8,['n'],N,['d'],Y,N,,,,,F,20
0,377,377,349,8,['n'],N,['k'],N,Y,,,,,F,20
0,378,378,191,8,['n'],N,['d'],Y,N,,,,,F,20
0,379,379,219,8,['n'],Y,['d'],Y,N,,,,,F,20
0,380,380,394,8,['y'],Y,['k'],Y,Y,,,,,F,20
0,381,381,226,8,['y'],N,['d'],Y,Y,,,,,F,20
0,382,382,488,8,['y'],N,['k'],N,N,,,,,F,20
0,383,383,223,8,['y'],Y,['d'],Y,Y,,,,,F,20
0,384,384,590,8,['y'],N,['k'],Y,Y,,,,,F,20
0,385,385,598,8,['n'],N,['k'],N,Y,,,,,F,20
0,386,386,491,8,['n'],Y,['k'],N,Y,,,,,F,20
0,387,387,592,8,['n'],Y,['k'],Y,N,,,,,F,20
0,388,388,572,8,['y'],Y,['k'],Y,Y,,,,,F,20
0,389,389,573,8,['n'],N,['k'],Y,N,,,,,F,20
0,390,390,99,8,['n'],N,['d'],N,Y,,,,,F,20
0,391,391,335,8,['n'],N,['k'],N,Y,,,,,F,20
0,392,392,557,8,['n'],N,['k'],N,Y,,,,,F,20
0,393,393,172,8,['n'],Y,['d'],N,Y,,,,,F,20
0,394,394,329,8,['n'],Y,['k'],N,Y,,,,,F,20
0,395,395,570,8,['n'],N,['k'],N,Y,,,,,F,20
0,396,396,261,8,['n'],N,['d'],Y,N,,,,,F,20
0,397,397,399,8,['y'],Y,['k'],Y,Y,,,,,F,20
0,398,398,121,8,['y'],Y,['d'],Y,Y,,,,,F,20
0,399,399,258,8,['n'],Y,['d'],N,Y,26,,,,F,20
0,400,400,157,9,['y'],Y,['d'],Y,Y,,,,,F,20
0,401,401,316,9,['y'],N,['k'],Y,Y,,,,,F,20
0,402,402,228,9,['y'],N,['d'],Y,Y,,,,,F,20
0,403,403,522,9,['n'],N,['k'],N,Y,,,,,F,20
0,404,404,44,9,['n'],Y,['d'],N,Y,,,,,F,20
0,405,405,360,9,['y'],Y,['k'],Y,Y,,,,,F,20
0,406,406,510,9,['y'],N,['k'],Y,Y,,,,,F,20
0,407,407,131,9,['y'],Y,['d'],N,N,,,,,F,20
0,408,408,400,9,['y'],Y,['k'],N,N,,,,,F,20
0,409,409,268,9,['n'],N,['d'],N,Y,,,,,F,20
0,410,410,420,9,['n'],N,['k'],N,Y,,,,,F,20
0,411,411,6,9,['n'],N,['d'],N,Y,,,,,F,20
0,412,412,218,9,['n'],Y,['d'],N,Y,,,,,F,20
0,413,413,27,9,['n'],N,['d'],N,Y,,,,,F,20
0,414,414,294,9,['y'],N,['d'],N,N,,,,,F,20
0,415,415,45,9,['n'],N,['d'],N,Y,,,,,F,20
0,416,416,72,9,['n'],Y,['d'],N,Y,,,,,F,20
0,417,417,102,9,['n'],N,['d'],N,Y,,,,,F,20
0,418,418,319,9,['n'],Y,['k'],N,Y,,,,,F,20
0,419,419,309,9,['n'],N,['k'],Y,N,,,,,F,20
0,420,420,165,9,['n'],N,['d'],N,Y,,,,,F,20
0,421,421,490,9,['n'],Y,['k'],N,Y,,,,,F,20
0,422,422,176,9,['n'],Y,['d'],N,Y,,,,,F,20
0,423,423,321,9,['n'],Y,['k'],N,Y,,,,,F,20
0,424,424,312,9,['y'],Y,['k'],Y,Y,,,,,F,20
0,425,425,164,9,['y'],Y,['d'],Y,Y,,,,,F,20
0,426,426,528,9,['n'],Y,['k'],N,Y,,,,,F,20
0,427,427,508,9,['n'],N,['k'],N,Y,,,,,F,20
0,428,428,1,9,['n'],N,['d'],Y,N,,,,,F,20
0,429,429,380,9,['n'],N,['k'],N,Y,,,,,F,20
0,430,430,417,9,['n'],N,['k'],Y,N,,,,,F,20
0,431,431,189,9,['n'],N,['d'],N,Y,,,,,F,20
0,432,432,10,9,['n'],N,['d'],N,Y,,,,,F,20
0,433,433,70,9,['n'],Y,['d'],Y,N,,,,,F,20
0,434,434,57,9,['n'],Y,['d'],N,Y,,,,,F,20
0,435,435,536,9,['y'],Y,['k'],Y,Y,,,,,F,20
0,436,436,116,9,['y'],N,['d'],Y,Y,,,,,F,20
0,437,437,440,9,['n'],N,['k'],N,Y,,,,,F,20
0,438,438,128,9,['n'],N,['d'],N,Y,,,,,F,20
0,439,439,353,9,['y'],Y,['k'],Y,Y,,,,,F,20
0,440,440,236,9,['n'],N,['d'],Y,N,,,,,F,20
0,441,441,241,9,['y'],Y,['d'],N,N,,,,,F,20
0,442,442,244,9,['n'],Y,['d'],N,Y,,,,,F,20
0,443,443,343,9,['n'],N,['k'],Y,N,,,,,F,20
0,444,444,198,9,['y'],Y,['d'],Y,Y,,,,,F,20
0,445,445,105,9,['n'],Y,['d'],N,Y,,,,,F,20
0,446,446,234,9,['y'],N,['d'],Y,Y,,,,,F,20
0,447,447,372,9,['n'],N,['k'],Y,N,,,,,F,20
0,448,448,348,9,['y'],Y,['k'],Y,Y,,,,,F,20
0,449,449,206,9,['n'],Y,['d'],N,Y,24,,,,F,20
0,450,450,295,10,['y'],N,['d'],Y,Y,,,,,F,20
0,451,451,411,10,['n'],N,['k'],N,Y,,,,,F,20
0,452,452,418,10,['n'],Y,['k'],Y,N,,,,,F,20
0,453,453,530,10,['y'],N,['k'],Y,Y,,,,,F,20
0,454,454,460,10,['y'],N,['k'],Y,Y,,,,,F,20
0,455,455,229,10,['n'],Y,['d'],N,Y,,,,,F,20
0,456,456,591,10,['y'],Y,['k'],Y,Y,,,,,F,20
0,457,457,181,10,['y'],Y,['d'],Y,Y,,,,,F,20
0,458,458,287,10,['y'],N,['d'],Y,Y,,,,,F,20
0,459,459,347,10,['y'],N,['k'],Y,Y,,,,,F,20
0,460,460,357,10,['y'],N,['k'],Y,Y,,,,,F,20
0,461,461,19,10,['y'],N,['d'],Y,Y,,,,,F,20
0,462,462,338,10,['n'],N,['k'],N,Y,,,,,F,20
0,463,463,577,10,['n'],Y,['k'],N,Y,,,,,F,20
0,464,464,46,10,['y'],Y,['d'],Y,Y,,,,,F,20
0,465,465,146,10,['n'],N,['d'],N,Y,,,,,F,20
0,466,466,558,10,['y'],N,['k'],Y,Y,,,,,F,20
0,467,467,422,10,['n'],N,['k'],N,Y,,,,,F,20
0,468,468,171,10,['y'],N,['d'],Y,Y,,,,,F,20
0,469,469,8,10,['n'],N,['d'],N,Y,,,,,F,20
0,470,470,336,10,['n'],N,['k'],N,Y,,,,,F,20
0,471,471,13,10,['n'],Y,['d'],N,Y,,,,,F,20
0,472,472,106,10,['n'],N,['d'],N,Y,,,,,F,20
0,473,473,155,10,['y'],Y,['d'],Y,Y,,,,,F,20
0,474,474,552,10,['n'],N,['k'],N,Y,,,,,F,20
0,475,475,512,10,['n'],Y,['k'],N,Y,,,,,F,20
0,476,476,511,10,['n'],N,['k'],N,Y,,,,,F,20
0,477,477,298,10,['y'],Y,['d'],Y,Y,,,,,F,20
0,478,478,89,10,['n'],Y,['d'],N,Y,,,,,F,20
0,479,479,203,10,['y'],Y,['d'],Y,Y,,,,,F,20
0,480,480,386,10,['y'],N,['k'],Y,Y,,,,,F,20
0,481,481,136,10,['n'],N,['d'],Y,N,,,,,F,20
0,482,482,110,10,['y'],N,['d'],Y,Y,,,,,F,20
0,483,483,419,10,['n'],Y,['k'],N,Y,,,,,F,20
0,484,484,81,10,['n'],Y,['d'],N,Y,,,,,F,20
0,485,485,462,10,['y'],N,['k'],Y,Y,,,,,F,20
0,486,486,204,10,['n'],Y,['d'],N,Y,,,,,F,20
0,487,487,301,10,['y'],Y,['k'],Y,Y,,,,,F,20
0,488,488,158,10,['y'],N,['d'],Y,Y,,,,,F,20
0,489,489,135,10,['y'],N,['d'],Y,Y,,,,,F,20
0,490,490,377,10,['y'],N,['k'],Y,Y,,,,,F,20
0,491,491,187,10,['n'],Y,['d'],N,Y,,,,,F,20
0,492,492,296,10,['n'],Y,['d'],N,Y,,,,,F,20
0,493,493,465,10,['n'],Y,['k'],N,Y,,,,,F,20
0,494,494,315,10,['n'],N,['k'],N,Y,,,,,F,20
0,495,495,248,10,['n'],Y,['d'],N,Y,,,,,F,20
0,496,496,515,10,['y'],Y,['k'],Y,Y,,,,,F,20
0,497,497,593,10,['n'],N,['k'],N,Y,,,,,F,20
0,498,498,559,10,['y'],Y,['k'],Y,Y,,,,,F,20
0,499,499,2,10,['n'],Y,['d'],N,Y,23,,,,F,20
0,500,500,458,11,['y'],N,['k'],Y,Y,,Y,Y,Y,F,20
0,501,501,71,11,['y'],N,['d'],Y,Y,,,Y,Y,F,20
0,502,502,404,11,['y'],Y,['k'],Y,Y,,,Y,Y,F,20
0,503,503,76,11,['y'],Y,['d'],Y,Y,,,Y,Y,F,20
0,504,504,445,11,['y'],Y,['k'],Y,Y,,,Y,Y,F,20
0,505,505,159,11,['y'],Y,['d'],Y,Y,,,Y,Y,F,20
0,506,506,485,11,None,Timed out,,,,,,Y,Y,F,20
0,507,507,269,11,['y'],Y,['d'],Y,Y,,,Y,Y,F,20
0,508,508,140,11,['y'],N,['d'],Y,Y,,,Y,Y,F,20
0,509,509,270,11,['n'],Y,['d'],N,Y,,,Y,Y,F,20
0,510,510,489,11,['y'],N,['k'],Y,Y,,,Y,Y,F,20
0,511,511,150,11,['n'],N,['d'],N,Y,,,Y,Y,F,20
0,512,512,426,11,['y'],Y,['k'],Y,Y,,,Y,Y,F,20
0,513,513,469,11,['y'],N,['k'],Y,Y,,,Y,Y,F,20
0,514,514,551,11,['y'],N,['k'],Y,Y,,,Y,Y,F,20
0,515,515,471,11,['n'],Y,['k'],Y,N,,,Y,Y,F,20
0,516,516,526,11,None,Timed out,,,,,,Y,Y,F,20
0,517,517,48,11,['n'],Y,['d'],N,Y,,,Y,Y,F,20
0,518,518,264,11,['n'],Y,['d'],N,Y,,,Y,Y,F,20
0,519,519,85,11,['n'],Y,['d'],Y,N,,,Y,Y,F,20
0,520,520,24,11,['n'],N,['d'],Y,N,,,Y,Y,F,20
0,521,521,286,11,['y'],Y,['d'],Y,Y,,,Y,Y,F,20
0,522,522,21,11,['n'],Y,['d'],N,Y,,,Y,Y,F,20
0,523,523,498,11,['n'],Y,['k'],N,Y,,,Y,Y,F,20
0,524,524,200,11,['y'],Y,['d'],Y,Y,,,Y,Y,F,20
0,525,525,289,11,['n'],N,['d'],N,Y,,,Y,Y,F,20
0,526,526,547,11,['n'],N,['k'],N,Y,,,Y,Y,F,20
0,527,527,94,11,['n'],N,['d'],N,Y,,,Y,Y,F,20
0,528,528,257,11,['y'],N,['d'],Y,Y,,,Y,Y,F,20
0,529,529,467,11,['n'],Y,['k'],N,Y,,,Y,Y,F,20
0,530,530,281,11,['n'],Y,['d'],N,Y,,,Y,Y,F,20
0,531,531,180,11,['n'],N,['d'],N,Y,,,Y,Y,F,20
0,532,532,412,11,['y'],Y,['k'],Y,Y,,,Y,Y,F,20
0,533,533,434,11,['y'],N,['k'],N,N,,,Y,Y,F,20
0,534,534,273,11,['n'],Y,['d'],N,Y,,,Y,Y,F,20
0,535,535,78,11,['y'],N,['d'],Y,Y,,,Y,Y,F,20
0,536,536,100,11,None,Timed out,,,,,,Y,Y,F,20
0,537,537,249,11,None,Timed out,,,,,,Y,Y,F,20
0,538,538,580,11,['n'],N,['k'],N,Y,,,Y,Y,F,20
0,539,539,90,11,['n'],Y,['d'],Y,N,,,Y,Y,F,20
0,540,540,553,11,['y'],Y,['k'],Y,Y,,,Y,Y,F,20
0,541,541,12,11,['n'],Y,['d'],N,Y,,,Y,Y,F,20
0,542,542,379,11,['n'],Y,['k'],N,Y,,,Y,Y,F,20
0,543,543,133,11,['y'],Y,['d'],Y,Y,,,Y,Y,F,20
0,544,544,322,11,['n'],N,['k'],N,Y,,,Y,Y,F,20
0,545,545,365,11,['n'],Y,['k'],N,Y,,,Y,Y,F,20
0,546,546,275,11,['y'],Y,['d'],Y,Y,,,Y,Y,F,20
0,547,547,384,11,['n'],Y,['k'],N,Y,,,Y,Y,F,20
0,548,548,93,11,['n'],N,['d'],N,Y,,,Y,Y,F,20
0,549,549,370,11,['n'],Y,['k'],Y,N,28,,Y,Y,F,20
0,550,550,144,12,['n'],Y,['d'],N,Y,,,Y,Y,F,20
0,551,551,23,12,['n'],Y,['d'],N,Y,,,Y,Y,F,20
0,552,552,358,12,['y'],Y,['k'],Y,Y,,,Y,Y,F,20
0,553,553,75,12,['y'],Y,['d'],Y,Y,,,Y,Y,F,20
0,554,554,177,12,['y'],Y,['d'],Y,Y,,,Y,Y,F,20
0,555,555,173,12,['n'],N,['d'],N,Y,,,Y,Y,F,20
0,556,556,117,12,['y'],Y,['d'],Y,Y,,,Y,Y,F,20
0,557,557,55,12,['n'],Y,['d'],N,Y,,,Y,Y,F,20
0,558,558,308,12,['n'],N,['k'],N,Y,,,Y,Y,F,20
0,559,559,410,12,['y'],N,['k'],Y,Y,,,Y,Y,F,20
0,560,560,544,12,['y'],N,['k'],Y,Y,,,Y,Y,F,20
0,561,561,20,12,['n'],Y,['d'],N,Y,,,Y,Y,F,20
0,562,562,457,12,['y'],Y,['k'],N,N,,,Y,Y,F,20
0,563,563,297,12,['y'],Y,['d'],Y,Y,,,Y,Y,F,20
0,564,564,17,12,['n'],Y,['d'],Y,N,,,Y,Y,F,20
0,565,565,403,12,['n'],Y,['k'],N,Y,,,Y,Y,F,20
0,566,566,505,12,['n'],Y,['k'],N,Y,,,Y,Y,F,20
0,567,567,534,12,['y'],N,['k'],Y,Y,,,Y,Y,F,20
0,568,568,283,12,['n'],N,['d'],N,Y,,,Y,Y,F,20
0,569,569,208,12,['n'],N,['d'],N,Y,,,Y,Y,F,20
0,570,570,250,12,['n'],Y,['d'],N,Y,,,Y,Y,F,20
0,571,571,373,12,['n'],N,['k'],N,Y,,,Y,Y,F,20
0,572,572,378,12,['y'],N,['k'],Y,Y,,,Y,Y,F,20
0,573,573,66,12,['n'],Y,['d'],N,Y,,,Y,Y,F,20
0,574,574,163,12,['y'],N,['d'],Y,Y,,,Y,Y,F,20
0,575,575,454,12,['n'],N,['k'],N,Y,,,Y,Y,F,20
0,576,576,538,12,['n'],N,['k'],N,Y,,,Y,Y,F,20
0,577,577,251,12,['y'],Y,['d'],Y,Y,,,Y,Y,F,20
0,578,578,253,12,['y'],N,['d'],Y,Y,,,Y,Y,F,20
0,579,579,447,12,['y'],Y,['k'],Y,Y,,,Y,Y,F,20
0,580,580,545,12,['y'],N,['k'],Y,Y,,,Y,Y,F,20
0,581,581,391,12,['y'],Y,['k'],Y,Y,,,Y,Y,F,20
0,582,582,137,12,['n'],Y,['d'],N,Y,,,Y,Y,F,20
0,583,583,36,12,['y'],N,['d'],Y,Y,,,Y,Y,F,20
0,584,584,486,12,['n'],N,['k'],N,Y,,,Y,Y,F,20
0,585,585,145,12,['y'],Y,['d'],Y,Y,,,Y,Y,F,20
0,586,586,276,12,['n'],Y,['d'],N,Y,,,Y,Y,F,20
0,587,587,18,12,['y'],N,['d'],Y,Y,,,Y,Y,F,20
0,588,588,82,12,['n'],Y,['d'],N,Y,,,Y,Y,F,20
0,589,589,87,12,['y'],N,['d'],Y,Y,,,Y,Y,F,20
0,590,590,246,12,['n'],Y,['d'],N,Y,,,Y,Y,F,20
0,591,591,126,12,['y'],Y,['d'],Y,Y,,,Y,Y,F,20
0,592,592,567,12,['y'],Y,['k'],Y,Y,,,Y,Y,F,20
0,593,593,317,12,['y'],N,['k'],Y,Y,,,Y,Y,F,20
0,594,594,367,12,['n'],Y,['k'],Y,N,,,Y,Y,F,20
0,595,595,363,12,['n'],N,['k'],N,Y,,,Y,Y,F,20
0,596,596,382,12,['y'],N,['k'],Y,Y,,,Y,Y,F,20
0,597,597,101,12,['n'],N,['d'],N,Y,,,Y,Y,F,20
0,598,598,59,12,['n'],Y,['d'],N,Y,,,Y,Y,F,20
0,599,599,542,12,['n'],N,['k'],N,Y,27,,Y,Y,F,20
