.thisRepN,.thisTrialN,.thisN,.thisIndex,Block Number,Key pressed,Category,Correct?,Button switch shown?,Actually switched?,Fast?,gender,age
0,0,0,100,1,['k'],['d'],N,,,,M,19
0,1,1,496,1,['k'],['k'],Y,,,,M,19
0,2,2,149,1,['k'],['d'],N,,,,M,19
0,3,3,555,1,['k'],['k'],Y,,,,M,19
0,4,4,394,1,['d'],['k'],N,,,,M,19
0,5,5,372,1,['k'],['k'],Y,,,,M,19
0,6,6,422,1,['k'],['k'],Y,,,,M,19
0,7,7,581,1,['k'],['k'],Y,,,,M,19
0,8,8,525,1,['k'],['k'],Y,,,,M,19
0,9,9,196,1,['k'],['d'],N,,,,M,19
0,10,10,123,1,['d'],['d'],Y,,,,M,19
0,11,11,272,1,['d'],['d'],Y,,,,M,19
0,12,12,335,1,['k'],['k'],Y,,,,M,19
0,13,13,4,1,['d'],['d'],Y,,,,M,19
0,14,14,434,1,['d'],['k'],N,,,,M,19
0,15,15,38,1,['k'],['d'],N,,,,M,19
0,16,16,313,1,['k'],['k'],Y,,,,M,19
0,17,17,248,1,['d'],['d'],Y,,,,M,19
0,18,18,560,1,['d'],['k'],N,,,,M,19
0,19,19,80,1,['k'],['d'],N,,,,M,19
0,20,20,166,1,['k'],['d'],N,,,,M,19
0,21,21,426,1,['k'],['k'],Y,,,,M,19
0,22,22,271,1,['d'],['d'],Y,,,,M,19
0,23,23,185,1,['d'],['d'],Y,,,,M,19
0,24,24,251,1,['k'],['d'],N,,,,M,19
0,25,25,158,1,['d'],['d'],Y,,,,M,19
0,26,26,122,1,['d'],['d'],Y,,,,M,19
0,27,27,505,1,['d'],['k'],N,,,,M,19
0,28,28,41,1,['d'],['d'],Y,,,,M,19
0,29,29,228,1,['d'],['d'],Y,,,,M,19
0,30,30,362,1,['d'],['k'],N,,,,M,19
0,31,31,598,1,['k'],['k'],Y,,,,M,19
0,32,32,169,1,['d'],['d'],Y,,,,M,19
0,33,33,428,1,['k'],['k'],Y,,,,M,19
0,34,34,580,1,['d'],['k'],N,,,,M,19
0,35,35,225,1,['d'],['d'],Y,,,,M,19
0,36,36,575,1,['k'],['k'],Y,,,,M,19
0,37,37,280,1,['d'],['d'],Y,,,,M,19
0,38,38,202,1,['k'],['d'],N,,,,M,19
0,39,39,486,1,['k'],['k'],Y,,,,M,19
0,40,40,93,1,['d'],['d'],Y,,,,M,19
0,41,41,209,1,['k'],['d'],N,,,,M,19
0,42,42,586,1,['d'],['k'],N,,,,M,19
0,43,43,534,1,['k'],['k'],Y,,,,M,19
0,44,44,437,1,['k'],['k'],Y,,,,M,19
0,45,45,554,1,['k'],['k'],Y,,,,M,19
0,46,46,26,1,['k'],['d'],N,,,,M,19
0,47,47,337,1,['d'],['k'],N,,,,M,19
0,48,48,168,1,['k'],['d'],N,,,,M,19
0,49,49,452,1,['k'],['k'],Y,,,,M,19
,,,,,,,"31, 19",,,,,
0,50,50,112,2,['k'],['d'],N,,,,M,19
0,51,51,352,2,['k'],['k'],Y,,,,M,19
0,52,52,559,2,['k'],['k'],Y,,,,M,19
0,53,53,117,2,['d'],['d'],Y,,,,M,19
0,54,54,543,2,['d'],['k'],N,,,,M,19
0,55,55,187,2,['k'],['d'],N,,,,M,19
0,56,56,15,2,['k'],['d'],N,,,,M,19
0,57,57,43,2,['k'],['d'],N,,,,M,19
0,58,58,495,2,['d'],['k'],N,,,,M,19
0,59,59,447,2,['d'],['k'],N,,,,M,19
0,60,60,199,2,['d'],['d'],Y,,,,M,19
0,61,61,509,2,['k'],['k'],Y,,,,M,19
0,62,62,424,2,['k'],['k'],Y,,,,M,19
0,63,63,127,2,['d'],['d'],Y,,,,M,19
0,64,64,81,2,['d'],['d'],Y,,,,M,19
0,65,65,539,2,['k'],['k'],Y,,,,M,19
0,66,66,480,2,['k'],['k'],Y,,,,M,19
0,67,67,327,2,['d'],['k'],N,,,,M,19
0,68,68,371,2,['d'],['k'],N,,,,M,19
0,69,69,22,2,['k'],['d'],N,,,,M,19
0,70,70,221,2,['d'],['d'],Y,,,,M,19
0,71,71,305,2,['k'],['k'],Y,,,,M,19
0,72,72,49,2,['k'],['d'],N,,,,M,19
0,73,73,229,2,['k'],['d'],N,,,,M,19
0,74,74,325,2,['d'],['k'],N,,,,M,19
0,75,75,34,2,['d'],['d'],Y,,,,M,19
0,76,76,59,2,['d'],['d'],Y,,,,M,19
0,77,77,405,2,['d'],['k'],N,,,,M,19
0,78,78,78,2,['k'],['d'],N,,,,M,19
0,79,79,85,2,['k'],['d'],N,,,,M,19
0,80,80,564,2,['d'],['k'],N,,,,M,19
0,81,81,515,2,['d'],['k'],N,,,,M,19
0,82,82,524,2,['k'],['k'],Y,,,,M,19
0,83,83,129,2,['d'],['d'],Y,,,,M,19
0,84,84,474,2,['k'],['k'],Y,,,,M,19
0,85,85,160,2,['k'],['d'],N,,,,M,19
0,86,86,108,2,['k'],['d'],N,,,,M,19
0,87,87,359,2,['d'],['k'],N,,,,M,19
0,88,88,236,2,['k'],['d'],N,,,,M,19
0,89,89,450,2,['d'],['k'],N,,,,M,19
0,90,90,79,2,['d'],['d'],Y,,,,M,19
0,91,91,104,2,['d'],['d'],Y,,,,M,19
0,92,92,473,2,['d'],['k'],N,,,,M,19
0,93,93,231,2,['d'],['d'],Y,,,,M,19
0,94,94,264,2,['k'],['d'],N,,,,M,19
0,95,95,596,2,['k'],['k'],Y,,,,M,19
0,96,96,171,2,['d'],['d'],Y,,,,M,19
0,97,97,365,2,['d'],['k'],N,,,,M,19
0,98,98,150,2,['k'],['d'],N,,,,M,19
0,99,99,425,2,['k'],['k'],Y,,,,M,19
,,,,,,,"23, 27",,,,,
0,100,100,388,3,['k'],['k'],Y,,,,M,19
0,101,101,89,3,['k'],['d'],N,,,,M,19
0,102,102,267,3,['d'],['d'],Y,,,,M,19
0,103,103,270,3,['d'],['d'],Y,,,,M,19
0,104,104,5,3,['d'],['d'],Y,,,,M,19
0,105,105,510,3,['d'],['k'],N,,,,M,19
0,106,106,306,3,['k'],['k'],Y,,,,M,19
0,107,107,125,3,['d'],['d'],Y,,,,M,19
0,108,108,101,3,['k'],['d'],N,,,,M,19
0,109,109,268,3,['k'],['d'],N,,,,M,19
0,110,110,392,3,['d'],['k'],N,,,,M,19
0,111,111,255,3,['k'],['d'],N,,,,M,19
0,112,112,391,3,['d'],['k'],N,,,,M,19
0,113,113,115,3,['d'],['d'],Y,,,,M,19
0,114,114,556,3,['k'],['k'],Y,,,,M,19
0,115,115,197,3,['d'],['d'],Y,,,,M,19
0,116,116,467,3,['k'],['k'],Y,,,,M,19
0,117,117,387,3,['d'],['k'],N,,,,M,19
0,118,118,186,3,['k'],['d'],N,,,,M,19
0,119,119,297,3,['d'],['d'],Y,,,,M,19
0,120,120,397,3,['d'],['k'],N,,,,M,19
0,121,121,235,3,['k'],['d'],N,,,,M,19
0,122,122,174,3,['d'],['d'],Y,,,,M,19
0,123,123,491,3,['k'],['k'],Y,,,,M,19
0,124,124,302,3,['k'],['k'],Y,,,,M,19
0,125,125,114,3,['k'],['d'],N,,,,M,19
0,126,126,64,3,['d'],['d'],Y,,,,M,19
0,127,127,532,3,['k'],['k'],Y,,,,M,19
0,128,128,57,3,['d'],['d'],Y,,,,M,19
0,129,129,446,3,['k'],['k'],Y,,,,M,19
0,130,130,513,3,['k'],['k'],Y,,,,M,19
0,131,131,514,3,['k'],['k'],Y,,,,M,19
0,132,132,385,3,['k'],['k'],Y,,,,M,19
0,133,133,438,3,['k'],['k'],Y,,,,M,19
0,134,134,562,3,['k'],['k'],Y,,,,M,19
0,135,135,195,3,['k'],['d'],N,,,,M,19
0,136,136,278,3,['d'],['d'],Y,,,,M,19
0,137,137,542,3,['k'],['k'],Y,,,,M,19
0,138,138,411,3,['k'],['k'],Y,,,,M,19
0,139,139,407,3,['k'],['k'],Y,,,,M,19
0,140,140,431,3,['k'],['k'],Y,,,,M,19
0,141,141,336,3,['k'],['k'],Y,,,,M,19
0,142,142,90,3,['k'],['d'],N,,,,M,19
0,143,143,441,3,['k'],['k'],Y,,,,M,19
0,144,144,470,3,['k'],['k'],Y,,,,M,19
0,145,145,213,3,['d'],['d'],Y,,,,M,19
0,146,146,39,3,['k'],['d'],N,,,,M,19
0,147,147,121,3,['k'],['d'],N,,,,M,19
0,148,148,433,3,['d'],['k'],N,,,,M,19
0,149,149,67,3,['d'],['d'],Y,,,,M,19
,,,,,,,"33, 17",,,,,
0,150,150,28,4,['d'],['d'],Y,,,,M,19
0,151,151,449,4,['d'],['k'],N,,,,M,19
0,152,152,358,4,['k'],['k'],Y,,,,M,19
0,153,153,201,4,['k'],['d'],N,,,,M,19
0,154,154,579,4,['d'],['k'],N,,,,M,19
0,155,155,192,4,['d'],['d'],Y,,,,M,19
0,156,156,156,4,['d'],['d'],Y,,,,M,19
0,157,157,370,4,['k'],['k'],Y,,,,M,19
0,158,158,393,4,['d'],['k'],N,,,,M,19
0,159,159,546,4,['k'],['k'],Y,,,,M,19
0,160,160,137,4,['k'],['d'],N,,,,M,19
0,161,161,502,4,['d'],['k'],N,,,,M,19
0,162,162,48,4,['d'],['d'],Y,,,,M,19
0,163,163,326,4,['d'],['k'],N,,,,M,19
0,164,164,203,4,['k'],['d'],N,,,,M,19
0,165,165,265,4,['k'],['d'],N,,,,M,19
0,166,166,403,4,['d'],['k'],N,,,,M,19
0,167,167,138,4,['k'],['d'],N,,,,M,19
0,168,168,330,4,['k'],['k'],Y,,,,M,19
0,169,169,50,4,['d'],['d'],Y,,,,M,19
0,170,170,583,4,['k'],['k'],Y,,,,M,19
0,171,171,419,4,['k'],['k'],Y,,,,M,19
0,172,172,224,4,['d'],['d'],Y,,,,M,19
0,173,173,52,4,['d'],['d'],Y,,,,M,19
0,174,174,72,4,['d'],['d'],Y,,,,M,19
0,175,175,402,4,['k'],['k'],Y,,,,M,19
0,176,176,420,4,['k'],['k'],Y,,,,M,19
0,177,177,512,4,['k'],['k'],Y,,,,M,19
0,178,178,233,4,['d'],['d'],Y,,,,M,19
0,179,179,290,4,['d'],['d'],Y,,,,M,19
0,180,180,19,4,['d'],['d'],Y,,,,M,19
0,181,181,42,4,['k'],['d'],N,,,,M,19
0,182,182,204,4,['d'],['d'],Y,,,,M,19
0,183,183,482,4,['k'],['k'],Y,,,,M,19
0,184,184,462,4,None,,Timed out,,,,M,19
0,185,185,344,4,['k'],['k'],Y,,,,M,19
0,186,186,399,4,['k'],['k'],Y,,,,M,19
0,187,187,241,4,['d'],['d'],Y,,,,M,19
0,188,188,130,4,['d'],['d'],Y,,,,M,19
0,189,189,471,4,['k'],['k'],Y,,,,M,19
0,190,190,322,4,['d'],['k'],N,,,,M,19
0,191,191,87,4,['k'],['d'],N,,,,M,19
0,192,192,152,4,['k'],['d'],N,,,,M,19
0,193,193,10,4,['d'],['d'],Y,,,,M,19
0,194,194,61,4,['d'],['d'],Y,,,,M,19
0,195,195,497,4,['k'],['k'],Y,,,,M,19
0,196,196,421,4,['k'],['k'],Y,,,,M,19
0,197,197,193,4,['d'],['d'],Y,,,,M,19
0,198,198,369,4,['k'],['k'],Y,,,,M,19
0,199,199,216,4,['k'],['d'],N,,,,M,19
,,,,,,,"33, 17",,,,,
0,200,200,245,5,['d'],['d'],Y,,,,M,19
0,201,201,318,5,['k'],['k'],Y,,,,M,19
0,202,202,375,5,['k'],['k'],Y,,,,M,19
0,203,203,120,5,['d'],['d'],Y,,,,M,19
0,204,204,253,5,['d'],['d'],Y,,,,M,19
0,205,205,429,5,['k'],['k'],Y,,,,M,19
0,206,206,12,5,['d'],['d'],Y,,,,M,19
0,207,207,427,5,['k'],['k'],Y,,,,M,19
0,208,208,164,5,['d'],['d'],Y,,,,M,19
0,209,209,398,5,['k'],['k'],Y,,,,M,19
0,210,210,240,5,['k'],['d'],N,,,,M,19
0,211,211,263,5,['k'],['d'],N,,,,M,19
0,212,212,300,5,['k'],['k'],Y,,,,M,19
0,213,213,520,5,['k'],['k'],Y,,,,M,19
0,214,214,466,5,['k'],['k'],Y,,,,M,19
0,215,215,577,5,['d'],['k'],N,,,,M,19
0,216,216,277,5,['k'],['d'],N,,,,M,19
0,217,217,544,5,['k'],['k'],Y,,,,M,19
0,218,218,37,5,['d'],['d'],Y,,,,M,19
0,219,219,418,5,['k'],['k'],Y,,,,M,19
0,220,220,136,5,['d'],['d'],Y,,,,M,19
0,221,221,298,5,['d'],['d'],Y,,,,M,19
0,222,222,339,5,['k'],['k'],Y,,,,M,19
0,223,223,250,5,['d'],['d'],Y,,,,M,19
0,224,224,444,5,['k'],['k'],Y,,,,M,19
0,225,225,219,5,['d'],['d'],Y,,,,M,19
0,226,226,353,5,['d'],['k'],N,,,,M,19
0,227,227,439,5,['k'],['k'],Y,,,,M,19
0,228,228,389,5,['k'],['k'],Y,,,,M,19
0,229,229,191,5,['k'],['d'],N,,,,M,19
0,230,230,294,5,['d'],['d'],Y,,,,M,19
0,231,231,521,5,['d'],['k'],N,,,,M,19
0,232,232,522,5,['k'],['k'],Y,,,,M,19
0,233,233,53,5,['k'],['d'],N,,,,M,19
0,234,234,293,5,['k'],['d'],N,,,,M,19
0,235,235,566,5,['k'],['k'],Y,,,,M,19
0,236,236,159,5,['d'],['d'],Y,,,,M,19
0,237,237,384,5,['k'],['k'],Y,,,,M,19
0,238,238,588,5,['k'],['k'],Y,,,,M,19
0,239,239,291,5,['k'],['d'],N,,,,M,19
0,240,240,189,5,['k'],['d'],N,,,,M,19
0,241,241,350,5,['k'],['k'],Y,,,,M,19
0,242,242,331,5,['k'],['k'],Y,,,,M,19
0,243,243,32,5,['d'],['d'],Y,,,,M,19
0,244,244,417,5,['k'],['k'],Y,,,,M,19
0,245,245,60,5,['k'],['d'],N,,,,M,19
0,246,246,35,5,['k'],['d'],N,,,,M,19
0,247,247,252,5,['d'],['d'],Y,,,,M,19
0,248,248,217,5,['k'],['d'],N,,,,M,19
0,249,249,468,5,['k'],['k'],Y,,,,M,19
,,,,,,,"36, 14",,,,,
0,250,250,570,6,['k'],['k'],Y,,,,M,19
0,251,251,523,6,['k'],['k'],Y,,,,M,19
0,252,252,563,6,['d'],['k'],N,,,,M,19
0,253,253,143,6,['d'],['d'],Y,,,,M,19
0,254,254,311,6,['k'],['k'],Y,,,,M,19
0,255,255,483,6,['k'],['k'],Y,,,,M,19
0,256,256,182,6,['k'],['d'],N,,,,M,19
0,257,257,459,6,['k'],['k'],Y,,,,M,19
0,258,258,494,6,['k'],['k'],Y,,,,M,19
0,259,259,266,6,['d'],['d'],Y,,,,M,19
0,260,260,131,6,['d'],['d'],Y,,,,M,19
0,261,261,284,6,['k'],['d'],N,,,,M,19
0,262,262,20,6,['d'],['d'],Y,,,,M,19
0,263,263,315,6,['k'],['k'],Y,,,,M,19
0,264,264,74,6,['d'],['d'],Y,,,,M,19
0,265,265,314,6,['k'],['k'],Y,,,,M,19
0,266,266,503,6,['d'],['k'],N,,,,M,19
0,267,267,299,6,['d'],['d'],Y,,,,M,19
0,268,268,324,6,['k'],['k'],Y,,,,M,19
0,269,269,45,6,['d'],['d'],Y,,,,M,19
0,270,270,340,6,['k'],['k'],Y,,,,M,19
0,271,271,323,6,['d'],['k'],N,,,,M,19
0,272,272,99,6,['d'],['d'],Y,,,,M,19
0,273,273,552,6,['k'],['k'],Y,,,,M,19
0,274,274,423,6,['k'],['k'],Y,,,,M,19
0,275,275,342,6,['d'],['k'],N,,,,M,19
0,276,276,157,6,['d'],['d'],Y,,,,M,19
0,277,277,91,6,['d'],['d'],Y,,,,M,19
0,278,278,14,6,['d'],['d'],Y,,,,M,19
0,279,279,316,6,['k'],['k'],Y,,,,M,19
0,280,280,184,6,['d'],['d'],Y,,,,M,19
0,281,281,594,6,['k'],['k'],Y,,,,M,19
0,282,282,507,6,['k'],['k'],Y,,,,M,19
0,283,283,557,6,['k'],['k'],Y,,,,M,19
0,284,284,111,6,['d'],['d'],Y,,,,M,19
0,285,285,175,6,['d'],['d'],Y,,,,M,19
0,286,286,254,6,['d'],['d'],Y,,,,M,19
0,287,287,11,6,['d'],['d'],Y,,,,M,19
0,288,288,347,6,['k'],['k'],Y,,,,M,19
0,289,289,109,6,['d'],['d'],Y,,,,M,19
0,290,290,374,6,['k'],['k'],Y,,,,M,19
0,291,291,140,6,['k'],['d'],N,,,,M,19
0,292,292,549,6,['k'],['k'],Y,,,,M,19
0,293,293,538,6,['k'],['k'],Y,,,,M,19
0,294,294,531,6,['d'],['k'],N,,,,M,19
0,295,295,409,6,['k'],['k'],Y,,,,M,19
0,296,296,528,6,['k'],['k'],Y,,,,M,19
0,297,297,9,6,['k'],['d'],N,,,,M,19
0,298,298,0,6,['d'],['d'],Y,,,,M,19
0,299,299,481,6,['k'],['k'],Y,,,,M,19
,,,,,,,41,,,,,
0,300,300,593,7,['k'],['k'],Y,,,,M,19
0,301,301,379,7,['k'],['k'],Y,,,,M,19
0,302,302,381,7,['k'],['k'],Y,,,,M,19
0,303,303,8,7,['d'],['d'],Y,,,,M,19
0,304,304,223,7,['d'],['d'],Y,,,,M,19
0,305,305,66,7,['d'],['d'],Y,,,,M,19
0,306,306,460,7,['k'],['k'],Y,,,,M,19
0,307,307,215,7,['d'],['d'],Y,,,,M,19
0,308,308,170,7,['d'],['d'],Y,,,,M,19
0,309,309,222,7,['k'],['d'],N,,,,M,19
0,310,310,408,7,['k'],['k'],Y,,,,M,19
0,311,311,274,7,['d'],['d'],Y,,,,M,19
0,312,312,113,7,['d'],['d'],Y,,,,M,19
0,313,313,432,7,['k'],['k'],Y,,,,M,19
0,314,314,134,7,['d'],['d'],Y,,,,M,19
0,315,315,400,7,['k'],['k'],Y,,,,M,19
0,316,316,435,7,['d'],['k'],N,,,,M,19
0,317,317,457,7,['d'],['k'],N,,,,M,19
0,318,318,357,7,['k'],['k'],Y,,,,M,19
0,319,319,177,7,['k'],['d'],N,,,,M,19
0,320,320,71,7,['d'],['d'],Y,,,,M,19
0,321,321,499,7,['k'],['k'],Y,,,,M,19
0,322,322,451,7,['k'],['k'],Y,,,,M,19
0,323,323,395,7,['k'],['k'],Y,,,,M,19
0,324,324,597,7,['d'],['k'],N,,,,M,19
0,325,325,55,7,['d'],['d'],Y,,,,M,19
0,326,326,430,7,['k'],['k'],Y,,,,M,19
0,327,327,76,7,['d'],['d'],Y,,,,M,19
0,328,328,95,7,['d'],['d'],Y,,,,M,19
0,329,329,454,7,['k'],['k'],Y,,,,M,19
0,330,330,492,7,['d'],['k'],N,,,,M,19
0,331,331,33,7,['d'],['d'],Y,,,,M,19
0,332,332,167,7,['d'],['d'],Y,,,,M,19
0,333,333,550,7,['k'],['k'],Y,,,,M,19
0,334,334,256,7,['d'],['d'],Y,,,,M,19
0,335,335,303,7,['k'],['k'],Y,,,,M,19
0,336,336,179,7,['k'],['d'],N,,,,M,19
0,337,337,461,7,['k'],['k'],Y,,,,M,19
0,338,338,70,7,['k'],['d'],N,,,,M,19
0,339,339,249,7,['d'],['d'],Y,,,,M,19
0,340,340,401,7,['k'],['k'],Y,,,,M,19
0,341,341,378,7,['k'],['k'],Y,,,,M,19
0,342,342,301,7,['k'],['k'],Y,,,,M,19
0,343,343,242,7,['d'],['d'],Y,,,,M,19
0,344,344,573,7,['k'],['k'],Y,,,,M,19
0,345,345,126,7,['d'],['d'],Y,,,,M,19
0,346,346,237,7,['d'],['d'],Y,,,,M,19
0,347,347,133,7,['d'],['d'],Y,,,,M,19
0,348,348,436,7,['d'],['k'],N,,,,M,19
0,349,349,551,7,['k'],['k'],Y,,,,M,19
,,,,,,,41,,,,,
0,350,350,312,8,['k'],['k'],Y,,,,M,19
0,351,351,498,8,['k'],['k'],Y,,,,M,19
0,352,352,536,8,['k'],['k'],Y,,,,M,19
0,353,353,469,8,['k'],['k'],Y,,,,M,19
0,354,354,463,8,['k'],['k'],Y,,,,M,19
0,355,355,338,8,['k'],['k'],Y,,,,M,19
0,356,356,181,8,['k'],['d'],N,,,,M,19
0,357,357,107,8,['k'],['d'],N,,,,M,19
0,358,358,526,8,['k'],['k'],Y,,,,M,19
0,359,359,390,8,['k'],['k'],Y,,,,M,19
0,360,360,587,8,['k'],['k'],Y,,,,M,19
0,361,361,286,8,['d'],['d'],Y,,,,M,19
0,362,362,165,8,['d'],['d'],Y,,,,M,19
0,363,363,211,8,['d'],['d'],Y,,,,M,19
0,364,364,361,8,['k'],['k'],Y,,,,M,19
0,365,365,320,8,['k'],['k'],Y,,,,M,19
0,366,366,258,8,['d'],['d'],Y,,,,M,19
0,367,367,153,8,['k'],['d'],N,,,,M,19
0,368,368,161,8,['d'],['d'],Y,,,,M,19
0,369,369,77,8,['d'],['d'],Y,,,,M,19
0,370,370,230,8,['k'],['d'],N,,,,M,19
0,371,371,244,8,['k'],['d'],N,,,,M,19
0,372,372,413,8,['k'],['k'],Y,,,,M,19
0,373,373,346,8,['d'],['k'],N,,,,M,19
0,374,374,275,8,['k'],['d'],N,,,,M,19
0,375,375,364,8,['k'],['k'],Y,,,,M,19
0,376,376,535,8,['k'],['k'],Y,,,,M,19
0,377,377,490,8,['k'],['k'],Y,,,,M,19
0,378,378,24,8,['k'],['d'],N,,,,M,19
0,379,379,141,8,['d'],['d'],Y,,,,M,19
0,380,380,321,8,['k'],['k'],Y,,,,M,19
0,381,381,205,8,['d'],['d'],Y,,,,M,19
0,382,382,56,8,['d'],['d'],Y,,,,M,19
0,383,383,146,8,['d'],['d'],Y,,,,M,19
0,384,384,144,8,['d'],['d'],Y,,,,M,19
0,385,385,172,8,['d'],['d'],Y,,,,M,19
0,386,386,142,8,['k'],['d'],N,,,,M,19
0,387,387,288,8,['k'],['d'],N,,,,M,19
0,388,388,530,8,['k'],['k'],Y,,,,M,19
0,389,389,442,8,['k'],['k'],Y,,,,M,19
0,390,390,416,8,['k'],['k'],Y,,,,M,19
0,391,391,246,8,['k'],['d'],N,,,,M,19
0,392,392,276,8,['d'],['d'],Y,,,,M,19
0,393,393,200,8,['d'],['d'],Y,,,,M,19
0,394,394,296,8,['d'],['d'],Y,,,,M,19
0,395,395,86,8,['k'],['d'],N,,,,M,19
0,396,396,477,8,['k'],['k'],Y,,,,M,19
0,397,397,540,8,['k'],['k'],Y,,,,M,19
0,398,398,585,8,['k'],['k'],Y,,,,M,19
0,399,399,84,8,['d'],['d'],Y,,,,M,19
,,,,,,,"38, 12",,,,,
0,400,400,260,9,['d'],['d'],Y,,,,M,19
0,401,401,119,9,['d'],['d'],Y,,,,M,19
0,402,402,198,9,['d'],['d'],Y,,,,M,19
0,403,403,40,9,['k'],['d'],N,,,,M,19
0,404,404,511,9,['k'],['k'],Y,,,,M,19
0,405,405,208,9,['d'],['d'],Y,,,,M,19
0,406,406,128,9,['d'],['d'],Y,,,,M,19
0,407,407,232,9,['d'],['d'],Y,,,,M,19
0,408,408,23,9,['k'],['d'],N,,,,M,19
0,409,409,110,9,['d'],['d'],Y,,,,M,19
0,410,410,590,9,['d'],['k'],N,,,,M,19
0,411,411,281,9,['d'],['d'],Y,,,,M,19
0,412,412,504,9,['k'],['k'],Y,,,,M,19
0,413,413,517,9,['d'],['k'],N,,,,M,19
0,414,414,367,9,['k'],['k'],Y,,,,M,19
0,415,415,328,9,['k'],['k'],Y,,,,M,19
0,416,416,592,9,['k'],['k'],Y,,,,M,19
0,417,417,135,9,['d'],['d'],Y,,,,M,19
0,418,418,262,9,['d'],['d'],Y,,,,M,19
0,419,419,183,9,['d'],['d'],Y,,,,M,19
0,420,420,455,9,['k'],['k'],Y,,,,M,19
0,421,421,124,9,['d'],['d'],Y,,,,M,19
0,422,422,415,9,['k'],['k'],Y,,,,M,19
0,423,423,412,9,['k'],['k'],Y,,,,M,19
0,424,424,30,9,['d'],['d'],Y,,,,M,19
0,425,425,94,9,['d'],['d'],Y,,,,M,19
0,426,426,283,9,['d'],['d'],Y,,,,M,19
0,427,427,475,9,['k'],['k'],Y,,,,M,19
0,428,428,516,9,['k'],['k'],Y,,,,M,19
0,429,429,194,9,['k'],['d'],N,,,,M,19
0,430,430,7,9,['d'],['d'],Y,,,,M,19
0,431,431,377,9,['k'],['k'],Y,,,,M,19
0,432,432,332,9,['d'],['k'],N,,,,M,19
0,433,433,493,9,['k'],['k'],Y,,,,M,19
0,434,434,21,9,['d'],['d'],Y,,,,M,19
0,435,435,410,9,['k'],['k'],Y,,,,M,19
0,436,436,218,9,['d'],['d'],Y,,,,M,19
0,437,437,73,9,['k'],['d'],N,,,,M,19
0,438,438,82,9,['d'],['d'],Y,,,,M,19
0,439,439,334,9,['k'],['k'],Y,,,,M,19
0,440,440,533,9,['k'],['k'],Y,,,,M,19
0,441,441,116,9,['d'],['d'],Y,,,,M,19
0,442,442,386,9,['k'],['k'],Y,,,,M,19
0,443,443,3,9,['d'],['d'],Y,,,,M,19
0,444,444,576,9,['k'],['k'],Y,,,,M,19
0,445,445,147,9,['k'],['d'],N,,,,M,19
0,446,446,569,9,['k'],['k'],Y,,,,M,19
0,447,447,568,9,['d'],['k'],N,,,,M,19
0,448,448,567,9,['d'],['k'],N,,,,M,19
0,449,449,145,9,['d'],['d'],Y,,,,M,19
,,,,,,,40,,,,,
0,450,450,308,10,['k'],['k'],Y,,,,M,19
0,451,451,102,10,['d'],['d'],Y,,,,M,19
0,452,452,207,10,['d'],['d'],Y,,,,M,19
0,453,453,589,10,['k'],['k'],Y,,,,M,19
0,454,454,103,10,['k'],['d'],N,,,,M,19
0,455,455,2,10,['k'],['d'],N,,,,M,19
0,456,456,414,10,['k'],['k'],Y,,,,M,19
0,457,457,519,10,['k'],['k'],Y,,,,M,19
0,458,458,383,10,['k'],['k'],Y,,,,M,19
0,459,459,188,10,['d'],['d'],Y,,,,M,19
0,460,460,445,10,['k'],['k'],Y,,,,M,19
0,461,461,506,10,['k'],['k'],Y,,,,M,19
0,462,462,227,10,['d'],['d'],Y,,,,M,19
0,463,463,106,10,['d'],['d'],Y,,,,M,19
0,464,464,148,10,['d'],['d'],Y,,,,M,19
0,465,465,13,10,['d'],['d'],Y,,,,M,19
0,466,466,465,10,['k'],['k'],Y,,,,M,19
0,467,467,162,10,['k'],['d'],N,,,,M,19
0,468,468,351,10,['k'],['k'],Y,,,,M,19
0,469,469,17,10,['d'],['d'],Y,,,,M,19
0,470,470,561,10,['k'],['k'],Y,,,,M,19
0,471,471,31,10,['d'],['d'],Y,,,,M,19
0,472,472,132,10,['d'],['d'],Y,,,,M,19
0,473,473,247,10,['d'],['d'],Y,,,,M,19
0,474,474,29,10,['d'],['d'],Y,,,,M,19
0,475,475,16,10,['k'],['d'],N,,,,M,19
0,476,476,488,10,['k'],['k'],Y,,,,M,19
0,477,477,105,10,['d'],['d'],Y,,,,M,19
0,478,478,25,10,['d'],['d'],Y,,,,M,19
0,479,479,479,10,['k'],['k'],Y,,,,M,19
0,480,480,239,10,['d'],['d'],Y,,,,M,19
0,481,481,58,10,['d'],['d'],Y,,,,M,19
0,482,482,448,10,['k'],['k'],Y,,,,M,19
0,483,483,173,10,['k'],['d'],N,,,,M,19
0,484,484,261,10,['d'],['d'],Y,,,,M,19
0,485,485,97,10,['d'],['d'],Y,,,,M,19
0,486,486,582,10,['k'],['k'],Y,,,,M,19
0,487,487,98,10,['d'],['d'],Y,,,,M,19
0,488,488,440,10,['k'],['k'],Y,,,,M,19
0,489,489,238,10,['d'],['d'],Y,,,,M,19
0,490,490,51,10,['d'],['d'],Y,,,,M,19
0,491,491,595,10,['d'],['k'],N,,,,M,19
0,492,492,458,10,['k'],['k'],Y,,,,M,19
0,493,493,487,10,['k'],['k'],Y,,,,M,19
0,494,494,214,10,['d'],['d'],Y,,,,M,19
0,495,495,476,10,['k'],['k'],Y,,,,M,19
0,496,496,289,10,['d'],['d'],Y,,,,M,19
0,497,497,190,10,['k'],['d'],N,,,,M,19
0,498,498,68,10,['d'],['d'],Y,,,,M,19
0,499,499,484,10,['k'],['k'],Y,,,,M,19
,,,,,,,43,,,,,
0,500,500,206,11,['d'],['d'],N,Y,Y,Y,M,19
0,501,501,285,11,None,,Timed out,,Y,Y,M,19
0,502,502,341,11,['k'],['k'],N,,Y,Y,M,19
0,503,503,508,11,['k'],['k'],N,,Y,Y,M,19
0,504,504,355,11,['d'],['k'],Y,,Y,Y,M,19
0,505,505,443,11,['d'],['k'],Y,,Y,Y,M,19
0,506,506,529,11,['d'],['k'],Y,,Y,Y,M,19
0,507,507,485,11,['d'],['k'],Y,,Y,Y,M,19
0,508,508,220,11,['k'],['d'],Y,,Y,Y,M,19
0,509,509,574,11,['d'],['k'],Y,,Y,Y,M,19
0,510,510,176,11,['k'],['d'],Y,,Y,Y,M,19
0,511,511,472,11,['d'],['k'],Y,,Y,Y,M,19
0,512,512,396,11,['d'],['k'],Y,,Y,Y,M,19
0,513,513,500,11,['k'],['k'],N,,Y,Y,M,19
0,514,514,154,11,['k'],['d'],Y,,Y,Y,M,19
0,515,515,382,11,['d'],['k'],Y,,Y,Y,M,19
0,516,516,464,11,['d'],['k'],Y,,Y,Y,M,19
0,517,517,591,11,['d'],['k'],Y,,Y,Y,M,19
0,518,518,310,11,['d'],['k'],Y,,Y,Y,M,19
0,519,519,373,11,['k'],['k'],N,,Y,Y,M,19
0,520,520,92,11,['k'],['d'],Y,,Y,Y,M,19
0,521,521,317,11,['d'],['k'],Y,,Y,Y,M,19
0,522,522,453,11,['d'],['k'],Y,,Y,Y,M,19
0,523,523,88,11,['k'],['d'],Y,,Y,Y,M,19
0,524,524,273,11,['d'],['d'],N,,Y,Y,M,19
0,525,525,259,11,['d'],['d'],N,,Y,Y,M,19
0,526,526,309,11,['d'],['k'],Y,,Y,Y,M,19
0,527,527,578,11,['d'],['k'],Y,,Y,Y,M,19
0,528,528,1,11,['k'],['d'],Y,,Y,Y,M,19
0,529,529,307,11,['d'],['k'],Y,,Y,Y,M,19
0,530,530,54,11,['k'],['d'],Y,,Y,Y,M,19
0,531,531,47,11,['k'],['d'],Y,,Y,Y,M,19
0,532,532,501,11,['d'],['k'],Y,,Y,Y,M,19
0,533,533,345,11,['d'],['k'],Y,,Y,Y,M,19
0,534,534,282,11,['k'],['d'],Y,,Y,Y,M,19
0,535,535,151,11,['d'],['d'],N,,Y,Y,M,19
0,536,536,360,11,['d'],['k'],Y,,Y,Y,M,19
0,537,537,571,11,['d'],['k'],Y,,Y,Y,M,19
0,538,538,366,11,['d'],['k'],Y,,Y,Y,M,19
0,539,539,226,11,['k'],['d'],Y,,Y,Y,M,19
0,540,540,96,11,['k'],['d'],Y,,Y,Y,M,19
0,541,541,584,11,None,,Timed out,,Y,Y,M,19
0,542,542,553,11,['k'],['k'],N,,Y,Y,M,19
0,543,543,404,11,['k'],['k'],N,,Y,Y,M,19
0,544,544,62,11,['k'],['d'],Y,,Y,Y,M,19
0,545,545,329,11,['d'],['k'],Y,,Y,Y,M,19
0,546,546,210,11,['k'],['d'],Y,,Y,Y,M,19
0,547,547,44,11,['k'],['d'],Y,,Y,Y,M,19
0,548,548,356,11,['d'],['k'],Y,,Y,Y,M,19
0,549,549,537,11,['d'],['k'],Y,,Y,Y,M,19
,,,,,,,"38, 12",,,,,
0,550,550,257,12,['k'],['d'],Y,,Y,Y,M,19
0,551,551,333,12,['d'],['k'],Y,,Y,Y,M,19
0,552,552,6,12,['k'],['d'],Y,,Y,Y,M,19
0,553,553,69,12,['k'],['d'],Y,,Y,Y,M,19
0,554,554,548,12,['d'],['k'],Y,,Y,Y,M,19
0,555,555,380,12,['d'],['k'],Y,,Y,Y,M,19
0,556,556,599,12,['d'],['k'],Y,,Y,Y,M,19
0,557,557,139,12,['k'],['d'],Y,,Y,Y,M,19
0,558,558,178,12,['k'],['d'],Y,,Y,Y,M,19
0,559,559,489,12,['k'],['k'],N,,Y,Y,M,19
0,560,560,363,12,['d'],['k'],Y,,Y,Y,M,19
0,561,561,343,12,['d'],['k'],Y,,Y,Y,M,19
0,562,562,319,12,['d'],['k'],Y,,Y,Y,M,19
0,563,563,180,12,['k'],['d'],Y,,Y,Y,M,19
0,564,564,547,12,['d'],['k'],Y,,Y,Y,M,19
0,565,565,287,12,['k'],['d'],Y,,Y,Y,M,19
0,566,566,27,12,['d'],['d'],N,,Y,Y,M,19
0,567,567,292,12,['d'],['d'],N,,Y,Y,M,19
0,568,568,558,12,['k'],['k'],N,,Y,Y,M,19
0,569,569,279,12,['d'],['d'],N,,Y,Y,M,19
0,570,570,155,12,['k'],['d'],Y,,Y,Y,M,19
0,571,571,118,12,['k'],['d'],Y,,Y,Y,M,19
0,572,572,478,12,['d'],['k'],Y,,Y,Y,M,19
0,573,573,163,12,['k'],['d'],Y,,Y,Y,M,19
0,574,574,75,12,['k'],['d'],Y,,Y,Y,M,19
0,575,575,65,12,['k'],['d'],Y,,Y,Y,M,19
0,576,576,456,12,['d'],['k'],Y,,Y,Y,M,19
0,577,577,527,12,['d'],['k'],Y,,Y,Y,M,19
0,578,578,36,12,['d'],['d'],N,,Y,Y,M,19
0,579,579,269,12,['k'],['d'],Y,,Y,Y,M,19
0,580,580,348,12,['d'],['k'],Y,,Y,Y,M,19
0,581,581,572,12,['d'],['k'],Y,,Y,Y,M,19
0,582,582,295,12,['d'],['d'],N,,Y,Y,M,19
0,583,583,406,12,['d'],['k'],Y,,Y,Y,M,19
0,584,584,243,12,['k'],['d'],Y,,Y,Y,M,19
0,585,585,349,12,['d'],['k'],Y,,Y,Y,M,19
0,586,586,304,12,['k'],['k'],N,,Y,Y,M,19
0,587,587,541,12,['d'],['k'],Y,,Y,Y,M,19
0,588,588,518,12,['d'],['k'],Y,,Y,Y,M,19
0,589,589,565,12,['d'],['k'],Y,,Y,Y,M,19
0,590,590,212,12,['k'],['d'],Y,,Y,Y,M,19
0,591,591,18,12,['k'],['d'],Y,,Y,Y,M,19
0,592,592,46,12,None,,Timed out,,Y,Y,M,19
0,593,593,376,12,['d'],['k'],Y,,Y,Y,M,19
0,594,594,354,12,['d'],['k'],Y,,Y,Y,M,19
0,595,595,63,12,['k'],['d'],Y,,Y,Y,M,19
0,596,596,368,12,['d'],['k'],Y,,Y,Y,M,19
0,597,597,545,12,['d'],['k'],Y,,Y,Y,M,19
0,598,598,234,12,['k'],['d'],Y,,Y,Y,M,19
0,599,599,83,12,['d'],['d'],N,,Y,Y,M,19
,,,,,,,40,,,,,
