.thisRepN,.thisTrialN,.thisN,.thisIndex,Block Number,Key pressed,Category,Correct?,Match?,Interference correct?,Total correct in block,Button switch shown?,Actually switched?,Fast?,gender,age
0,0,0,294,1,['y'],['d'],Y,Y,Y,,,,,female,22
0,1,1,146,1,['y'],['d'],N,Y,Y,,,,,female,22
0,2,2,590,1,['n'],['k'],Y,N,Y,,,,,female,22
0,3,3,58,1,['n'],['d'],N,N,Y,,,,,female,22
0,4,4,272,1,['n'],['d'],N,Y,N,,,,,female,22
0,5,5,166,1,['y'],['d'],Y,Y,Y,,,,,female,22
0,6,6,21,1,['n'],['d'],Y,Y,N,,,,,female,22
0,7,7,34,1,['n'],['d'],N,Y,N,,,,,female,22
0,8,8,226,1,['n'],['d'],Y,N,Y,,,,,female,22
0,9,9,241,1,['n'],['d'],Y,Y,N,,,,,female,22
0,10,10,173,1,['n'],['d'],Y,Y,N,,,,,female,22
0,11,11,359,1,['n'],['k'],N,N,Y,,,,,female,22
0,12,12,238,1,['n'],['d'],Y,Y,N,,,,,female,22
0,13,13,377,1,['n'],['k'],Y,N,Y,,,,,female,22
0,14,14,204,1,['n'],['d'],Y,N,Y,,,,,female,22
0,15,15,103,1,['n'],['d'],N,Y,N,,,,,female,22
0,16,16,31,1,['n'],['d'],Y,N,Y,,,,,female,22
0,17,17,118,1,['y'],['d'],Y,Y,Y,,,,,female,22
0,18,18,189,1,['n'],['d'],Y,Y,N,,,,,female,22
0,19,19,75,1,['y'],['d'],Y,Y,Y,,,,,female,22
0,20,20,351,1,['n'],['k'],Y,N,Y,,,,,female,22
0,21,21,291,1,['n'],['d'],Y,N,Y,,,,,female,22
0,22,22,422,1,['n'],['k'],Y,N,Y,,,,,female,22
0,23,23,374,1,['n'],['k'],N,N,Y,,,,,female,22
0,24,24,160,1,['n'],['d'],Y,N,Y,,,,,female,22
0,25,25,251,1,['n'],['d'],Y,Y,N,,,,,female,22
0,26,26,274,1,['n'],['d'],Y,Y,N,,,,,female,22
0,27,27,328,1,['y'],['k'],Y,N,N,,,,,female,22
0,28,28,593,1,['n'],['k'],Y,Y,N,,,,,female,22
0,29,29,387,1,['y'],['k'],Y,N,N,,,,,female,22
0,30,30,295,1,['n'],['d'],N,N,Y,,,,,female,22
0,31,31,474,1,['y'],['k'],N,Y,Y,,,,,female,22
0,32,32,306,1,['y'],['k'],Y,Y,Y,,,,,female,22
0,33,33,239,1,['y'],['d'],N,Y,Y,,,,,female,22
0,34,34,169,1,['n'],['d'],Y,N,Y,,,,,female,22
0,35,35,86,1,['n'],['d'],N,N,Y,,,,,female,22
0,36,36,522,1,['n'],['k'],N,N,Y,,,,,female,22
0,37,37,523,1,['y'],['k'],N,N,N,,,,,female,22
0,38,38,230,1,['n'],['d'],Y,N,Y,,,,,female,22
0,39,39,486,1,['y'],['k'],Y,N,N,,,,,female,22
0,40,40,546,1,['n'],['k'],Y,N,Y,,,,,female,22
0,41,41,22,1,['n'],['d'],N,N,Y,,,,,female,22
0,42,42,92,1,['y'],['d'],Y,N,N,,,,,female,22
0,43,43,144,1,['y'],['d'],Y,Y,Y,,,,,female,22
0,44,44,399,1,['y'],['k'],N,Y,Y,,,,,female,22
0,45,45,594,1,['y'],['k'],Y,N,N,,,,,female,22
0,46,46,326,1,['n'],['k'],N,N,Y,,,,,female,22
0,47,47,578,1,['n'],['k'],N,N,Y,,,,,female,22
0,48,48,357,1,['n'],['k'],N,Y,N,,,,,female,22
0,49,49,401,1,['y'],['k'],Y,Y,Y,32,,,,female,22
,,,,,,,,,,,,,,,
0,50,50,443,2,['y'],['k'],N,Y,Y,,,,,female,22
0,51,51,13,2,['n'],['d'],Y,N,Y,,,,,female,22
0,52,52,79,2,['y'],['d'],Y,Y,Y,,,,,female,22
0,53,53,235,2,['y'],['d'],Y,Y,Y,,,,,female,22
0,54,54,565,2,['n'],['k'],Y,N,Y,,,,,female,22
0,55,55,216,2,['n'],['d'],N,N,Y,,,,,female,22
0,56,56,12,2,['n'],['d'],Y,N,Y,,,,,female,22
0,57,57,516,2,['n'],['k'],Y,Y,N,,,,,female,22
0,58,58,171,2,['n'],['d'],Y,N,Y,,,,,female,22
0,59,59,159,2,['n'],['d'],N,N,Y,,,,,female,22
0,60,60,561,2,['n'],['k'],N,Y,N,,,,,female,22
0,61,61,568,2,['n'],['k'],N,Y,N,,,,,female,22
0,62,62,312,2,['n'],['k'],Y,Y,N,,,,,female,22
0,63,63,536,2,None,,Timed out,,,,,,,female,22
0,64,64,416,2,['n'],['k'],N,Y,N,,,,,female,22
0,65,65,581,2,['n'],['k'],Y,N,Y,,,,,female,22
0,66,66,215,2,['y'],['d'],Y,N,N,,,,,female,22
0,67,67,48,2,['y'],['d'],N,Y,Y,,,,,female,22
0,68,68,352,2,['n'],['k'],N,N,Y,,,,,female,22
0,69,69,142,2,['n'],['d'],Y,Y,N,,,,,female,22
0,70,70,126,2,['n'],['d'],N,Y,N,,,,,female,22
0,71,71,317,2,['n'],['k'],N,N,Y,,,,,female,22
0,72,72,298,2,['n'],['d'],N,Y,N,,,,,female,22
0,73,73,78,2,['n'],['d'],N,Y,N,,,,,female,22
0,74,74,490,2,['n'],['k'],Y,N,Y,,,,,female,22
0,75,75,260,2,['n'],['d'],Y,N,Y,,,,,female,22
0,76,76,23,2,['n'],['d'],Y,Y,N,,,,,female,22
0,77,77,394,2,['n'],['k'],Y,N,Y,,,,,female,22
0,78,78,209,2,['n'],['d'],Y,Y,N,,,,,female,22
0,79,79,509,2,['y'],['k'],N,N,N,,,,,female,22
0,80,80,30,2,['n'],['d'],Y,N,Y,,,,,female,22
0,81,81,60,2,['n'],['d'],Y,N,Y,,,,,female,22
0,82,82,15,2,['n'],['d'],N,Y,N,,,,,female,22
0,83,83,77,2,['n'],['d'],N,N,Y,,,,,female,22
0,84,84,513,2,['n'],['k'],N,Y,N,,,,,female,22
0,85,85,41,2,['n'],['d'],N,Y,N,,,,,female,22
0,86,86,93,2,['n'],['d'],N,N,Y,,,,,female,22
0,87,87,184,2,['n'],['d'],Y,Y,N,,,,,female,22
0,88,88,208,2,['n'],['d'],N,N,Y,,,,,female,22
0,89,89,98,2,['n'],['d'],Y,Y,N,,,,,female,22
0,90,90,582,2,['n'],['k'],Y,Y,N,,,,,female,22
0,91,91,537,2,['n'],['k'],N,Y,N,,,,,female,22
0,92,92,333,2,['n'],['k'],Y,N,Y,,,,,female,22
0,93,93,175,2,['n'],['d'],Y,N,Y,,,,,female,22
0,94,94,372,2,['y'],['k'],Y,Y,Y,,,,,female,22
0,95,95,415,2,['y'],['k'],N,N,N,,,,,female,22
0,96,96,124,2,['y'],['d'],Y,N,N,,,,,female,22
0,97,97,265,2,['n'],['d'],N,Y,N,,,,,female,22
0,98,98,408,2,['y'],['k'],Y,Y,Y,,,,,female,22
0,99,99,476,2,['n'],['k'],N,N,Y,26,,,,female,22
,,,,,,,,,,,,,,,
0,100,100,240,3,['n'],['d'],N,Y,N,,,,,female,22
0,101,101,248,3,['n'],['d'],Y,N,Y,,,,,female,22
0,102,102,384,3,['n'],['k'],Y,N,Y,,,,,female,22
0,103,103,347,3,['n'],['k'],Y,Y,N,,,,,female,22
0,104,104,345,3,"['y', 'n']",['k'],Y,N,Timed Out,,,,,female,22
0,105,105,198,3,['n'],['d'],Y,Y,N,,,,,female,22
0,106,106,527,3,"['y', 'n']",['k'],Y,N,Timed Out,,,,,female,22
0,107,107,424,3,['n'],['k'],N,Y,N,,,,,female,22
0,108,108,236,3,"['y', 'n']",['d'],Y,Y,Timed Out,,,,,female,22
0,109,109,101,3,['n'],['d'],N,Y,N,,,,,female,22
0,110,110,417,3,['n'],['k'],N,Y,N,,,,,female,22
0,111,111,324,3,['y'],['k'],Y,Y,Y,,,,,female,22
0,112,112,199,3,['n'],['d'],Y,Y,N,,,,,female,22
0,113,113,154,3,['n'],['d'],N,Y,N,,,,,female,22
0,114,114,383,3,['n'],['k'],N,Y,N,,,,,female,22
0,115,115,575,3,['n'],['k'],N,Y,N,,,,,female,22
0,116,116,531,3,['n'],['k'],Y,Y,N,,,,,female,22
0,117,117,249,3,['n'],['d'],N,Y,N,,,,,female,22
0,118,118,172,3,['n'],['d'],Y,N,Y,,,,,female,22
0,119,119,67,3,['n'],['d'],N,N,Y,,,,,female,22
0,120,120,163,3,['n'],['d'],N,N,Y,,,,,female,22
0,121,121,488,3,['n'],['k'],Y,N,Y,,,,,female,22
0,122,122,303,3,['n'],['k'],N,Y,N,,,,,female,22
0,123,123,94,3,['n'],['d'],N,Y,N,,,,,female,22
0,124,124,270,3,['n'],['d'],Y,N,Y,,,,,female,22
0,125,125,254,3,['n'],['d'],N,N,Y,,,,,female,22
0,126,126,475,3,['n'],['k'],Y,Y,N,,,,,female,22
0,127,127,439,3,['n'],['k'],N,N,Y,,,,,female,22
0,128,128,462,3,['n'],['k'],Y,Y,N,,,,,female,22
0,129,129,369,3,['y'],['k'],N,N,N,,,,,female,22
0,130,130,507,3,['n'],['k'],Y,Y,N,,,,,female,22
0,131,131,51,3,['n'],['d'],N,N,Y,,,,,female,22
0,132,132,191,3,['y'],['d'],Y,Y,Y,,,,,female,22
0,133,133,32,3,['y'],['d'],Y,Y,Y,,,,,female,22
0,134,134,442,3,['y'],['k'],N,N,N,,,,,female,22
0,135,135,409,3,['n'],['k'],Y,N,Y,,,,,female,22
0,136,136,1,3,['n'],['d'],N,N,Y,,,,,female,22
0,137,137,484,3,['n'],['k'],Y,Y,N,,,,,female,22
0,138,138,197,3,['n'],['d'],Y,N,Y,,,,,female,22
0,139,139,35,3,['n'],['d'],N,Y,N,,,,,female,22
0,140,140,472,3,['n'],['k'],N,Y,N,,,,,female,22
0,141,141,336,3,['n'],['k'],Y,Y,N,,,,,female,22
0,142,142,553,3,['y'],['k'],N,N,N,,,,,female,22
0,143,143,109,3,['n'],['d'],N,N,Y,,,,,female,22
0,144,144,219,3,['y'],['d'],Y,N,N,,,,,female,22
0,145,145,574,3,['n'],['k'],Y,N,Y,,,,,female,22
0,146,146,271,3,['n'],['d'],N,Y,N,,,,,female,22
0,147,147,440,3,['y'],['k'],Y,Y,Y,,,,,female,22
0,148,148,571,3,['n'],['k'],Y,N,Y,,,,,female,22
0,149,149,190,3,['n'],['d'],N,N,Y,26,,,,female,22
,,,,,,,,,,,,,,,
0,150,150,567,4,['n'],['k'],N,N,Y,,,,,female,22
0,151,151,510,4,['n'],['k'],Y,Y,N,,,,,female,22
0,152,152,56,4,['n'],['d'],N,N,Y,,,,,female,22
0,153,153,466,4,['n'],['k'],Y,Y,N,,,,,female,22
0,154,154,148,4,['n'],['d'],N,N,Y,,,,,female,22
0,155,155,46,4,['n'],['d'],Y,Y,N,,,,,female,22
0,156,156,205,4,['n'],['d'],N,N,Y,,,,,female,22
0,157,157,105,4,['y'],['d'],Y,Y,Y,,,,,female,22
0,158,158,39,4,['n'],['d'],Y,Y,N,,,,,female,22
0,159,159,4,4,['n'],['d'],N,Y,N,,,,,female,22
0,160,160,280,4,['y'],['d'],Y,Y,Y,,,,,female,22
0,161,161,74,4,['n'],['d'],N,N,Y,,,,,female,22
0,162,162,90,4,['n'],['d'],Y,N,Y,,,,,female,22
0,163,163,33,4,['y'],['d'],N,N,N,,,,,female,22
0,164,164,300,4,['y'],['k'],N,N,N,,,,,female,22
0,165,165,183,4,['n'],['d'],N,Y,N,,,,,female,22
0,166,166,129,4,['y'],['d'],Y,N,N,,,,,female,22
0,167,167,187,4,['y'],['d'],Y,N,N,,,,,female,22
0,168,168,59,4,['n'],['d'],N,N,Y,,,,,female,22
0,169,169,276,4,['y'],['d'],Y,Y,Y,,,,,female,22
0,170,170,156,4,['n'],['d'],N,N,Y,,,,,female,22
0,171,171,258,4,['y'],['d'],Y,Y,Y,,,,,female,22
0,172,172,309,4,['n'],['k'],Y,N,Y,,,,,female,22
0,173,173,314,4,"['y', 'n']",['k'],Y,N,Timed Out,,,,,female,22
0,174,174,525,4,"['y', 'n']",['k'],Y,Y,Timed Out,,,,,female,22
0,175,175,302,4,['y'],['k'],N,N,N,,,,,female,22
0,176,176,137,4,"['y', 'n']",['d'],N,N,Timed Out,,,,,female,22
0,177,177,468,4,['n'],['k'],Y,Y,N,,,,,female,22
0,178,178,224,4,['y'],['d'],N,N,N,,,,,female,22
0,179,179,244,4,"['y', 'n']",['d'],N,Y,Timed Out,,,,,female,22
0,180,180,498,4,['n'],['k'],Y,Y,N,,,,,female,22
0,181,181,188,4,"['y', 'n']",['d'],Y,N,Timed Out,,,,,female,22
0,182,182,428,4,['n'],['k'],Y,N,Y,,,,,female,22
0,183,183,262,4,['y'],['d'],N,N,N,,,,,female,22
0,184,184,182,4,['y'],['d'],Y,Y,Y,,,,,female,22
0,185,185,364,4,['n'],['k'],Y,Y,N,,,,,female,22
0,186,186,562,4,['n'],['k'],N,Y,N,,,,,female,22
0,187,187,246,4,['y'],['d'],N,Y,Y,,,,,female,22
0,188,188,286,4,['n'],['d'],N,Y,N,,,,,female,22
0,189,189,88,4,"['y', 'n']",['d'],Y,N,Timed Out,,,,,female,22
0,190,190,71,4,['n'],['d'],N,Y,N,,,,,female,22
0,191,191,396,4,['y'],['k'],N,N,N,,,,,female,22
0,192,192,348,4,['y'],['k'],N,Y,Y,,,,,female,22
0,193,193,52,4,"['y', 'n']",['d'],Y,N,Timed Out,,,,,female,22
0,194,194,114,4,"['y', 'n']",['d'],N,Y,Timed Out,,,,,female,22
0,195,195,386,4,['n'],['k'],Y,N,Y,,,,,female,22
0,196,196,85,4,['y'],['d'],N,N,N,,,,,female,22
0,197,197,588,4,['n'],['k'],Y,Y,N,,,,,female,22
0,198,198,337,4,['y'],['k'],N,N,N,,,,,female,22
0,199,199,120,4,['y'],['d'],N,Y,Y,24,,,,female,22
0,200,200,329,5,['n'],['k'],N,Y,N,,,,,female,22
0,201,201,558,5,['y'],['k'],Y,Y,Y,,,,,female,22
0,202,202,290,5,['y'],['d'],N,N,N,,,,,female,22
0,203,203,252,5,['y'],['d'],N,N,N,,,,,female,22
0,204,204,411,5,['y'],['k'],N,N,N,,,,,female,22
0,205,205,259,5,['y'],['d'],N,Y,Y,,,,,female,22
0,206,206,418,5,['n'],['k'],Y,N,Y,,,,,female,22
0,207,207,95,5,['n'],['d'],N,Y,N,,,,,female,22
0,208,208,366,5,['y'],['k'],N,N,N,,,,,female,22
0,209,209,301,5,"['y', 'n']",['k'],Y,Y,Timed Out,,,,,female,22
0,210,210,113,5,['y'],['d'],N,Y,Y,,,,,female,22
0,211,211,285,5,['y'],['d'],N,N,N,,,,,female,22
0,212,212,106,5,"['y', 'n']",['d'],N,N,Timed Out,,,,,female,22
0,213,213,174,5,"['y', 'n']",['d'],Y,Y,Timed Out,,,,,female,22
0,214,214,438,5,['y'],['k'],Y,N,N,,,,,female,22
0,215,215,65,5,['n'],['d'],Y,Y,N,,,,,female,22
0,216,216,441,5,['n'],['k'],Y,N,Y,,,,,female,22
0,217,217,177,5,['n'],['d'],Y,N,Y,,,,,female,22
0,218,218,243,5,['n'],['d'],N,Y,N,,,,,female,22
0,219,219,316,5,['n'],['k'],Y,N,Y,,,,,female,22
0,220,220,282,5,['n'],['d'],N,N,Y,,,,,female,22
0,221,221,485,5,['n'],['k'],Y,Y,N,,,,,female,22
0,222,222,37,5,['y'],['d'],Y,N,N,,,,,female,22
0,223,223,313,5,['n'],['k'],Y,Y,N,,,,,female,22
0,224,224,421,5,['n'],['k'],Y,Y,N,,,,,female,22
0,225,225,151,5,['n'],['d'],N,N,Y,,,,,female,22
0,226,226,305,5,['n'],['k'],Y,Y,N,,,,,female,22
0,227,227,161,5,['n'],['d'],N,Y,N,,,,,female,22
0,228,228,266,5,['n'],['d'],N,Y,N,,,,,female,22
0,229,229,560,5,['n'],['k'],Y,N,Y,,,,,female,22
0,230,230,528,5,['n'],['k'],Y,Y,N,,,,,female,22
0,231,231,36,5,['n'],['d'],N,N,Y,,,,,female,22
0,232,232,96,5,['n'],['d'],N,Y,N,,,,,female,22
0,233,233,7,5,['n'],['d'],N,N,Y,,,,,female,22
0,234,234,210,5,['n'],['d'],N,N,Y,,,,,female,22
0,235,235,538,5,['n'],['k'],Y,N,Y,,,,,female,22
0,236,236,492,5,['n'],['k'],Y,N,Y,,,,,female,22
0,237,237,138,5,['n'],['d'],N,N,Y,,,,,female,22
0,238,238,552,5,['n'],['k'],Y,Y,N,,,,,female,22
0,239,239,84,5,['n'],['d'],N,Y,N,,,,,female,22
0,240,240,233,5,['n'],['d'],N,N,Y,,,,,female,22
0,241,241,573,5,['n'],['k'],Y,Y,N,,,,,female,22
0,242,242,481,5,['n'],['k'],Y,N,Y,,,,,female,22
0,243,243,420,5,['n'],['k'],Y,N,Y,,,,,female,22
0,244,244,518,5,['n'],['k'],Y,N,Y,,,,,female,22
0,245,245,599,5,['n'],['k'],Y,N,Y,,,,,female,22
0,246,246,412,5,['n'],['k'],Y,N,Y,,,,,female,22
0,247,247,433,5,['n'],['k'],Y,Y,N,,,,,female,22
0,248,248,42,5,['n'],['d'],N,N,Y,,,,,female,22
0,249,249,167,5,['n'],['d'],N,N,Y,26,,,,female,22
,,,,,,,,,,,,,,,
0,250,250,385,6,['n'],['k'],Y,N,Y,,,,,female,22
0,251,251,331,6,['n'],['k'],Y,Y,N,,,,,female,22
0,252,252,62,6,['n'],['d'],N,Y,N,,,,,female,22
0,253,253,365,6,['n'],['k'],Y,N,Y,,,,,female,22
0,254,254,307,6,['n'],['k'],Y,Y,N,,,,,female,22
0,255,255,461,6,['n'],['k'],Y,Y,N,,,,,female,22
0,256,256,479,6,['n'],['k'],Y,Y,N,,,,,female,22
0,257,257,234,6,['n'],['d'],N,N,Y,,,,,female,22
0,258,258,503,6,['n'],['k'],Y,N,Y,,,,,female,22
0,259,259,289,6,['n'],['d'],N,N,Y,,,,,female,22
0,260,260,231,6,['n'],['d'],N,N,Y,,,,,female,22
0,261,261,341,6,['n'],['k'],Y,Y,N,,,,,female,22
0,262,262,477,6,['n'],['k'],Y,N,Y,,,,,female,22
0,263,263,382,6,['n'],['k'],Y,Y,N,,,,,female,22
0,264,264,539,6,['n'],['k'],Y,Y,N,,,,,female,22
0,265,265,496,6,['n'],['k'],Y,N,Y,,,,,female,22
0,266,266,514,6,['n'],['k'],Y,N,Y,,,,,female,22
0,267,267,292,6,['n'],['d'],N,N,Y,,,,,female,22
0,268,268,214,6,['n'],['d'],N,Y,N,,,,,female,22
0,269,269,69,6,['n'],['d'],N,N,Y,,,,,female,22
0,270,270,100,6,['n'],['d'],N,N,Y,,,,,female,22
0,271,271,304,6,['n'],['k'],Y,N,Y,,,,,female,22
0,272,272,323,6,['n'],['k'],Y,N,Y,,,,,female,22
0,273,273,577,6,['n'],['k'],Y,Y,N,,,,,female,22
0,274,274,334,6,['n'],['k'],Y,Y,N,,,,,female,22
0,275,275,20,6,['n'],['d'],N,Y,N,,,,,female,22
0,276,276,206,6,['n'],['d'],N,N,Y,,,,,female,22
0,277,277,342,6,['n'],['k'],Y,Y,N,,,,,female,22
0,278,278,532,6,['n'],['k'],Y,Y,N,,,,,female,22
0,279,279,242,6,['n'],['d'],N,Y,N,,,,,female,22
0,280,280,178,6,['n'],['d'],N,N,Y,,,,,female,22
0,281,281,112,6,['n'],['d'],N,Y,N,,,,,female,22
0,282,282,255,6,['n'],['d'],N,N,Y,,,,,female,22
0,283,283,431,6,['n'],['k'],Y,Y,N,,,,,female,22
0,284,284,467,6,['n'],['k'],Y,Y,N,,,,,female,22
0,285,285,66,6,['n'],['d'],N,Y,N,,,,,female,22
0,286,286,196,6,['n'],['d'],N,Y,N,,,,,female,22
0,287,287,362,6,['n'],['k'],Y,Y,N,,,,,female,22
0,288,288,325,6,['n'],['k'],Y,N,Y,,,,,female,22
0,289,289,211,6,['n'],['d'],N,N,Y,,,,,female,22
0,290,290,130,6,['n'],['d'],N,Y,N,,,,,female,22
0,291,291,393,6,['n'],['k'],Y,Y,N,,,,,female,22
0,292,292,550,6,['n'],['k'],Y,N,Y,,,,,female,22
0,293,293,403,6,['n'],['k'],Y,N,Y,,,,,female,22
0,294,294,339,6,['n'],['k'],Y,Y,N,,,,,female,22
0,295,295,355,6,['n'],['k'],N,N,Y,,,,,female,22
0,296,296,585,6,['n'],['k'],Y,Y,N,,,,,female,22
0,297,297,82,6,['y'],['d'],N,Y,Y,,,,,female,22
0,298,298,444,6,['y'],['k'],N,Y,Y,,,,,female,22
0,299,299,64,6,['y'],['d'],Y,Y,Y,29,,,,female,22
,,,,,,,,,,,,,,,
0,300,300,395,7,"['y', 'n']",['k'],Y,N,Timed Out,,,,,female,22
0,301,301,263,7,['y'],['d'],N,Y,Y,,,,,female,22
0,302,302,597,7,"['y', 'n']",['k'],N,Y,Timed Out,,,,,female,22
0,303,303,311,7,['y'],['k'],Y,Y,Y,,,,,female,22
0,304,304,147,7,['y'],['d'],Y,N,N,,,,,female,22
0,305,305,149,7,['n'],['d'],N,N,Y,,,,,female,22
0,306,306,430,7,['n'],['k'],N,N,Y,,,,,female,22
0,307,307,297,7,['y'],['d'],Y,Y,Y,,,,,female,22
0,308,308,353,7,['n'],['k'],N,Y,N,,,,,female,22
0,309,309,218,7,['n'],['d'],Y,Y,N,,,,,female,22
0,310,310,397,7,['n'],['k'],Y,Y,N,,,,,female,22
0,311,311,432,7,['n'],['k'],Y,N,Y,,,,,female,22
0,312,312,310,7,['y'],['k'],Y,N,N,,,,,female,22
0,313,313,217,7,['n'],['d'],Y,N,Y,,,,,female,22
0,314,314,508,7,['n'],['k'],Y,Y,N,,,,,female,22
0,315,315,27,7,['n'],['d'],N,Y,N,,,,,female,22
0,316,316,436,7,['n'],['k'],Y,Y,N,,,,,female,22
0,317,317,134,7,['n'],['d'],N,Y,N,,,,,female,22
0,318,318,327,7,['y'],['k'],Y,N,N,,,,,female,22
0,319,319,380,7,['n'],['k'],N,Y,N,,,,,female,22
0,320,320,179,7,['y'],['d'],N,N,N,,,,,female,22
0,321,321,343,7,['y'],['k'],Y,Y,Y,,,,,female,22
0,322,322,390,7,['n'],['k'],N,N,Y,,,,,female,22
0,323,323,203,7,['n'],['d'],N,Y,N,,,,,female,22
0,324,324,381,7,['y'],['k'],N,N,N,,,,,female,22
0,325,325,194,7,['n'],['d'],N,N,Y,,,,,female,22
0,326,326,73,7,None,,Timed out,,,,,,,female,22
0,327,327,9,7,['n'],['d'],N,Y,N,,,,,female,22
0,328,328,579,7,['n'],['k'],Y,Y,N,,,,,female,22
0,329,329,26,7,['n'],['d'],N,N,Y,,,,,female,22
0,330,330,340,7,['n'],['k'],Y,N,Y,,,,,female,22
0,331,331,363,7,['n'],['k'],N,N,Y,,,,,female,22
0,332,332,221,7,['n'],['d'],N,Y,N,,,,,female,22
0,333,333,354,7,['y'],['k'],Y,N,N,,,,,female,22
0,334,334,517,7,['y'],['k'],N,N,N,,,,,female,22
0,335,335,367,7,['n'],['k'],Y,N,Y,,,,,female,22
0,336,336,570,7,['n'],['k'],N,Y,N,,,,,female,22
0,337,337,278,7,['y'],['d'],N,Y,Y,,,,,female,22
0,338,338,450,7,['y'],['k'],Y,N,N,,,,,female,22
0,339,339,193,7,['y'],['d'],Y,N,N,,,,,female,22
0,340,340,5,7,"['y', 'n']",['d'],Y,Y,Timed Out,,,,,female,22
0,341,341,463,7,['y'],['k'],N,N,N,,,,,female,22
0,342,342,185,7,['y'],['d'],Y,Y,Y,,,,,female,22
0,343,343,454,7,['y'],['k'],N,N,N,,,,,female,22
0,344,344,410,7,['n'],['k'],Y,N,Y,,,,,female,22
0,345,345,529,7,['n'],['k'],N,N,Y,,,,,female,22
0,346,346,557,7,['n'],['k'],Y,Y,N,,,,,female,22
0,347,347,135,7,['y'],['d'],N,N,N,,,,,female,22
0,348,348,47,7,['n'],['d'],N,N,Y,,,,,female,22
0,349,349,456,7,['n'],['k'],N,Y,N,23,,,,female,22
,,,,,,,,,,,,,,,
0,350,350,534,8,['n'],['k'],Y,Y,N,,,,,female,22
0,351,351,580,8,['y'],['k'],Y,Y,Y,,,,,female,22
0,352,352,89,8,['y'],['d'],N,N,N,,,,,female,22
0,353,353,589,8,['n'],['k'],N,N,Y,,,,,female,22
0,354,354,227,8,['n'],['d'],N,N,Y,,,,,female,22
0,355,355,586,8,['n'],['k'],N,N,Y,,,,,female,22
0,356,356,414,8,['y'],['k'],Y,N,N,,,,,female,22
0,357,357,283,8,['y'],['d'],Y,N,N,,,,,female,22
0,358,358,264,8,['n'],['d'],N,Y,N,,,,,female,22
0,359,359,572,8,['n'],['k'],Y,Y,N,,,,,female,22
0,360,360,207,8,['n'],['d'],Y,Y,N,,,,,female,22
0,361,361,170,8,['n'],['d'],N,Y,N,,,,,female,22
0,362,362,284,8,['n'],['d'],N,Y,N,,,,,female,22
0,363,363,165,8,"['y', 'n']",['d'],Y,N,Timed Out,,,,,female,22
0,364,364,128,8,['y'],['d'],N,N,N,,,,,female,22
0,365,365,435,8,['n'],['k'],N,N,Y,,,,,female,22
0,366,366,512,8,['n'],['k'],Y,N,Y,,,,,female,22
0,367,367,346,8,['n'],['k'],N,N,Y,,,,,female,22
0,368,368,425,8,['y'],['k'],N,N,N,,,,,female,22
0,369,369,497,8,"['y', 'n']",['k'],Y,Y,Timed Out,,,,,female,22
0,370,370,281,8,['n'],['d'],Y,Y,N,,,,,female,22
0,371,371,275,8,['n'],['d'],Y,Y,N,,,,,female,22
0,372,372,338,8,['n'],['k'],N,N,Y,,,,,female,22
0,373,373,547,8,['y'],['k'],Y,N,N,,,,,female,22
0,374,374,116,8,['n'],['d'],Y,Y,N,,,,,female,22
0,375,375,308,8,['y'],['k'],Y,Y,Y,,,,,female,22
0,376,376,398,8,['n'],['k'],N,Y,N,,,,,female,22
0,377,377,168,8,['n'],['d'],Y,Y,N,,,,,female,22
0,378,378,596,8,['n'],['k'],Y,N,Y,,,,,female,22
0,379,379,368,8,['n'],['k'],Y,N,Y,,,,,female,22
0,380,380,542,8,['n'],['k'],Y,Y,N,,,,,female,22
0,381,381,117,8,['y'],['d'],N,N,N,,,,,female,22
0,382,382,566,8,['n'],['k'],Y,Y,N,,,,,female,22
0,383,383,29,8,['n'],['d'],N,N,Y,,,,,female,22
0,384,384,225,8,['n'],['d'],Y,N,Y,,,,,female,22
0,385,385,371,8,['n'],['k'],N,N,Y,,,,,female,22
0,386,386,495,8,['y'],['k'],Y,N,N,,,,,female,22
0,387,387,452,8,['n'],['k'],N,N,Y,,,,,female,22
0,388,388,237,8,['y'],['d'],N,Y,Y,,,,,female,22
0,389,389,505,8,['y'],['k'],Y,N,N,,,,,female,22
0,390,390,470,8,['y'],['k'],N,N,N,,,,,female,22
0,391,391,494,8,['n'],['k'],N,N,Y,,,,,female,22
0,392,392,61,8,['n'],['d'],Y,N,Y,,,,,female,22
0,393,393,131,8,['y'],['d'],N,N,N,,,,,female,22
0,394,394,115,8,['y'],['d'],N,N,N,,,,,female,22
0,395,395,125,8,['y'],['d'],N,N,N,,,,,female,22
0,396,396,38,8,['n'],['d'],N,Y,N,,,,,female,22
0,397,397,400,8,['n'],['k'],Y,N,Y,,,,,female,22
0,398,398,220,8,['n'],['d'],N,N,Y,,,,,female,22
0,399,399,469,8,['n'],['k'],Y,Y,N,25,,,,female,22
,,,,,,,,,,,,,,,
0,400,400,212,9,['n'],['d'],Y,N,Y,,,,,female,22
0,401,401,405,9,['n'],['k'],N,Y,N,,,,,female,22
0,402,402,321,9,['n'],['k'],N,N,Y,,,,,female,22
0,403,403,464,9,['n'],['k'],Y,N,Y,,,,,female,22
0,404,404,473,9,['n'],['k'],Y,N,Y,,,,,female,22
0,405,405,535,9,['y'],['k'],Y,N,N,,,,,female,22
0,406,406,253,9,['y'],['d'],N,N,N,,,,,female,22
0,407,407,0,9,['y'],['d'],Y,N,N,,,,,female,22
0,408,408,261,9,['y'],['d'],N,Y,Y,,,,,female,22
0,409,409,250,9,['n'],['d'],N,N,Y,,,,,female,22
0,410,410,127,9,['n'],['d'],N,Y,N,,,,,female,22
0,411,411,360,9,['n'],['k'],Y,N,Y,,,,,female,22
0,412,412,576,9,['n'],['k'],N,Y,N,,,,,female,22
0,413,413,465,9,['n'],['k'],Y,N,Y,,,,,female,22
0,414,414,480,9,['n'],['k'],Y,Y,N,,,,,female,22
0,415,415,200,9,['n'],['d'],Y,N,Y,,,,,female,22
0,416,416,487,9,['n'],['k'],Y,Y,N,,,,,female,22
0,417,417,108,9,['n'],['d'],N,N,Y,,,,,female,22
0,418,418,247,9,['n'],['d'],N,Y,N,,,,,female,22
0,419,419,406,9,['n'],['k'],N,N,Y,,,,,female,22
0,420,420,520,9,['n'],['k'],N,N,Y,,,,,female,22
0,421,421,453,9,['n'],['k'],Y,Y,N,,,,,female,22
0,422,422,157,9,"['y', 'n']",['d'],N,Y,Timed Out,,,,,female,22
0,423,423,122,9,['y'],['d'],Y,Y,Y,,,,,female,22
0,424,424,427,9,['n'],['k'],N,Y,N,,,,,female,22
0,425,425,330,9,['n'],['k'],N,N,Y,,,,,female,22
0,426,426,499,9,['y'],['k'],N,N,N,,,,,female,22
0,427,427,19,9,['n'],['d'],Y,N,Y,,,,,female,22
0,428,428,24,9,['n'],['d'],N,Y,N,,,,,female,22
0,429,429,68,9,['y'],['d'],N,Y,Y,,,,,female,22
0,430,430,257,9,['n'],['d'],Y,Y,N,,,,,female,22
0,431,431,545,9,['n'],['k'],N,Y,N,,,,,female,22
0,432,432,288,9,['y'],['d'],N,N,N,,,,,female,22
0,433,433,245,9,['n'],['d'],N,Y,N,,,,,female,22
0,434,434,478,9,"['y', 'n']",['k'],N,N,Timed Out,,,,,female,22
0,435,435,111,9,['n'],['d'],N,N,Y,,,,,female,22
0,436,436,140,9,['y'],['d'],Y,N,N,,,,,female,22
0,437,437,279,9,['y'],['d'],Y,N,N,,,,,female,22
0,438,438,554,9,['y'],['k'],N,Y,Y,,,,,female,22
0,439,439,563,9,['n'],['k'],N,N,Y,,,,,female,22
0,440,440,195,9,['n'],['d'],N,N,Y,,,,,female,22
0,441,441,186,9,['y'],['d'],N,Y,Y,,,,,female,22
0,442,442,515,9,['n'],['k'],Y,Y,N,,,,,female,22
0,443,443,139,9,['y'],['d'],Y,N,N,,,,,female,22
0,444,444,526,9,['n'],['k'],N,Y,N,,,,,female,22
0,445,445,81,9,['n'],['d'],N,Y,N,,,,,female,22
0,446,446,40,9,['n'],['d'],N,N,Y,,,,,female,22
0,447,447,392,9,['n'],['k'],N,N,Y,,,,,female,22
0,448,448,99,9,['n'],['d'],Y,Y,N,,,,,female,22
0,449,449,483,9,['n'],['k'],Y,N,Y,20,,,,female,22
,,,,,,,,,,,,,,,
0,450,450,158,10,['y'],['d'],N,Y,Y,,,,,female,22
0,451,451,544,10,['n'],['k'],Y,Y,N,,,,,female,22
0,452,452,361,10,['y'],['k'],N,N,N,,,,,female,22
0,453,453,121,10,['n'],['d'],N,Y,N,,,,,female,22
0,454,454,449,10,['y'],['k'],Y,Y,Y,,,,,female,22
0,455,455,548,10,['y'],['k'],N,Y,Y,,,,,female,22
0,456,456,389,10,"['y', 'n']",['k'],Y,N,Timed Out,,,,,female,22
0,457,457,55,10,['y'],['d'],N,N,N,,,,,female,22
0,458,458,141,10,['y'],['d'],Y,Y,Y,,,,,female,22
0,459,459,350,10,['n'],['k'],Y,Y,N,,,,,female,22
0,460,460,123,10,['y'],['d'],Y,Y,Y,,,,,female,22
0,461,461,402,10,['y'],['k'],N,Y,Y,,,,,female,22
0,462,462,287,10,['n'],['d'],Y,N,Y,,,,,female,22
0,463,463,273,10,['y'],['d'],Y,N,N,,,,,female,22
0,464,464,370,10,['y'],['k'],Y,N,N,,,,,female,22
0,465,465,269,10,['n'],['d'],Y,N,Y,,,,,female,22
0,466,466,451,10,['y'],['k'],N,N,N,,,,,female,22
0,467,467,14,10,['y'],['d'],N,N,N,,,,,female,22
0,468,468,54,10,['n'],['d'],N,N,Y,,,,,female,22
0,469,469,25,10,['y'],['d'],N,Y,Y,,,,,female,22
0,470,470,76,10,['y'],['d'],N,N,N,,,,,female,22
0,471,471,434,10,['y'],['k'],Y,N,N,,,,,female,22
0,472,472,491,10,['n'],['k'],N,Y,N,,,,,female,22
0,473,473,519,10,['n'],['k'],Y,Y,N,,,,,female,22
0,474,474,44,10,['n'],['d'],N,N,Y,,,,,female,22
0,475,475,110,10,['n'],['d'],N,N,Y,,,,,female,22
0,476,476,375,10,['n'],['k'],Y,Y,N,,,,,female,22
0,477,477,332,10,['n'],['k'],Y,Y,N,,,,,female,22
0,478,478,445,10,['n'],['k'],Y,Y,N,,,,,female,22
0,479,479,143,10,['n'],['d'],N,N,Y,,,,,female,22
0,480,480,201,10,['n'],['d'],N,Y,N,,,,,female,22
0,481,481,426,10,['n'],['k'],Y,N,Y,,,,,female,22
0,482,482,18,10,['n'],['d'],N,N,Y,,,,,female,22
0,483,483,388,10,['n'],['k'],Y,N,Y,,,,,female,22
0,484,484,87,10,['n'],['d'],N,N,Y,,,,,female,22
0,485,485,549,10,['n'],['k'],Y,Y,N,,,,,female,22
0,486,486,559,10,['n'],['k'],Y,N,Y,,,,,female,22
0,487,487,551,10,['n'],['k'],Y,N,Y,,,,,female,22
0,488,488,471,10,['n'],['k'],Y,Y,N,,,,,female,22
0,489,489,404,10,['n'],['k'],Y,N,Y,,,,,female,22
0,490,490,378,10,['n'],['k'],Y,Y,N,,,,,female,22
0,491,491,489,10,['n'],['k'],Y,Y,N,,,,,female,22
0,492,492,256,10,['n'],['d'],N,N,Y,,,,,female,22
0,493,493,3,10,['n'],['d'],N,N,Y,,,,,female,22
0,494,494,319,10,['n'],['k'],Y,Y,N,,,,,female,22
0,495,495,155,10,['n'],['d'],N,Y,N,,,,,female,22
0,496,496,407,10,['n'],['k'],Y,N,Y,,,,,female,22
0,497,497,268,10,['n'],['d'],N,N,Y,,,,,female,22
0,498,498,459,10,['n'],['k'],Y,N,Y,,,,,female,22
0,499,499,419,10,['n'],['k'],Y,Y,N,28,,,,female,22
,,,,,,,"28 correct, 22 wrong",,,,,,,,
0,500,500,413,11,['n'],['k'],N,N,Y,,Y,Y,Y,female,22
0,501,501,379,11,['y'],['k'],N,N,N,,,Y,Y,female,22
0,502,502,213,11,['n'],['d'],N,Y,N,,,Y,Y,female,22
0,503,503,145,11,['y'],['d'],N,Y,Y,,,Y,Y,female,22
0,504,504,521,11,['y'],['k'],N,Y,Y,,,Y,Y,female,22
0,505,505,28,11,['y'],['d'],Y,Y,Y,,,Y,Y,female,22
0,506,506,150,11,['y'],['d'],Y,N,N,,,Y,Y,female,22
0,507,507,318,11,['y'],['k'],N,Y,Y,,,Y,Y,female,22
0,508,508,162,11,['y'],['d'],Y,Y,Y,,,Y,Y,female,22
0,509,509,322,11,['n'],['k'],Y,Y,N,,,Y,Y,female,22
0,510,510,152,11,['n'],['d'],Y,N,Y,,,Y,Y,female,22
0,511,511,555,11,['y'],['k'],N,N,N,,,Y,Y,female,22
0,512,512,50,11,['n'],['d'],N,Y,N,,,Y,Y,female,22
0,513,513,91,11,['n'],['d'],Y,Y,N,,,Y,Y,female,22
0,514,514,232,11,['y'],['d'],Y,Y,Y,,,Y,Y,female,22
0,515,515,511,11,['n'],['k'],Y,N,Y,,,Y,Y,female,22
0,516,516,446,11,['n'],['k'],N,Y,N,,,Y,Y,female,22
0,517,517,104,11,['n'],['d'],Y,N,Y,,,Y,Y,female,22
0,518,518,176,11,['n'],['d'],N,Y,N,,,Y,Y,female,22
0,519,519,267,11,['y'],['d'],Y,Y,Y,,,Y,Y,female,22
0,520,520,202,11,['y'],['d'],Y,Y,Y,,,Y,Y,female,22
0,521,521,543,11,['y'],['k'],Y,N,N,,,Y,Y,female,22
0,522,522,506,11,['y'],['k'],N,N,N,,,Y,Y,female,22
0,523,523,57,11,['y'],['d'],N,N,N,,,Y,Y,female,22
0,524,524,429,11,['n'],['k'],N,Y,N,,,Y,Y,female,22
0,525,525,299,11,['y'],['d'],N,N,N,,,Y,Y,female,22
0,526,526,583,11,['n'],['k'],Y,N,Y,,,Y,Y,female,22
0,527,527,356,11,['n'],['k'],Y,Y,N,,,Y,Y,female,22
0,528,528,10,11,['n'],['d'],Y,N,Y,,,Y,Y,female,22
0,529,529,391,11,['n'],['k'],Y,N,Y,,,Y,Y,female,22
0,530,530,564,11,['n'],['k'],N,N,Y,,,Y,Y,female,22
0,531,531,524,11,['y'],['k'],Y,N,N,,,Y,Y,female,22
0,532,532,43,11,None,['d'],N,Y,Timed Out,,,Y,Y,female,22
0,533,533,16,11,['n'],['d'],N,N,Y,,,Y,Y,female,22
0,534,534,293,11,['n'],['d'],Y,N,Y,,,Y,Y,female,22
0,535,535,17,11,['n'],['d'],N,Y,N,,,Y,Y,female,22
0,536,536,2,11,['n'],['d'],N,N,Y,,,Y,Y,female,22
0,537,537,455,11,['y'],['k'],N,Y,Y,,,Y,Y,female,22
0,538,538,504,11,['n'],['k'],N,Y,N,,,Y,Y,female,22
0,539,539,80,11,['y'],['d'],Y,N,N,,,Y,Y,female,22
0,540,540,107,11,['n'],['d'],Y,Y,N,,,Y,Y,female,22
0,541,541,373,11,"['y', 'n']",['k'],N,Y,Timed Out,,,Y,Y,female,22
0,542,542,102,11,['n'],['d'],Y,Y,N,,,Y,Y,female,22
0,543,543,70,11,['n'],['d'],Y,N,Y,,,Y,Y,female,22
0,544,544,335,11,['y'],['k'],N,Y,Y,,,Y,Y,female,22
0,545,545,223,11,['y'],['d'],N,N,N,,,Y,Y,female,22
0,546,546,49,11,['n'],['d'],Y,Y,N,,,Y,Y,female,22
0,547,547,457,11,['n'],['k'],Y,Y,N,,,Y,Y,female,22
0,548,548,315,11,['y'],['k'],Y,N,N,,,Y,Y,female,22
0,549,549,192,11,['y'],['d'],Y,N,N,26,,Y,Y,female,22
0,550,550,63,12,['n'],['d'],Y,Y,N,,,Y,Y,female,22
0,551,551,423,12,['n'],['k'],N,N,Y,,,Y,Y,female,22
0,552,552,229,12,None,,Timed out,,,,,Y,Y,female,22
0,553,553,376,12,['n'],['k'],N,Y,N,,,Y,Y,female,22
0,554,554,164,12,['n'],['d'],Y,Y,N,,,Y,Y,female,22
0,555,555,228,12,['n'],['d'],Y,N,Y,,,Y,Y,female,22
0,556,556,8,12,['n'],['d'],Y,N,Y,,,Y,Y,female,22
0,557,557,45,12,['n'],['d'],Y,Y,N,,,Y,Y,female,22
0,558,558,136,12,['n'],['d'],Y,Y,N,,,Y,Y,female,22
0,559,559,595,12,['n'],['k'],N,N,Y,,,Y,Y,female,22
0,560,560,598,12,['n'],['k'],N,Y,N,,,Y,Y,female,22
0,561,561,502,12,['n'],['k'],N,N,Y,,,Y,Y,female,22
0,562,562,448,12,['n'],['k'],N,N,Y,,,Y,Y,female,22
0,563,563,11,12,['n'],['d'],Y,Y,N,,,Y,Y,female,22
0,564,564,344,12,['n'],['k'],N,Y,N,,,Y,Y,female,22
0,565,565,180,12,['n'],['d'],Y,N,Y,,,Y,Y,female,22
0,566,566,541,12,['n'],['k'],N,N,Y,,,Y,Y,female,22
0,567,567,584,12,['n'],['k'],N,Y,N,,,Y,Y,female,22
0,568,568,533,12,['n'],['k'],N,N,Y,,,Y,Y,female,22
0,569,569,277,12,['n'],['d'],Y,N,Y,,,Y,Y,female,22
0,570,570,181,12,['n'],['d'],Y,N,Y,,,Y,Y,female,22
0,571,571,500,12,['n'],['k'],N,Y,N,,,Y,Y,female,22
0,572,572,493,12,['n'],['k'],N,N,Y,,,Y,Y,female,22
0,573,573,540,12,['n'],['k'],N,Y,N,,,Y,Y,female,22
0,574,574,460,12,['n'],['k'],N,N,Y,,,Y,Y,female,22
0,575,575,556,12,['n'],['k'],N,Y,N,,,Y,Y,female,22
0,576,576,133,12,['n'],['d'],Y,N,Y,,,Y,Y,female,22
0,577,577,437,12,None,['k'],N,Y,Timed Out,,,Y,Y,female,22
0,578,578,97,12,['n'],['d'],Y,Y,N,,,Y,Y,female,22
0,579,579,83,12,['n'],['d'],Y,Y,N,,,Y,Y,female,22
0,580,580,153,12,['n'],['d'],Y,Y,N,,,Y,Y,female,22
0,581,581,132,12,['n'],['d'],Y,N,Y,,,Y,Y,female,22
0,582,582,349,12,['n'],['k'],N,Y,N,,,Y,Y,female,22
0,583,583,296,12,['n'],['d'],Y,N,Y,,,Y,Y,female,22
0,584,584,458,12,['n'],['k'],N,Y,N,,,Y,Y,female,22
0,585,585,6,12,['n'],['d'],Y,Y,N,,,Y,Y,female,22
0,586,586,358,12,['n'],['k'],N,N,Y,,,Y,Y,female,22
0,587,587,501,12,['n'],['k'],N,N,Y,,,Y,Y,female,22
0,588,588,320,12,['n'],['k'],N,Y,N,,,Y,Y,female,22
0,589,589,447,12,['n'],['k'],N,Y,N,,,Y,Y,female,22
0,590,590,482,12,['n'],['k'],N,Y,N,,,Y,Y,female,22
0,591,591,587,12,['n'],['k'],N,Y,N,,,Y,Y,female,22
0,592,592,569,12,['n'],['k'],N,Y,N,,,Y,Y,female,22
0,593,593,119,12,['n'],['d'],Y,N,Y,,,Y,Y,female,22
0,594,594,530,12,['n'],['k'],N,N,Y,,,Y,Y,female,22
0,595,595,592,12,['n'],['k'],N,Y,N,,,Y,Y,female,22
0,596,596,53,12,['n'],['d'],Y,Y,N,,,Y,Y,female,22
0,597,597,222,12,['n'],['d'],Y,Y,N,,,Y,Y,female,22
0,598,598,72,12,['n'],['d'],Y,N,Y,,,Y,Y,female,22
0,599,599,591,12,['n'],['k'],N,N,Y,21,,Y,Y,female,22
