.thisRepN,.thisTrialN,.thisN,.thisIndex,Block Number,Key pressed,Category,Correct?,Button switch shown?,Actually switched?,Fast?,gender,age
0,0,0,437,1,['d'],['k'],N,,,,F,23
0,1,1,495,1,['k'],['k'],Y,,,,F,23
0,2,2,552,1,['d'],['k'],N,,,,F,23
0,3,3,55,1,['d'],['d'],Y,,,,F,23
0,4,4,23,1,['k'],['d'],N,,,,F,23
0,5,5,449,1,None,,Timed out,,,,F,23
0,6,6,528,1,['d'],['k'],N,,,,F,23
0,7,7,275,1,['d'],['d'],Y,,,,F,23
0,8,8,315,1,['k'],['k'],Y,,,,F,23
0,9,9,440,1,['k'],['k'],Y,,,,F,23
0,10,10,342,1,['d'],['k'],N,,,,F,23
0,11,11,380,1,['k'],['k'],Y,,,,F,23
0,12,12,547,1,['k'],['k'],Y,,,,F,23
0,13,13,381,1,['k'],['k'],Y,,,,F,23
0,14,14,486,1,['k'],['k'],Y,,,,F,23
0,15,15,549,1,['k'],['k'],Y,,,,F,23
0,16,16,442,1,['k'],['k'],Y,,,,F,23
0,17,17,108,1,['d'],['d'],Y,,,,F,23
0,18,18,73,1,['k'],['d'],N,,,,F,23
0,19,19,575,1,['d'],['k'],N,,,,F,23
0,20,20,135,1,['d'],['d'],Y,,,,F,23
0,21,21,485,1,['k'],['k'],Y,,,,F,23
0,22,22,386,1,['k'],['k'],Y,,,,F,23
0,23,23,546,1,['k'],['k'],Y,,,,F,23
0,24,24,385,1,['k'],['k'],Y,,,,F,23
0,25,25,69,1,['d'],['d'],Y,,,,F,23
0,26,26,582,1,['k'],['k'],Y,,,,F,23
0,27,27,182,1,['d'],['d'],Y,,,,F,23
0,28,28,115,1,['d'],['d'],Y,,,,F,23
0,29,29,63,1,['k'],['d'],N,,,,F,23
0,30,30,586,1,['k'],['k'],Y,,,,F,23
0,31,31,361,1,['k'],['k'],Y,,,,F,23
0,32,32,471,1,['d'],['k'],N,,,,F,23
0,33,33,178,1,['d'],['d'],Y,,,,F,23
0,34,34,533,1,['k'],['k'],Y,,,,F,23
0,35,35,421,1,['k'],['k'],Y,,,,F,23
0,36,36,379,1,['d'],['k'],N,,,,F,23
0,37,37,541,1,['k'],['k'],Y,,,,F,23
0,38,38,198,1,['d'],['d'],Y,,,,F,23
0,39,39,252,1,['d'],['d'],Y,,,,F,23
0,40,40,405,1,['k'],['k'],Y,,,,F,23
0,41,41,456,1,['k'],['k'],Y,,,,F,23
0,42,42,283,1,['k'],['d'],N,,,,F,23
0,43,43,7,1,None,,Timed out,,,,F,23
0,44,44,457,1,['k'],['k'],Y,,,,F,23
0,45,45,410,1,['k'],['k'],Y,,,,F,23
0,46,46,450,1,['d'],['k'],N,,,,F,23
0,47,47,280,1,['d'],['d'],Y,,,,F,23
0,48,48,365,1,['k'],['k'],Y,,,,F,23
0,49,49,262,1,['d'],['d'],Y,,,,F,23
,,,,,,,"36, 14",,,,,
0,50,50,530,2,['k'],['k'],Y,,,,F,23
0,51,51,231,2,['d'],['d'],Y,,,,F,23
0,52,52,210,2,['d'],['d'],Y,,,,F,23
0,53,53,384,2,['k'],['k'],Y,,,,F,23
0,54,54,522,2,['d'],['k'],N,,,,F,23
0,55,55,230,2,['d'],['d'],Y,,,,F,23
0,56,56,376,2,['k'],['k'],Y,,,,F,23
0,57,57,504,2,['k'],['k'],Y,,,,F,23
0,58,58,431,2,['k'],['k'],Y,,,,F,23
0,59,59,86,2,['k'],['d'],N,,,,F,23
0,60,60,179,2,['k'],['d'],N,,,,F,23
0,61,61,277,2,['d'],['d'],Y,,,,F,23
0,62,62,81,2,['k'],['d'],N,,,,F,23
0,63,63,345,2,['k'],['k'],Y,,,,F,23
0,64,64,290,2,['d'],['d'],Y,,,,F,23
0,65,65,483,2,['d'],['k'],N,,,,F,23
0,66,66,258,2,['d'],['d'],Y,,,,F,23
0,67,67,436,2,['k'],['k'],Y,,,,F,23
0,68,68,236,2,['d'],['d'],Y,,,,F,23
0,69,69,291,2,['k'],['d'],N,,,,F,23
0,70,70,502,2,['k'],['k'],Y,,,,F,23
0,71,71,209,2,['d'],['d'],Y,,,,F,23
0,72,72,569,2,['k'],['k'],Y,,,,F,23
0,73,73,163,2,['d'],['d'],Y,,,,F,23
0,74,74,208,2,['d'],['d'],Y,,,,F,23
0,75,75,285,2,['d'],['d'],Y,,,,F,23
0,76,76,550,2,['k'],['k'],Y,,,,F,23
0,77,77,545,2,['k'],['k'],Y,,,,F,23
0,78,78,177,2,['d'],['d'],Y,,,,F,23
0,79,79,157,2,['d'],['d'],Y,,,,F,23
0,80,80,102,2,['d'],['d'],Y,,,,F,23
0,81,81,244,2,['d'],['d'],Y,,,,F,23
0,82,82,368,2,['k'],['k'],Y,,,,F,23
0,83,83,307,2,['k'],['k'],Y,,,,F,23
0,84,84,500,2,['d'],['k'],N,,,,F,23
0,85,85,33,2,['d'],['d'],Y,,,,F,23
0,86,86,570,2,['k'],['k'],Y,,,,F,23
0,87,87,221,2,['d'],['d'],Y,,,,F,23
0,88,88,276,2,['d'],['d'],Y,,,,F,23
0,89,89,336,2,['k'],['k'],Y,,,,F,23
0,90,90,84,2,['d'],['d'],Y,,,,F,23
0,91,91,98,2,['d'],['d'],Y,,,,F,23
0,92,92,479,2,['k'],['k'],Y,,,,F,23
0,93,93,79,2,['d'],['d'],Y,,,,F,23
0,94,94,92,2,['d'],['d'],Y,,,,F,23
0,95,95,317,2,['k'],['k'],Y,,,,F,23
0,96,96,574,2,['k'],['k'],Y,,,,F,23
0,97,97,39,2,['k'],['d'],N,,,,F,23
0,98,98,12,2,['d'],['d'],Y,,,,F,23
0,99,99,360,2,['k'],['k'],Y,,,,F,23
,,,,,,,42,,,,,
0,100,100,47,3,['d'],['d'],Y,,,,F,23
0,101,101,263,3,['d'],['d'],Y,,,,F,23
0,102,102,583,3,['k'],['k'],Y,,,,F,23
0,103,103,155,3,['d'],['d'],Y,,,,F,23
0,104,104,497,3,['k'],['k'],Y,,,,F,23
0,105,105,490,3,['k'],['k'],Y,,,,F,23
0,106,106,191,3,['d'],['d'],Y,,,,F,23
0,107,107,521,3,['k'],['k'],Y,,,,F,23
0,108,108,131,3,['d'],['d'],Y,,,,F,23
0,109,109,538,3,['k'],['k'],Y,,,,F,23
0,110,110,448,3,['k'],['k'],Y,,,,F,23
0,111,111,247,3,['d'],['d'],Y,,,,F,23
0,112,112,216,3,['k'],['d'],N,,,,F,23
0,113,113,321,3,['k'],['k'],Y,,,,F,23
0,114,114,26,3,['k'],['d'],N,,,,F,23
0,115,115,15,3,['d'],['d'],Y,,,,F,23
0,116,116,106,3,['d'],['d'],Y,,,,F,23
0,117,117,334,3,['k'],['k'],Y,,,,F,23
0,118,118,481,3,['k'],['k'],Y,,,,F,23
0,119,119,566,3,['k'],['k'],Y,,,,F,23
0,120,120,144,3,['d'],['d'],Y,,,,F,23
0,121,121,66,3,['d'],['d'],Y,,,,F,23
0,122,122,527,3,['k'],['k'],Y,,,,F,23
0,123,123,120,3,['d'],['d'],Y,,,,F,23
0,124,124,555,3,['k'],['k'],Y,,,,F,23
0,125,125,506,3,['k'],['k'],Y,,,,F,23
0,126,126,114,3,['d'],['d'],Y,,,,F,23
0,127,127,513,3,['k'],['k'],Y,,,,F,23
0,128,128,427,3,['k'],['k'],Y,,,,F,23
0,129,129,27,3,['d'],['d'],Y,,,,F,23
0,130,130,395,3,['d'],['k'],N,,,,F,23
0,131,131,455,3,['k'],['k'],Y,,,,F,23
0,132,132,58,3,['k'],['d'],N,,,,F,23
0,133,133,489,3,['d'],['k'],N,,,,F,23
0,134,134,154,3,['d'],['d'],Y,,,,F,23
0,135,135,242,3,['k'],['d'],N,,,,F,23
0,136,136,439,3,['d'],['k'],N,,,,F,23
0,137,137,463,3,['k'],['k'],Y,,,,F,23
0,138,138,161,3,['d'],['d'],Y,,,,F,23
0,139,139,453,3,['k'],['k'],Y,,,,F,23
0,140,140,494,3,['k'],['k'],Y,,,,F,23
0,141,141,62,3,['d'],['d'],Y,,,,F,23
0,142,142,54,3,['d'],['d'],Y,,,,F,23
0,143,143,338,3,['k'],['k'],Y,,,,F,23
0,144,144,9,3,['d'],['d'],Y,,,,F,23
0,145,145,396,3,['d'],['k'],N,,,,F,23
0,146,146,97,3,['d'],['d'],Y,,,,F,23
0,147,147,428,3,['k'],['k'],Y,,,,F,23
0,148,148,36,3,['d'],['d'],Y,,,,F,23
0,149,149,296,3,['d'],['d'],Y,,,,F,23
,,,,,,,42,,,,,
0,150,150,340,4,['k'],['k'],Y,,,,F,23
0,151,151,207,4,['d'],['d'],Y,,,,F,23
0,152,152,587,4,['k'],['k'],Y,,,,F,23
0,153,153,45,4,['d'],['d'],Y,,,,F,23
0,154,154,51,4,['d'],['d'],Y,,,,F,23
0,155,155,430,4,['k'],['k'],Y,,,,F,23
0,156,156,288,4,['k'],['d'],N,,,,F,23
0,157,157,186,4,['d'],['d'],Y,,,,F,23
0,158,158,363,4,['k'],['k'],Y,,,,F,23
0,159,159,121,4,['d'],['d'],Y,,,,F,23
0,160,160,196,4,['k'],['d'],N,,,,F,23
0,161,161,516,4,['k'],['k'],Y,,,,F,23
0,162,162,136,4,['d'],['d'],Y,,,,F,23
0,163,163,167,4,['d'],['d'],Y,,,,F,23
0,164,164,35,4,['d'],['d'],Y,,,,F,23
0,165,165,444,4,['k'],['k'],Y,,,,F,23
0,166,166,116,4,['d'],['d'],Y,,,,F,23
0,167,167,593,4,['k'],['k'],Y,,,,F,23
0,168,168,573,4,['k'],['k'],Y,,,,F,23
0,169,169,71,4,['d'],['d'],Y,,,,F,23
0,170,170,151,4,['d'],['d'],Y,,,,F,23
0,171,171,68,4,['d'],['d'],Y,,,,F,23
0,172,172,523,4,['d'],['k'],N,,,,F,23
0,173,173,107,4,['d'],['d'],Y,,,,F,23
0,174,174,311,4,['d'],['k'],N,,,,F,23
0,175,175,287,4,['d'],['d'],Y,,,,F,23
0,176,176,452,4,['k'],['k'],Y,,,,F,23
0,177,177,584,4,['d'],['k'],N,,,,F,23
0,178,178,137,4,['k'],['d'],N,,,,F,23
0,179,179,250,4,['d'],['d'],Y,,,,F,23
0,180,180,537,4,['k'],['k'],Y,,,,F,23
0,181,181,217,4,['k'],['d'],N,,,,F,23
0,182,182,557,4,['k'],['k'],Y,,,,F,23
0,183,183,265,4,['d'],['d'],Y,,,,F,23
0,184,184,37,4,['d'],['d'],Y,,,,F,23
0,185,185,487,4,['k'],['k'],Y,,,,F,23
0,186,186,542,4,['k'],['k'],Y,,,,F,23
0,187,187,349,4,['d'],['k'],N,,,,F,23
0,188,188,192,4,['d'],['d'],Y,,,,F,23
0,189,189,4,4,['d'],['d'],Y,,,,F,23
0,190,190,553,4,['k'],['k'],Y,,,,F,23
0,191,191,567,4,['k'],['k'],Y,,,,F,23
0,192,192,90,4,['k'],['d'],N,,,,F,23
0,193,193,447,4,['k'],['k'],Y,,,,F,23
0,194,194,228,4,['d'],['d'],Y,,,,F,23
0,195,195,20,4,['d'],['d'],Y,,,,F,23
0,196,196,597,4,['k'],['k'],Y,,,,F,23
0,197,197,104,4,['d'],['d'],Y,,,,F,23
0,198,198,309,4,['k'],['k'],Y,,,,F,23
0,199,199,147,4,['d'],['d'],Y,,,,F,23
,,,,,,,41,,,,,
0,200,200,34,5,['k'],['d'],N,,,,F,23
0,201,201,373,5,['d'],['k'],N,,,,F,23
0,202,202,559,5,['k'],['k'],Y,,,,F,23
0,203,203,173,5,['k'],['d'],N,,,,F,23
0,204,204,302,5,['k'],['k'],Y,,,,F,23
0,205,205,256,5,['k'],['d'],N,,,,F,23
0,206,206,507,5,['k'],['k'],Y,,,,F,23
0,207,207,124,5,['d'],['d'],Y,,,,F,23
0,208,208,434,5,['k'],['k'],Y,,,,F,23
0,209,209,53,5,['d'],['d'],Y,,,,F,23
0,210,210,524,5,['k'],['k'],Y,,,,F,23
0,211,211,253,5,['k'],['d'],N,,,,F,23
0,212,212,245,5,['d'],['d'],Y,,,,F,23
0,213,213,322,5,['k'],['k'],Y,,,,F,23
0,214,214,394,5,['k'],['k'],Y,,,,F,23
0,215,215,28,5,['k'],['d'],N,,,,F,23
0,216,216,61,5,['d'],['d'],Y,,,,F,23
0,217,217,205,5,['d'],['d'],Y,,,,F,23
0,218,218,387,5,['k'],['k'],Y,,,,F,23
0,219,219,76,5,['d'],['d'],Y,,,,F,23
0,220,220,451,5,['k'],['k'],Y,,,,F,23
0,221,221,148,5,['d'],['d'],Y,,,,F,23
0,222,222,43,5,['k'],['d'],N,,,,F,23
0,223,223,540,5,['k'],['k'],Y,,,,F,23
0,224,224,78,5,['k'],['d'],N,,,,F,23
0,225,225,176,5,['d'],['d'],Y,,,,F,23
0,226,226,329,5,['k'],['k'],Y,,,,F,23
0,227,227,19,5,['d'],['d'],Y,,,,F,23
0,228,228,325,5,['k'],['k'],Y,,,,F,23
0,229,229,374,5,['d'],['k'],N,,,,F,23
0,230,230,525,5,['k'],['k'],Y,,,,F,23
0,231,231,392,5,['k'],['k'],Y,,,,F,23
0,232,232,323,5,['k'],['k'],Y,,,,F,23
0,233,233,478,5,['k'],['k'],Y,,,,F,23
0,234,234,218,5,['d'],['d'],Y,,,,F,23
0,235,235,59,5,['k'],['d'],N,,,,F,23
0,236,236,284,5,['d'],['d'],Y,,,,F,23
0,237,237,42,5,['d'],['d'],Y,,,,F,23
0,238,238,203,5,['d'],['d'],Y,,,,F,23
0,239,239,355,5,['k'],['k'],Y,,,,F,23
0,240,240,130,5,['k'],['d'],N,,,,F,23
0,241,241,572,5,['k'],['k'],Y,,,,F,23
0,242,242,127,5,['d'],['d'],Y,,,,F,23
0,243,243,111,5,['d'],['d'],Y,,,,F,23
0,244,244,510,5,['k'],['k'],Y,,,,F,23
0,245,245,269,5,['d'],['d'],Y,,,,F,23
0,246,246,441,5,['k'],['k'],Y,,,,F,23
0,247,247,408,5,['k'],['k'],Y,,,,F,23
0,248,248,67,5,['d'],['d'],Y,,,,F,23
0,249,249,326,5,['k'],['k'],Y,,,,F,23
,,,,,,,"39, 11",,,,,
0,250,250,425,6,['k'],['k'],Y,,,,F,23
0,251,251,212,6,['d'],['d'],Y,,,,F,23
0,252,252,531,6,['k'],['k'],Y,,,,F,23
0,253,253,21,6,['d'],['d'],Y,,,,F,23
0,254,254,56,6,['d'],['d'],Y,,,,F,23
0,255,255,289,6,['k'],['d'],N,,,,F,23
0,256,256,585,6,['k'],['k'],Y,,,,F,23
0,257,257,153,6,['d'],['d'],Y,,,,F,23
0,258,258,29,6,['d'],['d'],Y,,,,F,23
0,259,259,3,6,['d'],['d'],Y,,,,F,23
0,260,260,16,6,['d'],['d'],Y,,,,F,23
0,261,261,204,6,['d'],['d'],Y,,,,F,23
0,262,262,171,6,['d'],['d'],Y,,,,F,23
0,263,263,423,6,['k'],['k'],Y,,,,F,23
0,264,264,543,6,['k'],['k'],Y,,,,F,23
0,265,265,571,6,['k'],['k'],Y,,,,F,23
0,266,266,548,6,['k'],['k'],Y,,,,F,23
0,267,267,93,6,['d'],['d'],Y,,,,F,23
0,268,268,470,6,['k'],['k'],Y,,,,F,23
0,269,269,419,6,['k'],['k'],Y,,,,F,23
0,270,270,464,6,['k'],['k'],Y,,,,F,23
0,271,271,174,6,['d'],['d'],Y,,,,F,23
0,272,272,65,6,['d'],['d'],Y,,,,F,23
0,273,273,505,6,['d'],['k'],N,,,,F,23
0,274,274,589,6,['k'],['k'],Y,,,,F,23
0,275,275,44,6,['d'],['d'],Y,,,,F,23
0,276,276,146,6,['d'],['d'],Y,,,,F,23
0,277,277,233,6,['k'],['d'],N,,,,F,23
0,278,278,468,6,['k'],['k'],Y,,,,F,23
0,279,279,96,6,['d'],['d'],Y,,,,F,23
0,280,280,369,6,['k'],['k'],Y,,,,F,23
0,281,281,359,6,['k'],['k'],Y,,,,F,23
0,282,282,458,6,['k'],['k'],Y,,,,F,23
0,283,283,5,6,['k'],['d'],N,,,,F,23
0,284,284,331,6,['k'],['k'],Y,,,,F,23
0,285,285,138,6,['k'],['d'],N,,,,F,23
0,286,286,579,6,['d'],['k'],N,,,,F,23
0,287,287,1,6,['d'],['d'],Y,,,,F,23
0,288,288,57,6,['d'],['d'],Y,,,,F,23
0,289,289,2,6,['k'],['d'],N,,,,F,23
0,290,290,215,6,['d'],['d'],Y,,,,F,23
0,291,291,366,6,['k'],['k'],Y,,,,F,23
0,292,292,222,6,['k'],['d'],N,,,,F,23
0,293,293,224,6,['d'],['d'],Y,,,,F,23
0,294,294,519,6,['k'],['k'],Y,,,,F,23
0,295,295,517,6,['k'],['k'],Y,,,,F,23
0,296,296,554,6,['k'],['k'],Y,,,,F,23
0,297,297,435,6,['k'],['k'],Y,,,,F,23
0,298,298,350,6,['k'],['k'],Y,,,,F,23
0,299,299,406,6,['k'],['k'],Y,,,,F,23
,,,,,,,42,,,,,
0,300,300,563,7,['k'],['k'],Y,,,,F,23
0,301,301,508,7,['k'],['k'],Y,,,,F,23
0,302,302,185,7,['d'],['d'],Y,,,,F,23
0,303,303,564,7,['d'],['k'],N,,,,F,23
0,304,304,41,7,['d'],['d'],Y,,,,F,23
0,305,305,169,7,['d'],['d'],Y,,,,F,23
0,306,306,598,7,['k'],['k'],Y,,,,F,23
0,307,307,347,7,['k'],['k'],Y,,,,F,23
0,308,308,271,7,['d'],['d'],Y,,,,F,23
0,309,309,514,7,['k'],['k'],Y,,,,F,23
0,310,310,403,7,['d'],['k'],N,,,,F,23
0,311,311,282,7,['d'],['d'],Y,,,,F,23
0,312,312,257,7,['d'],['d'],Y,,,,F,23
0,313,313,474,7,['k'],['k'],Y,,,,F,23
0,314,314,83,7,['k'],['d'],N,,,,F,23
0,315,315,184,7,['k'],['d'],N,,,,F,23
0,316,316,509,7,['k'],['k'],Y,,,,F,23
0,317,317,314,7,['k'],['k'],Y,,,,F,23
0,318,318,308,7,['k'],['k'],Y,,,,F,23
0,319,319,426,7,['k'],['k'],Y,,,,F,23
0,320,320,22,7,['d'],['d'],Y,,,,F,23
0,321,321,352,7,['k'],['k'],Y,,,,F,23
0,322,322,416,7,['k'],['k'],Y,,,,F,23
0,323,323,292,7,['k'],['d'],N,,,,F,23
0,324,324,149,7,['k'],['d'],N,,,,F,23
0,325,325,313,7,['k'],['k'],Y,,,,F,23
0,326,326,160,7,['d'],['d'],Y,,,,F,23
0,327,327,261,7,['d'],['d'],Y,,,,F,23
0,328,328,80,7,['d'],['d'],Y,,,,F,23
0,329,329,320,7,['k'],['k'],Y,,,,F,23
0,330,330,125,7,['d'],['d'],Y,,,,F,23
0,331,331,122,7,['k'],['d'],N,,,,F,23
0,332,332,562,7,['k'],['k'],Y,,,,F,23
0,333,333,128,7,['d'],['d'],Y,,,,F,23
0,334,334,328,7,['k'],['k'],Y,,,,F,23
0,335,335,461,7,['k'],['k'],Y,,,,F,23
0,336,336,484,7,['k'],['k'],Y,,,,F,23
0,337,337,162,7,['d'],['d'],Y,,,,F,23
0,338,338,388,7,['k'],['k'],Y,,,,F,23
0,339,339,518,7,['k'],['k'],Y,,,,F,23
0,340,340,46,7,['d'],['d'],Y,,,,F,23
0,341,341,339,7,['k'],['k'],Y,,,,F,23
0,342,342,591,7,['k'],['k'],Y,,,,F,23
0,343,343,220,7,['d'],['d'],Y,,,,F,23
0,344,344,226,7,['d'],['d'],Y,,,,F,23
0,345,345,377,7,['k'],['k'],Y,,,,F,23
0,346,346,577,7,['d'],['k'],N,,,,F,23
0,347,347,274,7,['d'],['d'],Y,,,,F,23
0,348,348,319,7,['k'],['k'],Y,,,,F,23
0,349,349,133,7,['d'],['d'],Y,,,,F,23
,,,,,,,42,,,,,
0,350,350,578,8,['k'],['k'],Y,,,,F,23
0,351,351,229,8,['d'],['d'],Y,,,,F,23
0,352,352,312,8,['k'],['k'],Y,,,,F,23
0,353,353,168,8,['d'],['d'],Y,,,,F,23
0,354,354,142,8,['d'],['d'],Y,,,,F,23
0,355,355,248,8,['d'],['d'],Y,,,,F,23
0,356,356,246,8,['d'],['d'],Y,,,,F,23
0,357,357,305,8,['k'],['k'],Y,,,,F,23
0,358,358,341,8,['d'],['k'],N,,,,F,23
0,359,359,52,8,['d'],['d'],Y,,,,F,23
0,360,360,357,8,['k'],['k'],Y,,,,F,23
0,361,361,491,8,['k'],['k'],Y,,,,F,23
0,362,362,156,8,['d'],['d'],Y,,,,F,23
0,363,363,103,8,['d'],['d'],Y,,,,F,23
0,364,364,576,8,['k'],['k'],Y,,,,F,23
0,365,365,219,8,['d'],['d'],Y,,,,F,23
0,366,366,202,8,['d'],['d'],Y,,,,F,23
0,367,367,415,8,['k'],['k'],Y,,,,F,23
0,368,368,187,8,['d'],['d'],Y,,,,F,23
0,369,369,596,8,['k'],['k'],Y,,,,F,23
0,370,370,189,8,['k'],['d'],N,,,,F,23
0,371,371,424,8,['k'],['k'],Y,,,,F,23
0,372,372,454,8,['k'],['k'],Y,,,,F,23
0,373,373,432,8,['k'],['k'],Y,,,,F,23
0,374,374,91,8,['d'],['d'],Y,,,,F,23
0,375,375,232,8,['d'],['d'],Y,,,,F,23
0,376,376,324,8,['k'],['k'],Y,,,,F,23
0,377,377,183,8,['d'],['d'],Y,,,,F,23
0,378,378,382,8,['k'],['k'],Y,,,,F,23
0,379,379,496,8,['k'],['k'],Y,,,,F,23
0,380,380,337,8,['k'],['k'],Y,,,,F,23
0,381,381,50,8,['d'],['d'],Y,,,,F,23
0,382,382,367,8,['k'],['k'],Y,,,,F,23
0,383,383,273,8,['k'],['d'],N,,,,F,23
0,384,384,511,8,['k'],['k'],Y,,,,F,23
0,385,385,473,8,['k'],['k'],Y,,,,F,23
0,386,386,49,8,['k'],['d'],N,,,,F,23
0,387,387,105,8,['d'],['d'],Y,,,,F,23
0,388,388,304,8,['k'],['k'],Y,,,,F,23
0,389,389,499,8,['k'],['k'],Y,,,,F,23
0,390,390,18,8,['d'],['d'],Y,,,,F,23
0,391,391,190,8,['k'],['d'],N,,,,F,23
0,392,392,206,8,['d'],['d'],Y,,,,F,23
0,393,393,397,8,['k'],['k'],Y,,,,F,23
0,394,394,193,8,['d'],['d'],Y,,,,F,23
0,395,395,166,8,['d'],['d'],Y,,,,F,23
0,396,396,132,8,['d'],['d'],Y,,,,F,23
0,397,397,438,8,['k'],['k'],Y,,,,F,23
0,398,398,64,8,['d'],['d'],Y,,,,F,23
0,399,399,40,8,['k'],['d'],N,,,,F,23
,,,,,,,44,,,,,
0,400,400,535,9,['k'],['k'],Y,,,,F,23
0,401,401,558,9,['k'],['k'],Y,,,,F,23
0,402,402,599,9,['k'],['k'],Y,,,,F,23
0,403,403,38,9,['d'],['d'],Y,,,,F,23
0,404,404,235,9,['d'],['d'],Y,,,,F,23
0,405,405,165,9,['d'],['d'],Y,,,,F,23
0,406,406,551,9,['k'],['k'],Y,,,,F,23
0,407,407,318,9,['k'],['k'],Y,,,,F,23
0,408,408,399,9,['k'],['k'],Y,,,,F,23
0,409,409,539,9,['k'],['k'],Y,,,,F,23
0,410,410,75,9,['d'],['d'],Y,,,,F,23
0,411,411,378,9,['k'],['k'],Y,,,,F,23
0,412,412,254,9,['d'],['d'],Y,,,,F,23
0,413,413,466,9,['k'],['k'],Y,,,,F,23
0,414,414,532,9,['k'],['k'],Y,,,,F,23
0,415,415,462,9,['k'],['k'],Y,,,,F,23
0,416,416,281,9,['d'],['d'],Y,,,,F,23
0,417,417,113,9,['d'],['d'],Y,,,,F,23
0,418,418,358,9,['k'],['k'],Y,,,,F,23
0,419,419,375,9,['k'],['k'],Y,,,,F,23
0,420,420,443,9,['d'],['k'],N,,,,F,23
0,421,421,60,9,['d'],['d'],Y,,,,F,23
0,422,422,371,9,['k'],['k'],Y,,,,F,23
0,423,423,72,9,['d'],['d'],Y,,,,F,23
0,424,424,383,9,['k'],['k'],Y,,,,F,23
0,425,425,565,9,['k'],['k'],Y,,,,F,23
0,426,426,94,9,['d'],['d'],Y,,,,F,23
0,427,427,354,9,['k'],['k'],Y,,,,F,23
0,428,428,85,9,['k'],['d'],N,,,,F,23
0,429,429,370,9,['k'],['k'],Y,,,,F,23
0,430,430,391,9,['k'],['k'],Y,,,,F,23
0,431,431,303,9,['k'],['k'],Y,,,,F,23
0,432,432,200,9,['d'],['d'],Y,,,,F,23
0,433,433,301,9,['k'],['k'],Y,,,,F,23
0,434,434,197,9,['d'],['d'],Y,,,,F,23
0,435,435,294,9,['d'],['d'],Y,,,,F,23
0,436,436,417,9,['d'],['k'],N,,,,F,23
0,437,437,11,9,['d'],['d'],Y,,,,F,23
0,438,438,30,9,['d'],['d'],Y,,,,F,23
0,439,439,348,9,['k'],['k'],Y,,,,F,23
0,440,440,460,9,['k'],['k'],Y,,,,F,23
0,441,441,310,9,['k'],['k'],Y,,,,F,23
0,442,442,278,9,['d'],['d'],Y,,,,F,23
0,443,443,465,9,['k'],['k'],Y,,,,F,23
0,444,444,24,9,['d'],['d'],Y,,,,F,23
0,445,445,477,9,['d'],['k'],N,,,,F,23
0,446,446,560,9,['k'],['k'],Y,,,,F,23
0,447,447,488,9,['k'],['k'],Y,,,,F,23
0,448,448,401,9,['k'],['k'],Y,,,,F,23
0,449,449,445,9,['k'],['k'],Y,,,,F,23
,,,,,,,46,,,,,
0,450,450,181,10,['k'],['d'],N,,,,F,23
0,451,451,260,10,['d'],['d'],Y,,,,F,23
0,452,452,255,10,['k'],['d'],N,,,,F,23
0,453,453,25,10,['d'],['d'],Y,,,,F,23
0,454,454,544,10,['k'],['k'],Y,,,,F,23
0,455,455,129,10,['d'],['d'],Y,,,,F,23
0,456,456,418,10,['k'],['k'],Y,,,,F,23
0,457,457,398,10,['k'],['k'],Y,,,,F,23
0,458,458,214,10,['d'],['d'],Y,,,,F,23
0,459,459,476,10,['k'],['k'],Y,,,,F,23
0,460,460,356,10,['k'],['k'],Y,,,,F,23
0,461,461,118,10,['d'],['d'],Y,,,,F,23
0,462,462,264,10,['d'],['d'],Y,,,,F,23
0,463,463,402,10,['k'],['k'],Y,,,,F,23
0,464,464,362,10,['k'],['k'],Y,,,,F,23
0,465,465,88,10,['d'],['d'],Y,,,,F,23
0,466,466,413,10,['k'],['k'],Y,,,,F,23
0,467,467,407,10,['k'],['k'],Y,,,,F,23
0,468,468,594,10,['k'],['k'],Y,,,,F,23
0,469,469,109,10,['d'],['d'],Y,,,,F,23
0,470,470,225,10,['d'],['d'],Y,,,,F,23
0,471,471,588,10,['k'],['k'],Y,,,,F,23
0,472,472,272,10,['d'],['d'],Y,,,,F,23
0,473,473,150,10,['d'],['d'],Y,,,,F,23
0,474,474,259,10,['d'],['d'],Y,,,,F,23
0,475,475,139,10,['d'],['d'],Y,,,,F,23
0,476,476,213,10,['d'],['d'],Y,,,,F,23
0,477,477,429,10,['k'],['k'],Y,,,,F,23
0,478,478,100,10,['d'],['d'],Y,,,,F,23
0,479,479,512,10,['d'],['k'],N,,,,F,23
0,480,480,164,10,['d'],['d'],Y,,,,F,23
0,481,481,270,10,['d'],['d'],Y,,,,F,23
0,482,482,472,10,['k'],['k'],Y,,,,F,23
0,483,483,170,10,['d'],['d'],Y,,,,F,23
0,484,484,364,10,['k'],['k'],Y,,,,F,23
0,485,485,240,10,['d'],['d'],Y,,,,F,23
0,486,486,6,10,['d'],['d'],Y,,,,F,23
0,487,487,295,10,['d'],['d'],Y,,,,F,23
0,488,488,199,10,['d'],['d'],Y,,,,F,23
0,489,489,503,10,['k'],['k'],Y,,,,F,23
0,490,490,87,10,['d'],['d'],Y,,,,F,23
0,491,491,556,10,['k'],['k'],Y,,,,F,23
0,492,492,293,10,['d'],['d'],Y,,,,F,23
0,493,493,492,10,['k'],['k'],Y,,,,F,23
0,494,494,467,10,['d'],['k'],N,,,,F,23
0,495,495,32,10,['d'],['d'],Y,,,,F,23
0,496,496,529,10,['k'],['k'],Y,,,,F,23
0,497,497,298,10,['d'],['d'],Y,,,,F,23
0,498,498,520,10,['k'],['k'],Y,,,,F,23
0,499,499,48,10,['d'],['d'],Y,,,,F,23
,,,,,,,46,,,,,
0,500,500,159,11,['d'],['d'],N,Y,Y,Y,F,23
0,501,501,469,11,['d'],['k'],Y,,Y,Y,F,23
0,502,502,590,11,['d'],['k'],Y,,Y,Y,F,23
0,503,503,243,11,['k'],['d'],Y,,Y,Y,F,23
0,504,504,389,11,None,,Timed out,,Y,Y,F,23
0,505,505,31,11,['d'],['d'],N,,Y,Y,F,23
0,506,506,266,11,['k'],['d'],Y,,Y,Y,F,23
0,507,507,234,11,['k'],['d'],Y,,Y,Y,F,23
0,508,508,353,11,['d'],['k'],Y,,Y,Y,F,23
0,509,509,227,11,['k'],['d'],Y,,Y,Y,F,23
0,510,510,0,11,['k'],['d'],Y,,Y,Y,F,23
0,511,511,99,11,['k'],['d'],Y,,Y,Y,F,23
0,512,512,172,11,['k'],['d'],Y,,Y,Y,F,23
0,513,513,74,11,['k'],['d'],Y,,Y,Y,F,23
0,514,514,239,11,['k'],['d'],Y,,Y,Y,F,23
0,515,515,70,11,['d'],['d'],N,,Y,Y,F,23
0,516,516,501,11,['d'],['k'],Y,,Y,Y,F,23
0,517,517,333,11,['d'],['k'],Y,,Y,Y,F,23
0,518,518,526,11,['d'],['k'],Y,,Y,Y,F,23
0,519,519,241,11,['k'],['d'],Y,,Y,Y,F,23
0,520,520,13,11,['k'],['d'],Y,,Y,Y,F,23
0,521,521,515,11,['d'],['k'],Y,,Y,Y,F,23
0,522,522,251,11,['k'],['d'],Y,,Y,Y,F,23
0,523,523,195,11,['k'],['d'],Y,,Y,Y,F,23
0,524,524,267,11,['k'],['d'],Y,,Y,Y,F,23
0,525,525,300,11,['d'],['k'],Y,,Y,Y,F,23
0,526,526,404,11,['k'],['k'],N,,Y,Y,F,23
0,527,527,412,11,['k'],['k'],N,,Y,Y,F,23
0,528,528,101,11,['k'],['d'],Y,,Y,Y,F,23
0,529,529,126,11,['k'],['d'],Y,,Y,Y,F,23
0,530,530,330,11,['k'],['k'],N,,Y,Y,F,23
0,531,531,286,11,['k'],['d'],Y,,Y,Y,F,23
0,532,532,95,11,['k'],['d'],Y,,Y,Y,F,23
0,533,533,327,11,['k'],['k'],N,,Y,Y,F,23
0,534,534,268,11,['k'],['d'],Y,,Y,Y,F,23
0,535,535,568,11,['k'],['k'],N,,Y,Y,F,23
0,536,536,143,11,['k'],['d'],Y,,Y,Y,F,23
0,537,537,534,11,['d'],['k'],Y,,Y,Y,F,23
0,538,538,422,11,['d'],['k'],Y,,Y,Y,F,23
0,539,539,145,11,['k'],['d'],Y,,Y,Y,F,23
0,540,540,343,11,['d'],['k'],Y,,Y,Y,F,23
0,541,541,223,11,['k'],['d'],Y,,Y,Y,F,23
0,542,542,480,11,['d'],['k'],Y,,Y,Y,F,23
0,543,543,89,11,['d'],['d'],N,,Y,Y,F,23
0,544,544,152,11,['d'],['d'],N,,Y,Y,F,23
0,545,545,581,11,['d'],['k'],Y,,Y,Y,F,23
0,546,546,110,11,['k'],['d'],Y,,Y,Y,F,23
0,547,547,561,11,['d'],['k'],Y,,Y,Y,F,23
0,548,548,237,11,['k'],['d'],Y,,Y,Y,F,23
0,549,549,536,11,['d'],['k'],Y,,Y,Y,F,23
,,,,,,,"39, 11",,,,,
0,550,550,201,12,['d'],['d'],N,,Y,Y,F,23
0,551,551,335,12,['d'],['k'],Y,,Y,Y,F,23
0,552,552,409,12,['d'],['k'],Y,,Y,Y,F,23
0,553,553,400,12,['d'],['k'],Y,,Y,Y,F,23
0,554,554,211,12,['k'],['d'],Y,,Y,Y,F,23
0,555,555,580,12,['d'],['k'],Y,,Y,Y,F,23
0,556,556,279,12,['d'],['d'],N,,Y,Y,F,23
0,557,557,316,12,['d'],['k'],Y,,Y,Y,F,23
0,558,558,134,12,['k'],['d'],Y,,Y,Y,F,23
0,559,559,10,12,['k'],['d'],Y,,Y,Y,F,23
0,560,560,346,12,['d'],['k'],Y,,Y,Y,F,23
0,561,561,344,12,['d'],['k'],Y,,Y,Y,F,23
0,562,562,390,12,['d'],['k'],Y,,Y,Y,F,23
0,563,563,498,12,['d'],['k'],Y,,Y,Y,F,23
0,564,564,433,12,['k'],['k'],N,,Y,Y,F,23
0,565,565,332,12,['d'],['k'],Y,,Y,Y,F,23
0,566,566,420,12,['d'],['k'],Y,,Y,Y,F,23
0,567,567,8,12,['k'],['d'],Y,,Y,Y,F,23
0,568,568,393,12,['d'],['k'],Y,,Y,Y,F,23
0,569,569,238,12,['d'],['d'],N,,Y,Y,F,23
0,570,570,493,12,['d'],['k'],Y,,Y,Y,F,23
0,571,571,414,12,['d'],['k'],Y,,Y,Y,F,23
0,572,572,141,12,['k'],['d'],Y,,Y,Y,F,23
0,573,573,140,12,['k'],['d'],Y,,Y,Y,F,23
0,574,574,299,12,['k'],['d'],Y,,Y,Y,F,23
0,575,575,459,12,['d'],['k'],Y,,Y,Y,F,23
0,576,576,249,12,['k'],['d'],Y,,Y,Y,F,23
0,577,577,188,12,['k'],['d'],Y,,Y,Y,F,23
0,578,578,306,12,['k'],['k'],N,,Y,Y,F,23
0,579,579,595,12,['d'],['k'],Y,,Y,Y,F,23
0,580,580,175,12,['k'],['d'],Y,,Y,Y,F,23
0,581,581,482,12,['d'],['k'],Y,,Y,Y,F,23
0,582,582,411,12,['d'],['k'],Y,,Y,Y,F,23
0,583,583,112,12,['k'],['d'],Y,,Y,Y,F,23
0,584,584,158,12,['k'],['d'],Y,,Y,Y,F,23
0,585,585,446,12,['d'],['k'],Y,,Y,Y,F,23
0,586,586,592,12,['d'],['k'],Y,,Y,Y,F,23
0,587,587,372,12,['d'],['k'],Y,,Y,Y,F,23
0,588,588,180,12,['k'],['d'],Y,,Y,Y,F,23
0,589,589,351,12,['d'],['k'],Y,,Y,Y,F,23
0,590,590,297,12,['k'],['d'],Y,,Y,Y,F,23
0,591,591,194,12,['d'],['d'],N,,Y,Y,F,23
0,592,592,77,12,['k'],['d'],Y,,Y,Y,F,23
0,593,593,117,12,['d'],['d'],N,,Y,Y,F,23
0,594,594,17,12,['k'],['d'],Y,,Y,Y,F,23
0,595,595,475,12,['k'],['k'],N,,Y,Y,F,23
0,596,596,123,12,['k'],['d'],Y,,Y,Y,F,23
0,597,597,119,12,['k'],['d'],Y,,Y,Y,F,23
0,598,598,14,12,['k'],['d'],Y,,Y,Y,F,23
0,599,599,82,12,['k'],['d'],Y,,Y,Y,F,23
,,,,,,,42,,,,,
