.thisRepN,.thisTrialN,.thisN,.thisIndex,Block Number,Key pressed,Category,Correct?,Button switch shown?,Actually switched?,Fast?,gender,age,
0,0,0,94,1,['k'],['d'],N,,,,f,23,
0,1,1,340,1,['d'],['k'],N,,,,f,23,
0,2,2,494,1,['k'],['k'],Y,,,,f,23,
0,3,3,539,1,['d'],['k'],N,,,,f,23,
0,4,4,319,1,['k'],['k'],Y,,,,f,23,
0,5,5,324,1,['k'],['k'],Y,,,,f,23,
0,6,6,28,1,['k'],['d'],N,,,,f,23,
0,7,7,337,1,['d'],['k'],N,,,,f,23,
0,8,8,418,1,['k'],['k'],Y,,,,f,23,
0,9,9,84,1,['k'],['d'],N,,,,f,23,
0,10,10,238,1,['k'],['d'],N,,,,f,23,
0,11,11,412,1,['d'],['k'],N,,,,f,23,
0,12,12,195,1,['d'],['d'],Y,,,,f,23,
0,13,13,197,1,['d'],['d'],Y,,,,f,23,
0,14,14,548,1,['k'],['k'],Y,,,,f,23,
0,15,15,24,1,['k'],['d'],N,,,,f,23,
0,16,16,593,1,['k'],['k'],Y,,,,f,23,
0,17,17,77,1,['d'],['d'],Y,,,,f,23,
0,18,18,61,1,['d'],['d'],Y,,,,f,23,
0,19,19,536,1,['k'],['k'],Y,,,,f,23,
0,20,20,41,1,['d'],['d'],Y,,,,f,23,
0,21,21,208,1,['k'],['d'],N,,,,f,23,
0,22,22,590,1,['k'],['k'],Y,,,,f,23,
0,23,23,75,1,['d'],['d'],Y,,,,f,23,
0,24,24,277,1,['d'],['d'],Y,,,,f,23,
0,25,25,579,1,['d'],['k'],N,,,,f,23,
0,26,26,155,1,['d'],['d'],Y,,,,f,23,
0,27,27,10,1,['k'],['d'],N,,,,f,23,
0,28,28,390,1,['k'],['k'],Y,,,,f,23,
0,29,29,498,1,['k'],['k'],Y,,,,f,23,
0,30,30,184,1,['d'],['d'],Y,,,,f,23,
0,31,31,48,1,None,,Timed out,,,,f,23,
0,32,32,89,1,['k'],['d'],N,,,,f,23,
0,33,33,488,1,['k'],['k'],Y,,,,f,23,
0,34,34,556,1,['d'],['k'],N,,,,f,23,
0,35,35,282,1,['d'],['d'],Y,,,,f,23,
0,36,36,597,1,['k'],['k'],Y,,,,f,23,
0,37,37,493,1,['k'],['k'],Y,,,,f,23,
0,38,38,32,1,['d'],['d'],Y,,,,f,23,
0,39,39,591,1,['k'],['k'],Y,,,,f,23,
0,40,40,403,1,['d'],['k'],N,,,,f,23,
0,41,41,177,1,['k'],['d'],N,,,,f,23,
0,42,42,203,1,['d'],['d'],Y,,,,f,23,
0,43,43,122,1,['k'],['d'],N,,,,f,23,
0,44,44,410,1,['k'],['k'],Y,,,,f,23,
0,45,45,527,1,['k'],['k'],Y,,,,f,23,
0,46,46,329,1,['k'],['k'],Y,,,,f,23,
0,47,47,147,1,['d'],['d'],Y,,,,f,23,
0,48,48,516,1,['k'],['k'],Y,,,,f,23,
0,49,49,243,1,['d'],['d'],Y,,,,f,23,
0,50,50,506,2,['k'],['k'],Y,,,,f,23,
0,51,51,396,2,['d'],['k'],N,,,,f,23,
0,52,52,295,2,['d'],['d'],Y,,,,f,23,
0,53,53,176,2,['d'],['d'],Y,,,,f,23,
0,54,54,183,2,['d'],['d'],Y,,,,f,23,
0,55,55,200,2,['d'],['d'],Y,,,,f,23,
0,56,56,562,2,['k'],['k'],Y,,,,f,23,
0,57,57,333,2,['k'],['k'],Y,,,,f,23,
0,58,58,101,2,['d'],['d'],Y,,,,f,23,
0,59,59,595,2,['k'],['k'],Y,,,,f,23,
0,60,60,441,2,['k'],['k'],Y,,,,f,23,
0,61,61,355,2,['k'],['k'],Y,,,,f,23,
0,62,62,465,2,['k'],['k'],Y,,,,f,23,
0,63,63,127,2,['d'],['d'],Y,,,,f,23,
0,64,64,291,2,['d'],['d'],Y,,,,f,23,
0,65,65,308,2,['k'],['k'],Y,,,,f,23,
0,66,66,487,2,['k'],['k'],Y,,,,f,23,
0,67,67,278,2,['k'],['d'],N,,,,f,23,
0,68,68,349,2,['k'],['k'],Y,,,,f,23,
0,69,69,175,2,['d'],['d'],Y,,,,f,23,
0,70,70,345,2,['d'],['k'],N,,,,f,23,
0,71,71,104,2,['d'],['d'],Y,,,,f,23,
0,72,72,166,2,['d'],['d'],Y,,,,f,23,
0,73,73,167,2,['k'],['d'],N,,,,f,23,
0,74,74,442,2,['k'],['k'],Y,,,,f,23,
0,75,75,374,2,['k'],['k'],Y,,,,f,23,
0,76,76,38,2,['d'],['d'],Y,,,,f,23,
0,77,77,213,2,['d'],['d'],Y,,,,f,23,
0,78,78,275,2,['d'],['d'],Y,,,,f,23,
0,79,79,521,2,['k'],['k'],Y,,,,f,23,
0,80,80,330,2,['k'],['k'],Y,,,,f,23,
0,81,81,66,2,['d'],['d'],Y,,,,f,23,
0,82,82,153,2,['d'],['d'],Y,,,,f,23,
0,83,83,229,2,['k'],['d'],N,,,,f,23,
0,84,84,460,2,['k'],['k'],Y,,,,f,23,
0,85,85,517,2,['k'],['k'],Y,,,,f,23,
0,86,86,189,2,['d'],['d'],Y,,,,f,23,
0,87,87,532,2,['k'],['k'],Y,,,,f,23,
0,88,88,347,2,['k'],['k'],Y,,,,f,23,
0,89,89,151,2,['d'],['d'],Y,,,,f,23,
0,90,90,35,2,['d'],['d'],Y,,,,f,23,
0,91,91,583,2,['k'],['k'],Y,,,,f,23,
0,92,92,223,2,['d'],['d'],Y,,,,f,23,
0,93,93,62,2,['d'],['d'],Y,,,,f,23,
0,94,94,47,2,['d'],['d'],Y,,,,f,23,
0,95,95,297,2,['d'],['d'],Y,,,,f,23,
0,96,96,81,2,['d'],['d'],Y,,,,f,23,
0,97,97,399,2,['k'],['k'],Y,,,,f,23,
0,98,98,535,2,['k'],['k'],Y,,,,f,23,
0,99,99,480,2,['k'],['k'],Y,,,,f,23,
0,100,100,21,3,['k'],['d'],N,,,,f,23,
0,101,101,70,3,['d'],['d'],Y,,,,f,23,
0,102,102,130,3,['d'],['d'],Y,,,,f,23,
0,103,103,90,3,['d'],['d'],Y,,,,f,23,
0,104,104,391,3,['k'],['k'],Y,,,,f,23,
0,105,105,201,3,['d'],['d'],Y,,,,f,23,
0,106,106,262,3,['k'],['d'],N,,,,f,23,
0,107,107,266,3,['d'],['d'],Y,,,,f,23,
0,108,108,178,3,['d'],['d'],Y,,,,f,23,
0,109,109,253,3,['d'],['d'],Y,,,,f,23,
0,110,110,472,3,['k'],['k'],Y,,,,f,23,
0,111,111,463,3,['k'],['k'],Y,,,,f,23,
0,112,112,288,3,['d'],['d'],Y,,,,f,23,
0,113,113,268,3,['d'],['d'],Y,,,,f,23,
0,114,114,365,3,['k'],['k'],Y,,,,f,23,
0,115,115,255,3,['d'],['d'],Y,,,,f,23,
0,116,116,388,3,['k'],['k'],Y,,,,f,23,
0,117,117,576,3,['k'],['k'],Y,,,,f,23,
0,118,118,172,3,['d'],['d'],Y,,,,f,23,
0,119,119,545,3,['k'],['k'],Y,,,,f,23,
0,120,120,216,3,['d'],['d'],Y,,,,f,23,
0,121,121,4,3,['d'],['d'],Y,,,,f,23,
0,122,122,499,3,['k'],['k'],Y,,,,f,23,
0,123,123,146,3,['d'],['d'],Y,,,,f,23,
0,124,124,380,3,['k'],['k'],Y,,,,f,23,
0,125,125,143,3,['k'],['d'],N,,,,f,23,
0,126,126,241,3,['d'],['d'],Y,,,,f,23,
0,127,127,286,3,['d'],['d'],Y,,,,f,23,
0,128,128,599,3,['k'],['k'],Y,,,,f,23,
0,129,129,311,3,['k'],['k'],Y,,,,f,23,
0,130,130,83,3,['d'],['d'],Y,,,,f,23,
0,131,131,449,3,['d'],['k'],N,,,,f,23,
0,132,132,413,3,['k'],['k'],Y,,,,f,23,
0,133,133,336,3,['k'],['k'],Y,,,,f,23,
0,134,134,159,3,['d'],['d'],Y,,,,f,23,
0,135,135,18,3,['d'],['d'],Y,,,,f,23,
0,136,136,139,3,['k'],['d'],N,,,,f,23,
0,137,137,534,3,['k'],['k'],Y,,,,f,23,
0,138,138,367,3,['k'],['k'],Y,,,,f,23,
0,139,139,485,3,['k'],['k'],Y,,,,f,23,
0,140,140,294,3,['d'],['d'],Y,,,,f,23,
0,141,141,114,3,['d'],['d'],Y,,,,f,23,
0,142,142,6,3,['d'],['d'],Y,,,,f,23,
0,143,143,568,3,['d'],['k'],N,,,,f,23,
0,144,144,356,3,['d'],['k'],N,,,,f,23,
0,145,145,547,3,['k'],['k'],Y,,,,f,23,
0,146,146,196,3,['d'],['d'],Y,,,,f,23,
0,147,147,525,3,['k'],['k'],Y,,,,f,23,
0,148,148,27,3,['k'],['d'],N,,,,f,23,
0,149,149,261,3,['d'],['d'],Y,,,,f,23,
0,150,150,359,4,['k'],['k'],Y,,,,f,23,
0,151,151,371,4,['k'],['k'],Y,,,,f,23,
0,152,152,552,4,['k'],['k'],Y,,,,f,23,
0,153,153,224,4,['k'],['d'],N,,,,f,23,
0,154,154,115,4,['d'],['d'],Y,,,,f,23,
0,155,155,31,4,['d'],['d'],Y,,,,f,23,
0,156,156,199,4,['d'],['d'],Y,,,,f,23,
0,157,157,34,4,['k'],['d'],N,,,,f,23,
0,158,158,267,4,['k'],['d'],N,,,,f,23,
0,159,159,210,4,['d'],['d'],Y,,,,f,23,
0,160,160,571,4,['k'],['k'],Y,,,,f,23,
0,161,161,454,4,['k'],['k'],Y,,,,f,23,
0,162,162,587,4,['k'],['k'],Y,,,,f,23,
0,163,163,113,4,['d'],['d'],Y,,,,f,23,
0,164,164,524,4,['k'],['k'],Y,,,,f,23,
0,165,165,467,4,['k'],['k'],Y,,,,f,23,
0,166,166,387,4,['k'],['k'],Y,,,,f,23,
0,167,167,283,4,['d'],['d'],Y,,,,f,23,
0,168,168,40,4,['d'],['d'],Y,,,,f,23,
0,169,169,490,4,['k'],['k'],Y,,,,f,23,
0,170,170,563,4,['k'],['k'],Y,,,,f,23,
0,171,171,124,4,['d'],['d'],Y,,,,f,23,
0,172,172,23,4,['d'],['d'],Y,,,,f,23,
0,173,173,326,4,['d'],['k'],N,,,,f,23,
0,174,174,133,4,['d'],['d'],Y,,,,f,23,
0,175,175,217,4,['d'],['d'],Y,,,,f,23,
0,176,176,219,4,['d'],['d'],Y,,,,f,23,
0,177,177,478,4,['k'],['k'],Y,,,,f,23,
0,178,178,247,4,['d'],['d'],Y,,,,f,23,
0,179,179,7,4,['k'],['d'],N,,,,f,23,
0,180,180,232,4,['d'],['d'],Y,,,,f,23,
0,181,181,250,4,['d'],['d'],Y,,,,f,23,
0,182,182,118,4,['d'],['d'],Y,,,,f,23,
0,183,183,423,4,['k'],['k'],Y,,,,f,23,
0,184,184,144,4,['k'],['d'],N,,,,f,23,
0,185,185,97,4,['k'],['d'],N,,,,f,23,
0,186,186,156,4,['d'],['d'],Y,,,,f,23,
0,187,187,484,4,['k'],['k'],Y,,,,f,23,
0,188,188,110,4,['d'],['d'],Y,,,,f,23,
0,189,189,424,4,['k'],['k'],Y,,,,f,23,
0,190,190,496,4,['k'],['k'],Y,,,,f,23,
0,191,191,292,4,['k'],['d'],N,,,,f,23,
0,192,192,382,4,['k'],['k'],Y,,,,f,23,
0,193,193,188,4,['k'],['d'],N,,,,f,23,
0,194,194,304,4,['k'],['k'],Y,,,,f,23,
0,195,195,116,4,['d'],['d'],Y,,,,f,23,
0,196,196,596,4,['k'],['k'],Y,,,,f,23,
0,197,197,227,4,['d'],['d'],Y,,,,f,23,
0,198,198,105,4,['d'],['d'],Y,,,,f,23,
0,199,199,421,4,['k'],['k'],Y,,,,f,23,
0,200,200,106,5,['d'],['d'],Y,,,,f,23,
0,201,201,193,5,['d'],['d'],Y,,,,f,23,
0,202,202,586,5,['k'],['k'],Y,,,,f,23,
0,203,203,452,5,['k'],['k'],Y,,,,f,23,
0,204,204,16,5,['d'],['d'],Y,,,,f,23,
0,205,205,318,5,['k'],['k'],Y,,,,f,23,
0,206,206,435,5,['k'],['k'],Y,,,,f,23,
0,207,207,502,5,['k'],['k'],Y,,,,f,23,
0,208,208,95,5,['d'],['d'],Y,,,,f,23,
0,209,209,289,5,['k'],['d'],N,,,,f,23,
0,210,210,420,5,['d'],['k'],N,,,,f,23,
0,211,211,377,5,['k'],['k'],Y,,,,f,23,
0,212,212,63,5,['d'],['d'],Y,,,,f,23,
0,213,213,131,5,['d'],['d'],Y,,,,f,23,
0,214,214,226,5,['d'],['d'],Y,,,,f,23,
0,215,215,559,5,['k'],['k'],Y,,,,f,23,
0,216,216,376,5,['k'],['k'],Y,,,,f,23,
0,217,217,469,5,['k'],['k'],Y,,,,f,23,
0,218,218,546,5,['k'],['k'],Y,,,,f,23,
0,219,219,78,5,['k'],['d'],N,,,,f,23,
0,220,220,92,5,['d'],['d'],Y,,,,f,23,
0,221,221,161,5,['d'],['d'],Y,,,,f,23,
0,222,222,206,5,['d'],['d'],Y,,,,f,23,
0,223,223,125,5,['d'],['d'],Y,,,,f,23,
0,224,224,394,5,['k'],['k'],Y,,,,f,23,
0,225,225,190,5,['k'],['d'],N,,,,f,23,
0,226,226,148,5,['d'],['d'],Y,,,,f,23,
0,227,227,73,5,['d'],['d'],Y,,,,f,23,
0,228,228,96,5,['d'],['d'],Y,,,,f,23,
0,229,229,481,5,['d'],['k'],N,,,,f,23,
0,230,230,256,5,['d'],['d'],Y,,,,f,23,
0,231,231,585,5,['k'],['k'],Y,,,,f,23,
0,232,232,512,5,['k'],['k'],Y,,,,f,23,
0,233,233,154,5,['d'],['d'],Y,,,,f,23,
0,234,234,312,5,['k'],['k'],Y,,,,f,23,
0,235,235,313,5,['k'],['k'],Y,,,,f,23,
0,236,236,529,5,['k'],['k'],Y,,,,f,23,
0,237,237,518,5,['k'],['k'],Y,,,,f,23,
0,238,238,98,5,['d'],['d'],Y,,,,f,23,
0,239,239,150,5,['d'],['d'],Y,,,,f,23,
0,240,240,191,5,['d'],['d'],Y,,,,f,23,
0,241,241,174,5,['d'],['d'],Y,,,,f,23,
0,242,242,138,5,['k'],['d'],N,,,,f,23,
0,243,243,171,5,['d'],['d'],Y,,,,f,23,
0,244,244,214,5,['d'],['d'],Y,,,,f,23,
0,245,245,505,5,['d'],['k'],N,,,,f,23,
0,246,246,331,5,['k'],['k'],Y,,,,f,23,
0,247,247,0,5,['k'],['d'],N,,,,f,23,
0,248,248,237,5,['d'],['d'],Y,,,,f,23,
0,249,249,373,5,['d'],['k'],N,,,,f,23,
0,250,250,228,6,['d'],['d'],Y,,,,f,23,
0,251,251,82,6,['d'],['d'],Y,,,,f,23,
0,252,252,182,6,['k'],['d'],N,,,,f,23,
0,253,253,129,6,['k'],['d'],N,,,,f,23,
0,254,254,348,6,['k'],['k'],Y,,,,f,23,
0,255,255,103,6,['d'],['d'],Y,,,,f,23,
0,256,256,549,6,['k'],['k'],Y,,,,f,23,
0,257,257,522,6,['d'],['k'],N,,,,f,23,
0,258,258,314,6,['k'],['k'],Y,,,,f,23,
0,259,259,248,6,['d'],['d'],Y,,,,f,23,
0,260,260,446,6,['k'],['k'],Y,,,,f,23,
0,261,261,335,6,['k'],['k'],Y,,,,f,23,
0,262,262,80,6,['d'],['d'],Y,,,,f,23,
0,263,263,450,6,['d'],['k'],N,,,,f,23,
0,264,264,510,6,['k'],['k'],Y,,,,f,23,
0,265,265,33,6,['d'],['d'],Y,,,,f,23,
0,266,266,415,6,['k'],['k'],Y,,,,f,23,
0,267,267,414,6,['k'],['k'],Y,,,,f,23,
0,268,268,222,6,['k'],['d'],N,,,,f,23,
0,269,269,272,6,['d'],['d'],Y,,,,f,23,
0,270,270,425,6,['k'],['k'],Y,,,,f,23,
0,271,271,528,6,['k'],['k'],Y,,,,f,23,
0,272,272,362,6,['k'],['k'],Y,,,,f,23,
0,273,273,25,6,['d'],['d'],Y,,,,f,23,
0,274,274,1,6,['k'],['d'],N,,,,f,23,
0,275,275,581,6,['k'],['k'],Y,,,,f,23,
0,276,276,360,6,['k'],['k'],Y,,,,f,23,
0,277,277,68,6,None,,Timed out,,,,f,23,
0,278,278,37,6,['k'],['d'],N,,,,f,23,
0,279,279,439,6,['d'],['k'],N,,,,f,23,
0,280,280,409,6,['k'],['k'],Y,,,,f,23,
0,281,281,400,6,['k'],['k'],Y,,,,f,23,
0,282,282,160,6,['d'],['d'],Y,,,,f,23,
0,283,283,46,6,['d'],['d'],Y,,,,f,23,
0,284,284,375,6,['k'],['k'],Y,,,,f,23,
0,285,285,584,6,['k'],['k'],Y,,,,f,23,
0,286,286,430,6,['d'],['k'],N,,,,f,23,
0,287,287,569,6,['k'],['k'],Y,,,,f,23,
0,288,288,136,6,['d'],['d'],Y,,,,f,23,
0,289,289,589,6,['k'],['k'],Y,,,,f,23,
0,290,290,88,6,['d'],['d'],Y,,,,f,23,
0,291,291,271,6,['d'],['d'],Y,,,,f,23,
0,292,292,361,6,['k'],['k'],Y,,,,f,23,
0,293,293,270,6,['d'],['d'],Y,,,,f,23,
0,294,294,215,6,['d'],['d'],Y,,,,f,23,
0,295,295,419,6,['k'],['k'],Y,,,,f,23,
0,296,296,301,6,['k'],['k'],Y,,,,f,23,
0,297,297,296,6,['d'],['d'],Y,,,,f,23,
0,298,298,245,6,['d'],['d'],Y,,,,f,23,
0,299,299,132,6,['d'],['d'],Y,,,,f,23,
0,300,300,100,7,['d'],['d'],Y,,,,f,23,
0,301,301,29,7,['d'],['d'],Y,,,,f,23,
0,302,302,259,7,['d'],['d'],Y,,,,f,23,
0,303,303,448,7,['k'],['k'],Y,,,,f,23,
0,304,304,107,7,['d'],['d'],Y,,,,f,23,
0,305,305,76,7,['d'],['d'],Y,,,,f,23,
0,306,306,492,7,['k'],['k'],Y,,,,f,23,
0,307,307,598,7,['k'],['k'],Y,,,,f,23,
0,308,308,434,7,['k'],['k'],Y,,,,f,23,
0,309,309,86,7,['d'],['d'],Y,,,,f,23,
0,310,310,306,7,['k'],['k'],Y,,,,f,23,
0,311,311,134,7,['d'],['d'],Y,,,,f,23,
0,312,312,280,7,['d'],['d'],Y,,,,f,23,
0,313,313,57,7,['d'],['d'],Y,,,,f,23,
0,314,314,72,7,['d'],['d'],Y,,,,f,23,
0,315,315,455,7,['k'],['k'],Y,,,,f,23,
0,316,316,379,7,['k'],['k'],Y,,,,f,23,
0,317,317,126,7,['d'],['d'],Y,,,,f,23,
0,318,318,52,7,['d'],['d'],Y,,,,f,23,
0,319,319,2,7,['k'],['d'],N,,,,f,23,
0,320,320,173,7,['d'],['d'],Y,,,,f,23,
0,321,321,276,7,['d'],['d'],Y,,,,f,23,
0,322,322,168,7,['d'],['d'],Y,,,,f,23,
0,323,323,438,7,['k'],['k'],Y,,,,f,23,
0,324,324,233,7,['d'],['d'],Y,,,,f,23,
0,325,325,263,7,['d'],['d'],Y,,,,f,23,
0,326,326,240,7,['d'],['d'],Y,,,,f,23,
0,327,327,218,7,['d'],['d'],Y,,,,f,23,
0,328,328,303,7,['k'],['k'],Y,,,,f,23,
0,329,329,137,7,['d'],['d'],Y,,,,f,23,
0,330,330,14,7,['d'],['d'],Y,,,,f,23,
0,331,331,407,7,['k'],['k'],Y,,,,f,23,
0,332,332,555,7,['k'],['k'],Y,,,,f,23,
0,333,333,426,7,['k'],['k'],Y,,,,f,23,
0,334,334,123,7,['d'],['d'],Y,,,,f,23,
0,335,335,553,7,['k'],['k'],Y,,,,f,23,
0,336,336,543,7,['k'],['k'],Y,,,,f,23,
0,337,337,265,7,['d'],['d'],Y,,,,f,23,
0,338,338,152,7,['k'],['d'],N,,,,f,23,
0,339,339,483,7,['k'],['k'],Y,,,,f,23,
0,340,340,358,7,['k'],['k'],Y,,,,f,23,
0,341,341,567,7,['k'],['k'],Y,,,,f,23,
0,342,342,486,7,['d'],['k'],N,,,,f,23,
0,343,343,564,7,['k'],['k'],Y,,,,f,23,
0,344,344,273,7,['d'],['d'],Y,,,,f,23,
0,345,345,164,7,['k'],['d'],N,,,,f,23,
0,346,346,181,7,['d'],['d'],Y,,,,f,23,
0,347,347,320,7,['k'],['k'],Y,,,,f,23,
0,348,348,427,7,['k'],['k'],Y,,,,f,23,
0,349,349,429,7,['k'],['k'],Y,,,,f,23,
0,350,350,50,8,['d'],['d'],Y,,,,f,23,
0,351,351,281,8,['d'],['d'],Y,,,,f,23,
0,352,352,230,8,['d'],['d'],Y,,,,f,23,
0,353,353,58,8,['d'],['d'],Y,,,,f,23,
0,354,354,489,8,['k'],['k'],Y,,,,f,23,
0,355,355,15,8,['d'],['d'],Y,,,,f,23,
0,356,356,566,8,['k'],['k'],Y,,,,f,23,
0,357,357,372,8,['k'],['k'],Y,,,,f,23,
0,358,358,473,8,['k'],['k'],Y,,,,f,23,
0,359,359,60,8,['k'],['d'],N,,,,f,23,
0,360,360,120,8,['d'],['d'],Y,,,,f,23,
0,361,361,507,8,['k'],['k'],Y,,,,f,23,
0,362,362,384,8,['k'],['k'],Y,,,,f,23,
0,363,363,405,8,['k'],['k'],Y,,,,f,23,
0,364,364,56,8,['d'],['d'],Y,,,,f,23,
0,365,365,386,8,['k'],['k'],Y,,,,f,23,
0,366,366,170,8,['d'],['d'],Y,,,,f,23,
0,367,367,339,8,['k'],['k'],Y,,,,f,23,
0,368,368,246,8,['d'],['d'],Y,,,,f,23,
0,369,369,54,8,['d'],['d'],Y,,,,f,23,
0,370,370,45,8,['d'],['d'],Y,,,,f,23,
0,371,371,428,8,['k'],['k'],Y,,,,f,23,
0,372,372,79,8,['d'],['d'],Y,,,,f,23,
0,373,373,353,8,['k'],['k'],Y,,,,f,23,
0,374,374,417,8,['d'],['k'],N,,,,f,23,
0,375,375,479,8,['d'],['k'],N,,,,f,23,
0,376,376,464,8,['k'],['k'],Y,,,,f,23,
0,377,377,258,8,['d'],['d'],Y,,,,f,23,
0,378,378,235,8,['d'],['d'],Y,,,,f,23,
0,379,379,212,8,['d'],['d'],Y,,,,f,23,
0,380,380,53,8,['d'],['d'],Y,,,,f,23,
0,381,381,561,8,['k'],['k'],Y,,,,f,23,
0,382,382,59,8,['d'],['d'],Y,,,,f,23,
0,383,383,357,8,['k'],['k'],Y,,,,f,23,
0,384,384,239,8,['d'],['d'],Y,,,,f,23,
0,385,385,91,8,['d'],['d'],Y,,,,f,23,
0,386,386,140,8,['d'],['d'],Y,,,,f,23,
0,387,387,211,8,['d'],['d'],Y,,,,f,23,
0,388,388,165,8,['d'],['d'],Y,,,,f,23,
0,389,389,459,8,['k'],['k'],Y,,,,f,23,
0,390,390,519,8,['k'],['k'],Y,,,,f,23,
0,391,391,69,8,['d'],['d'],Y,,,,f,23,
0,392,392,363,8,['k'],['k'],Y,,,,f,23,
0,393,393,542,8,['k'],['k'],Y,,,,f,23,
0,394,394,411,8,['k'],['k'],Y,,,,f,23,
0,395,395,443,8,['k'],['k'],Y,,,,f,23,
0,396,396,264,8,['d'],['d'],Y,,,,f,23,
0,397,397,135,8,['d'],['d'],Y,,,,f,23,
0,398,398,302,8,['k'],['k'],Y,,,,f,23,
0,399,399,325,8,['k'],['k'],Y,,,,f,23,
0,400,400,551,9,['k'],['k'],Y,,,,f,23,
0,401,401,85,9,['d'],['d'],Y,,,,f,23,
0,402,402,328,9,['k'],['k'],Y,,,,f,23,
0,403,403,149,9,['d'],['d'],Y,,,,f,23,
0,404,404,477,9,['k'],['k'],Y,,,,f,23,
0,405,405,8,9,['d'],['d'],Y,,,,f,23,
0,406,406,252,9,['d'],['d'],Y,,,,f,23,
0,407,407,11,9,['d'],['d'],Y,,,,f,23,
0,408,408,209,9,['d'],['d'],Y,,,,f,23,
0,409,409,67,9,['d'],['d'],Y,,,,f,23,
0,410,410,570,9,['k'],['k'],Y,,,,f,23,
0,411,411,293,9,['d'],['d'],Y,,,,f,23,
0,412,412,187,9,['d'],['d'],Y,,,,f,23,
0,413,413,466,9,['k'],['k'],Y,,,,f,23,
0,414,414,26,9,['k'],['d'],N,,,,f,23,
0,415,415,437,9,['k'],['k'],Y,,,,f,23,
0,416,416,242,9,['d'],['d'],Y,,,,f,23,
0,417,417,389,9,['k'],['k'],Y,,,,f,23,
0,418,418,322,9,['k'],['k'],Y,,,,f,23,
0,419,419,533,9,['k'],['k'],Y,,,,f,23,
0,420,420,44,9,['d'],['d'],Y,,,,f,23,
0,421,421,20,9,['d'],['d'],Y,,,,f,23,
0,422,422,39,9,['d'],['d'],Y,,,,f,23,
0,423,423,538,9,['d'],['k'],N,,,,f,23,
0,424,424,370,9,['k'],['k'],Y,,,,f,23,
0,425,425,402,9,['d'],['k'],N,,,,f,23,
0,426,426,300,9,['k'],['k'],Y,,,,f,23,
0,427,427,352,9,['k'],['k'],Y,,,,f,23,
0,428,428,157,9,['d'],['d'],Y,,,,f,23,
0,429,429,378,9,['k'],['k'],Y,,,,f,23,
0,430,430,457,9,['k'],['k'],Y,,,,f,23,
0,431,431,592,9,['k'],['k'],Y,,,,f,23,
0,432,432,416,9,['k'],['k'],Y,,,,f,23,
0,433,433,234,9,['d'],['d'],Y,,,,f,23,
0,434,434,523,9,['k'],['k'],Y,,,,f,23,
0,435,435,30,9,['d'],['d'],Y,,,,f,23,
0,436,436,515,9,['k'],['k'],Y,,,,f,23,
0,437,437,9,9,['d'],['d'],Y,,,,f,23,
0,438,438,310,9,['k'],['k'],Y,,,,f,23,
0,439,439,317,9,['k'],['k'],Y,,,,f,23,
0,440,440,12,9,['d'],['d'],Y,,,,f,23,
0,441,441,305,9,['k'],['k'],Y,,,,f,23,
0,442,442,93,9,['d'],['d'],Y,,,,f,23,
0,443,443,3,9,['k'],['d'],N,,,,f,23,
0,444,444,65,9,['d'],['d'],Y,,,,f,23,
0,445,445,500,9,['d'],['k'],N,,,,f,23,
0,446,446,401,9,['k'],['k'],Y,,,,f,23,
0,447,447,309,9,['k'],['k'],Y,,,,f,23,
0,448,448,447,9,['k'],['k'],Y,,,,f,23,
0,449,449,392,9,['k'],['k'],Y,,,,f,23,
0,450,450,225,10,['d'],['d'],Y,,,,f,23,
0,451,451,580,10,['k'],['k'],Y,,,,f,23,
0,452,452,342,10,['k'],['k'],Y,,,,f,23,
0,453,453,111,10,['d'],['d'],Y,,,,f,23,
0,454,454,513,10,['k'],['k'],Y,,,,f,23,
0,455,455,180,10,['d'],['d'],Y,,,,f,23,
0,456,456,520,10,['k'],['k'],Y,,,,f,23,
0,457,457,574,10,['k'],['k'],Y,,,,f,23,
0,458,458,231,10,['d'],['d'],Y,,,,f,23,
0,459,459,251,10,['d'],['d'],Y,,,,f,23,
0,460,460,565,10,['k'],['k'],Y,,,,f,23,
0,461,461,179,10,['d'],['d'],Y,,,,f,23,
0,462,462,163,10,['d'],['d'],Y,,,,f,23,
0,463,463,541,10,['k'],['k'],Y,,,,f,23,
0,464,464,369,10,['k'],['k'],Y,,,,f,23,
0,465,465,462,10,['d'],['k'],N,,,,f,23,
0,466,466,577,10,['k'],['k'],Y,,,,f,23,
0,467,467,202,10,['d'],['d'],Y,,,,f,23,
0,468,468,351,10,['k'],['k'],Y,,,,f,23,
0,469,469,354,10,['d'],['k'],N,,,,f,23,
0,470,470,321,10,['k'],['k'],Y,,,,f,23,
0,471,471,298,10,['d'],['d'],Y,,,,f,23,
0,472,472,17,10,['d'],['d'],Y,,,,f,23,
0,473,473,284,10,['d'],['d'],Y,,,,f,23,
0,474,474,461,10,['k'],['k'],Y,,,,f,23,
0,475,475,350,10,['k'],['k'],Y,,,,f,23,
0,476,476,141,10,['d'],['d'],Y,,,,f,23,
0,477,477,588,10,['d'],['k'],N,,,,f,23,
0,478,478,221,10,['d'],['d'],Y,,,,f,23,
0,479,479,474,10,['k'],['k'],Y,,,,f,23,
0,480,480,162,10,['d'],['d'],Y,,,,f,23,
0,481,481,544,10,['k'],['k'],Y,,,,f,23,
0,482,482,554,10,['k'],['k'],Y,,,,f,23,
0,483,483,269,10,['d'],['d'],Y,,,,f,23,
0,484,484,582,10,['k'],['k'],Y,,,,f,23,
0,485,485,307,10,['k'],['k'],Y,,,,f,23,
0,486,486,406,10,['k'],['k'],Y,,,,f,23,
0,487,487,482,10,['k'],['k'],Y,,,,f,23,
0,488,488,205,10,['d'],['d'],Y,,,,f,23,
0,489,489,404,10,['k'],['k'],Y,,,,f,23,
0,490,490,368,10,['k'],['k'],Y,,,,f,23,
0,491,491,346,10,['k'],['k'],Y,,,,f,23,
0,492,492,475,10,['k'],['k'],Y,,,,f,23,
0,493,493,71,10,['d'],['d'],Y,,,,f,23,
0,494,494,344,10,['k'],['k'],Y,,,,f,23,
0,495,495,42,10,['d'],['d'],Y,,,,f,23,
0,496,496,158,10,['d'],['d'],Y,,,,f,23,
0,497,497,194,10,['d'],['d'],Y,,,,f,23,
0,498,498,497,10,['k'],['k'],Y,,,,f,23,
0,499,499,531,10,['k'],['k'],Y,,,,f,23,
0,500,500,385,11,None,,Timed out,Y,Y,Y,f,23,
0,501,501,102,11,None,,Timed out,,Y,Y,f,23,
0,502,502,279,11,['d'],['d'],N,,Y,Y,f,23,
0,503,503,249,11,['d'],['d'],N,,Y,Y,f,23,
0,504,504,64,11,['k'],['d'],Y,,Y,Y,f,23,
0,505,505,453,11,['d'],['k'],Y,,Y,Y,f,23,
0,506,506,578,11,['d'],['k'],Y,,Y,Y,f,23,
0,507,507,254,11,['k'],['d'],Y,,Y,Y,f,23,
0,508,508,338,11,['d'],['k'],Y,,Y,Y,f,23,
0,509,509,572,11,['d'],['k'],Y,,Y,Y,f,23,
0,510,510,550,11,['d'],['k'],Y,,Y,Y,f,23,
0,511,511,397,11,['d'],['k'],Y,,Y,Y,f,23,
0,512,512,334,11,['d'],['k'],Y,,Y,Y,f,23,
0,513,513,323,11,['d'],['k'],Y,,Y,Y,f,23,
0,514,514,236,11,['k'],['d'],Y,,Y,Y,f,23,
0,515,515,575,11,['d'],['k'],Y,,Y,Y,f,23,
0,516,516,19,11,['k'],['d'],Y,,Y,Y,f,23,
0,517,517,274,11,['d'],['d'],N,,Y,Y,f,23,
0,518,518,422,11,['k'],['k'],N,,Y,Y,f,23,
0,519,519,332,11,['d'],['k'],Y,,Y,Y,f,23,
0,520,520,470,11,None,,Timed out,,Y,Y,f,23,
0,521,521,558,11,['d'],['k'],Y,,Y,Y,f,23,
0,522,522,169,11,['k'],['d'],Y,,Y,Y,f,23,
0,523,523,451,11,['d'],['k'],Y,,Y,Y,f,23,
0,524,524,509,11,['d'],['k'],Y,,Y,Y,f,23,
0,525,525,471,11,['d'],['k'],Y,,Y,Y,f,23,
0,526,526,560,11,['d'],['k'],Y,,Y,Y,f,23,
0,527,527,260,11,['k'],['d'],Y,,Y,Y,f,23,
0,528,528,145,11,['k'],['d'],Y,,Y,Y,f,23,
0,529,529,458,11,['d'],['k'],Y,,Y,Y,f,23,
0,530,530,109,11,['d'],['d'],N,,Y,Y,f,23,
0,531,531,299,11,['d'],['d'],N,,Y,Y,f,23,
0,532,532,142,11,['k'],['d'],Y,,Y,Y,f,23,
0,533,533,198,11,['k'],['d'],Y,,Y,Y,f,23,
0,534,534,192,11,['k'],['d'],Y,,Y,Y,f,23,
0,535,535,13,11,['k'],['d'],Y,,Y,Y,f,23,
0,536,536,257,11,['k'],['d'],Y,,Y,Y,f,23,
0,537,537,383,11,['d'],['k'],Y,,Y,Y,f,23,
0,538,538,456,11,['d'],['k'],Y,,Y,Y,f,23,
0,539,539,5,11,['d'],['d'],N,,Y,Y,f,23,
0,540,540,436,11,['d'],['k'],Y,,Y,Y,f,23,
0,541,541,573,11,['d'],['k'],Y,,Y,Y,f,23,
0,542,542,530,11,['d'],['k'],Y,,Y,Y,f,23,
0,543,543,108,11,['k'],['d'],Y,,Y,Y,f,23,
0,544,544,207,11,['k'],['d'],Y,,Y,Y,f,23,
0,545,545,343,11,['k'],['k'],N,,Y,Y,f,23,
0,546,546,74,11,['d'],['d'],N,,Y,Y,f,23,
0,547,547,444,11,['d'],['k'],Y,,Y,Y,f,23,
0,548,548,327,11,['d'],['k'],Y,,Y,Y,f,23,
0,549,549,87,11,['k'],['d'],Y,,Y,Y,f,23,
0,550,550,393,12,['d'],['k'],Y,,Y,Y,f,23,
0,551,551,495,12,['d'],['k'],Y,,Y,Y,f,23,
0,552,552,287,12,['k'],['d'],Y,,Y,Y,f,23,
0,553,553,511,12,['d'],['k'],Y,,Y,Y,f,23,
0,554,554,55,12,['d'],['d'],N,,Y,Y,f,23,
0,555,555,395,12,['d'],['k'],Y,,Y,Y,f,23,
0,556,556,119,12,['k'],['d'],Y,,Y,Y,f,23,
0,557,557,117,12,['k'],['d'],Y,,Y,Y,f,23,
0,558,558,220,12,['k'],['d'],Y,,Y,Y,f,23,
0,559,559,285,12,['d'],['d'],N,,Y,Y,f,23,
0,560,560,316,12,None,,Timed out,,Y,Y,f,23,
0,561,561,185,12,None,,Timed out,,Y,Y,f,23,
0,562,562,537,12,['k'],['k'],N,,Y,Y,f,23,
0,563,563,43,12,None,,Timed out,,Y,Y,f,23,
0,564,564,128,12,['k'],['d'],Y,,Y,Y,f,23,
0,565,565,431,12,['d'],['k'],Y,,Y,Y,f,23,
0,566,566,36,12,['d'],['d'],N,,Y,Y,f,23,
0,567,567,557,12,['k'],['k'],N,,Y,Y,f,23,
0,568,568,244,12,['k'],['d'],Y,,Y,Y,f,23,
0,569,569,364,12,['d'],['k'],Y,,Y,Y,f,23,
0,570,570,186,12,['d'],['d'],N,,Y,Y,f,23,
0,571,571,408,12,['d'],['k'],Y,,Y,Y,f,23,
0,572,572,49,12,['k'],['d'],Y,,Y,Y,f,23,
0,573,573,204,12,['k'],['d'],Y,,Y,Y,f,23,
0,574,574,540,12,['d'],['k'],Y,,Y,Y,f,23,
0,575,575,504,12,['d'],['k'],Y,,Y,Y,f,23,
0,576,576,22,12,None,,Timed out,,Y,Y,f,23,
0,577,577,468,12,['k'],['k'],N,,Y,Y,f,23,
0,578,578,99,12,['k'],['d'],Y,,Y,Y,f,23,
0,579,579,112,12,['k'],['d'],Y,,Y,Y,f,23,
0,580,580,381,12,None,,Timed out,,Y,Y,f,23,
0,581,581,290,12,['k'],['d'],Y,,Y,Y,f,23,
0,582,582,398,12,['d'],['k'],Y,,Y,Y,f,23,
0,583,583,491,12,['d'],['k'],Y,,Y,Y,f,23,
0,584,584,440,12,['d'],['k'],Y,,Y,Y,f,23,
0,585,585,476,12,['d'],['k'],Y,,Y,Y,f,23,
0,586,586,526,12,['d'],['k'],Y,,Y,Y,f,23,
0,587,587,501,12,['d'],['k'],Y,,Y,Y,f,23,
0,588,588,514,12,['d'],['k'],Y,,Y,Y,f,23,
0,589,589,51,12,['k'],['d'],Y,,Y,Y,f,23,
0,590,590,503,12,['d'],['k'],Y,,Y,Y,f,23,
0,591,591,315,12,['d'],['k'],Y,,Y,Y,f,23,
0,592,592,432,12,['d'],['k'],Y,,Y,Y,f,23,
0,593,593,433,12,['k'],['k'],N,,Y,Y,f,23,
0,594,594,594,12,['d'],['k'],Y,,Y,Y,f,23,
0,595,595,121,12,['k'],['d'],Y,,Y,Y,f,23,
0,596,596,341,12,['k'],['k'],N,,Y,Y,f,23,
0,597,597,508,12,['d'],['k'],Y,,Y,Y,f,23,
0,598,598,445,12,['d'],['k'],Y,,Y,Y,f,23,
0,599,599,366,12,['d'],['k'],Y,,Y,Y,f,23,
