.thisRepN,.thisTrialN,.thisN,.thisIndex,Block Number,Key pressed,Category,Correct?,Button switch shown?,Actually switched?,Fast?,gender,age
0,0,0,545,1,['k'],['k'],Y,,,,F ,21
0,1,1,366,1,['k'],['k'],Y,,,,F ,21
0,2,2,319,1,['d'],['k'],N,,,,F ,21
0,3,3,66,1,['d'],['d'],Y,,,,F ,21
0,4,4,227,1,['k'],['d'],N,,,,F ,21
0,5,5,220,1,['d'],['d'],Y,,,,F ,21
0,6,6,457,1,['k'],['k'],Y,,,,F ,21
0,7,7,190,1,['k'],['d'],N,,,,F ,21
0,8,8,226,1,['d'],['d'],Y,,,,F ,21
0,9,9,400,1,['k'],['k'],Y,,,,F ,21
0,10,10,439,1,['d'],['k'],N,,,,F ,21
0,11,11,427,1,['k'],['k'],Y,,,,F ,21
0,12,12,421,1,['k'],['k'],Y,,,,F ,21
0,13,13,538,1,['k'],['k'],Y,,,,F ,21
0,14,14,48,1,['d'],['d'],Y,,,,F ,21
0,15,15,460,1,['k'],['k'],Y,,,,F ,21
0,16,16,419,1,['k'],['k'],Y,,,,F ,21
0,17,17,213,1,['d'],['d'],Y,,,,F ,21
0,18,18,309,1,['k'],['k'],Y,,,,F ,21
0,19,19,265,1,['d'],['d'],Y,,,,F ,21
0,20,20,573,1,['k'],['k'],Y,,,,F ,21
0,21,21,7,1,['d'],['d'],Y,,,,F ,21
0,22,22,173,1,['k'],['d'],N,,,,F ,21
0,23,23,587,1,['k'],['k'],Y,,,,F ,21
0,24,24,257,1,['d'],['d'],Y,,,,F ,21
0,25,25,266,1,['k'],['d'],N,,,,F ,21
0,26,26,2,1,['k'],['d'],N,,,,F ,21
0,27,27,528,1,['k'],['k'],Y,,,,F ,21
0,28,28,83,1,['k'],['d'],N,,,,F ,21
0,29,29,412,1,['d'],['k'],N,,,,F ,21
0,30,30,541,1,['k'],['k'],Y,,,,F ,21
0,31,31,575,1,['k'],['k'],Y,,,,F ,21
0,32,32,326,1,['d'],['k'],N,,,,F ,21
0,33,33,588,1,['k'],['k'],Y,,,,F ,21
0,34,34,68,1,['k'],['d'],N,,,,F ,21
0,35,35,555,1,['k'],['k'],Y,,,,F ,21
0,36,36,171,1,['d'],['d'],Y,,,,F ,21
0,37,37,465,1,['k'],['k'],Y,,,,F ,21
0,38,38,394,1,['k'],['k'],Y,,,,F ,21
0,39,39,406,1,['k'],['k'],Y,,,,F ,21
0,40,40,156,1,['d'],['d'],Y,,,,F ,21
0,41,41,540,1,['k'],['k'],Y,,,,F ,21
0,42,42,426,1,['k'],['k'],Y,,,,F ,21
0,43,43,206,1,['d'],['d'],Y,,,,F ,21
0,44,44,361,1,['k'],['k'],Y,,,,F ,21
0,45,45,378,1,['d'],['k'],N,,,,F ,21
0,46,46,390,1,['k'],['k'],Y,,,,F ,21
0,47,47,85,1,['k'],['d'],N,,,,F ,21
0,48,48,296,1,['d'],['d'],Y,,,,F ,21
0,49,49,237,1,['d'],['d'],Y,,,,F ,21
,,,,,,,"37, 13",,,,,
0,50,50,482,2,['k'],['k'],Y,,,,F ,21
0,51,51,404,2,['d'],['k'],N,,,,F ,21
0,52,52,396,2,['k'],['k'],Y,,,,F ,21
0,53,53,43,2,['k'],['d'],N,,,,F ,21
0,54,54,571,2,['k'],['k'],Y,,,,F ,21
0,55,55,240,2,['d'],['d'],Y,,,,F ,21
0,56,56,281,2,['d'],['d'],Y,,,,F ,21
0,57,57,476,2,['k'],['k'],Y,,,,F ,21
0,58,58,462,2,['k'],['k'],Y,,,,F ,21
0,59,59,306,2,['d'],['k'],N,,,,F ,21
0,60,60,416,2,['k'],['k'],Y,,,,F ,21
0,61,61,370,2,['k'],['k'],Y,,,,F ,21
0,62,62,392,2,['k'],['k'],Y,,,,F ,21
0,63,63,505,2,['d'],['k'],N,,,,F ,21
0,64,64,524,2,['k'],['k'],Y,,,,F ,21
0,65,65,179,2,['k'],['d'],N,,,,F ,21
0,66,66,443,2,['d'],['k'],N,,,,F ,21
0,67,67,214,2,['d'],['d'],Y,,,,F ,21
0,68,68,527,2,['k'],['k'],Y,,,,F ,21
0,69,69,252,2,['d'],['d'],Y,,,,F ,21
0,70,70,150,2,['d'],['d'],Y,,,,F ,21
0,71,71,454,2,['k'],['k'],Y,,,,F ,21
0,72,72,133,2,['d'],['d'],Y,,,,F ,21
0,73,73,138,2,['k'],['d'],N,,,,F ,21
0,74,74,262,2,['k'],['d'],N,,,,F ,21
0,75,75,93,2,['k'],['d'],N,,,,F ,21
0,76,76,358,2,['k'],['k'],Y,,,,F ,21
0,77,77,501,2,['k'],['k'],Y,,,,F ,21
0,78,78,163,2,['d'],['d'],Y,,,,F ,21
0,79,79,258,2,['d'],['d'],Y,,,,F ,21
0,80,80,243,2,['d'],['d'],Y,,,,F ,21
0,81,81,199,2,['d'],['d'],Y,,,,F ,21
0,82,82,89,2,['k'],['d'],N,,,,F ,21
0,83,83,401,2,['k'],['k'],Y,,,,F ,21
0,84,84,286,2,['d'],['d'],Y,,,,F ,21
0,85,85,446,2,['k'],['k'],Y,,,,F ,21
0,86,86,342,2,['k'],['k'],Y,,,,F ,21
0,87,87,74,2,['d'],['d'],Y,,,,F ,21
0,88,88,431,2,['k'],['k'],Y,,,,F ,21
0,89,89,353,2,['k'],['k'],Y,,,,F ,21
0,90,90,157,2,['d'],['d'],Y,,,,F ,21
0,91,91,203,2,['d'],['d'],Y,,,,F ,21
0,92,92,70,2,['k'],['d'],N,,,,F ,21
0,93,93,537,2,['k'],['k'],Y,,,,F ,21
0,94,94,451,2,['k'],['k'],Y,,,,F ,21
0,95,95,381,2,['k'],['k'],Y,,,,F ,21
0,96,96,403,2,['d'],['k'],N,,,,F ,21
0,97,97,290,2,['d'],['d'],Y,,,,F ,21
0,98,98,531,2,['k'],['k'],Y,,,,F ,21
0,99,99,162,2,['d'],['d'],Y,,,,F ,21
,,,,,,,"38, 12",,,,,
0,100,100,202,3,['d'],['d'],Y,,,,F ,21
0,101,101,310,3,['k'],['k'],Y,,,,F ,21
0,102,102,148,3,['d'],['d'],Y,,,,F ,21
0,103,103,151,3,['d'],['d'],Y,,,,F ,21
0,104,104,232,3,['d'],['d'],Y,,,,F ,21
0,105,105,470,3,['k'],['k'],Y,,,,F ,21
0,106,106,565,3,['k'],['k'],Y,,,,F ,21
0,107,107,42,3,['d'],['d'],Y,,,,F ,21
0,108,108,436,3,['d'],['k'],N,,,,F ,21
0,109,109,596,3,['k'],['k'],Y,,,,F ,21
0,110,110,444,3,['k'],['k'],Y,,,,F ,21
0,111,111,483,3,['d'],['k'],N,,,,F ,21
0,112,112,169,3,['d'],['d'],Y,,,,F ,21
0,113,113,114,3,['d'],['d'],Y,,,,F ,21
0,114,114,298,3,['k'],['d'],N,,,,F ,21
0,115,115,91,3,['d'],['d'],Y,,,,F ,21
0,116,116,336,3,['k'],['k'],Y,,,,F ,21
0,117,117,563,3,['k'],['k'],Y,,,,F ,21
0,118,118,308,3,['k'],['k'],Y,,,,F ,21
0,119,119,356,3,['k'],['k'],Y,,,,F ,21
0,120,120,413,3,['k'],['k'],Y,,,,F ,21
0,121,121,131,3,['d'],['d'],Y,,,,F ,21
0,122,122,325,3,['k'],['k'],Y,,,,F ,21
0,123,123,578,3,['k'],['k'],Y,,,,F ,21
0,124,124,12,3,['d'],['d'],Y,,,,F ,21
0,125,125,62,3,['d'],['d'],Y,,,,F ,21
0,126,126,100,3,['d'],['d'],Y,,,,F ,21
0,127,127,229,3,['d'],['d'],Y,,,,F ,21
0,128,128,111,3,['d'],['d'],Y,,,,F ,21
0,129,129,287,3,['d'],['d'],Y,,,,F ,21
0,130,130,383,3,['k'],['k'],Y,,,,F ,21
0,131,131,486,3,['k'],['k'],Y,,,,F ,21
0,132,132,45,3,['d'],['d'],Y,,,,F ,21
0,133,133,452,3,['k'],['k'],Y,,,,F ,21
0,134,134,438,3,['k'],['k'],Y,,,,F ,21
0,135,135,10,3,['k'],['d'],N,,,,F ,21
0,136,136,475,3,['k'],['k'],Y,,,,F ,21
0,137,137,320,3,['k'],['k'],Y,,,,F ,21
0,138,138,516,3,['k'],['k'],Y,,,,F ,21
0,139,139,235,3,['d'],['d'],Y,,,,F ,21
0,140,140,264,3,['d'],['d'],Y,,,,F ,21
0,141,141,517,3,['k'],['k'],Y,,,,F ,21
0,142,142,304,3,['k'],['k'],Y,,,,F ,21
0,143,143,502,3,['k'],['k'],Y,,,,F ,21
0,144,144,508,3,['k'],['k'],Y,,,,F ,21
0,145,145,375,3,['k'],['k'],Y,,,,F ,21
0,146,146,347,3,['k'],['k'],Y,,,,F ,21
0,147,147,333,3,['k'],['k'],Y,,,,F ,21
0,148,148,348,3,['k'],['k'],Y,,,,F ,21
0,149,149,35,3,['d'],['d'],Y,,,,F ,21
,,,,,,,"46, 4",,,,,
0,150,150,168,4,['d'],['d'],Y,,,,F ,21
0,151,151,209,4,['d'],['d'],Y,,,,F ,21
0,152,152,560,4,['k'],['k'],Y,,,,F ,21
0,153,153,385,4,['k'],['k'],Y,,,,F ,21
0,154,154,411,4,['k'],['k'],Y,,,,F ,21
0,155,155,428,4,['k'],['k'],Y,,,,F ,21
0,156,156,567,4,['d'],['k'],N,,,,F ,21
0,157,157,418,4,['k'],['k'],Y,,,,F ,21
0,158,158,116,4,['d'],['d'],Y,,,,F ,21
0,159,159,414,4,['k'],['k'],Y,,,,F ,21
0,160,160,284,4,['d'],['d'],Y,,,,F ,21
0,161,161,242,4,['k'],['d'],N,,,,F ,21
0,162,162,263,4,['d'],['d'],Y,,,,F ,21
0,163,163,318,4,['k'],['k'],Y,,,,F ,21
0,164,164,177,4,['d'],['d'],Y,,,,F ,21
0,165,165,102,4,['d'],['d'],Y,,,,F ,21
0,166,166,31,4,['d'],['d'],Y,,,,F ,21
0,167,167,69,4,['d'],['d'],Y,,,,F ,21
0,168,168,399,4,['k'],['k'],Y,,,,F ,21
0,169,169,433,4,['d'],['k'],N,,,,F ,21
0,170,170,388,4,['k'],['k'],Y,,,,F ,21
0,171,171,118,4,['d'],['d'],Y,,,,F ,21
0,172,172,315,4,['k'],['k'],Y,,,,F ,21
0,173,173,423,4,['k'],['k'],Y,,,,F ,21
0,174,174,479,4,['k'],['k'],Y,,,,F ,21
0,175,175,472,4,['k'],['k'],Y,,,,F ,21
0,176,176,201,4,['k'],['d'],N,,,,F ,21
0,177,177,200,4,['k'],['d'],N,,,,F ,21
0,178,178,95,4,['k'],['d'],N,,,,F ,21
0,179,179,228,4,['d'],['d'],Y,,,,F ,21
0,180,180,434,4,['k'],['k'],Y,,,,F ,21
0,181,181,217,4,['k'],['d'],N,,,,F ,21
0,182,182,529,4,['k'],['k'],Y,,,,F ,21
0,183,183,39,4,['k'],['d'],N,,,,F ,21
0,184,184,407,4,['k'],['k'],Y,,,,F ,21
0,185,185,230,4,['d'],['d'],Y,,,,F ,21
0,186,186,120,4,['k'],['d'],N,,,,F ,21
0,187,187,341,4,['d'],['k'],N,,,,F ,21
0,188,188,238,4,['k'],['d'],N,,,,F ,21
0,189,189,498,4,['k'],['k'],Y,,,,F ,21
0,190,190,105,4,['d'],['d'],Y,,,,F ,21
0,191,191,362,4,['k'],['k'],Y,,,,F ,21
0,192,192,303,4,['k'],['k'],Y,,,,F ,21
0,193,193,115,4,['k'],['d'],N,,,,F ,21
0,194,194,249,4,['d'],['d'],Y,,,,F ,21
0,195,195,511,4,['k'],['k'],Y,,,,F ,21
0,196,196,273,4,['k'],['d'],N,,,,F ,21
0,197,197,572,4,['k'],['k'],Y,,,,F ,21
0,198,198,178,4,['d'],['d'],Y,,,,F ,21
0,199,199,543,4,['k'],['k'],Y,,,,F ,21
,,,,,,,"37, 13",,,,,
0,200,200,122,5,['k'],['d'],N,,,,F ,21
0,201,201,260,5,['d'],['d'],Y,,,,F ,21
0,202,202,61,5,['d'],['d'],Y,,,,F ,21
0,203,203,553,5,['k'],['k'],Y,,,,F ,21
0,204,204,369,5,['k'],['k'],Y,,,,F ,21
0,205,205,533,5,['k'],['k'],Y,,,,F ,21
0,206,206,364,5,['k'],['k'],Y,,,,F ,21
0,207,207,28,5,['k'],['d'],N,,,,F ,21
0,208,208,194,5,['k'],['d'],N,,,,F ,21
0,209,209,140,5,['d'],['d'],Y,,,,F ,21
0,210,210,518,5,['k'],['k'],Y,,,,F ,21
0,211,211,302,5,['k'],['k'],Y,,,,F ,21
0,212,212,368,5,['k'],['k'],Y,,,,F ,21
0,213,213,9,5,['d'],['d'],Y,,,,F ,21
0,214,214,80,5,['d'],['d'],Y,,,,F ,21
0,215,215,380,5,['k'],['k'],Y,,,,F ,21
0,216,216,72,5,['d'],['d'],Y,,,,F ,21
0,217,217,586,5,['k'],['k'],Y,,,,F ,21
0,218,218,26,5,['k'],['d'],N,,,,F ,21
0,219,219,487,5,['k'],['k'],Y,,,,F ,21
0,220,220,110,5,['d'],['d'],Y,,,,F ,21
0,221,221,330,5,['k'],['k'],Y,,,,F ,21
0,222,222,493,5,['k'],['k'],Y,,,,F ,21
0,223,223,6,5,['d'],['d'],Y,,,,F ,21
0,224,224,562,5,['k'],['k'],Y,,,,F ,21
0,225,225,282,5,['d'],['d'],Y,,,,F ,21
0,226,226,422,5,['k'],['k'],Y,,,,F ,21
0,227,227,153,5,['d'],['d'],Y,,,,F ,21
0,228,228,149,5,['k'],['d'],N,,,,F ,21
0,229,229,221,5,['k'],['d'],N,,,,F ,21
0,230,230,204,5,['d'],['d'],Y,,,,F ,21
0,231,231,346,5,['k'],['k'],Y,,,,F ,21
0,232,232,97,5,['d'],['d'],Y,,,,F ,21
0,233,233,549,5,['k'],['k'],Y,,,,F ,21
0,234,234,50,5,['d'],['d'],Y,,,,F ,21
0,235,235,64,5,['k'],['d'],N,,,,F ,21
0,236,236,182,5,['d'],['d'],Y,,,,F ,21
0,237,237,130,5,['k'],['d'],N,,,,F ,21
0,238,238,109,5,['k'],['d'],N,,,,F ,21
0,239,239,398,5,['d'],['k'],N,,,,F ,21
0,240,240,408,5,['k'],['k'],Y,,,,F ,21
0,241,241,332,5,['d'],['k'],N,,,,F ,21
0,242,242,225,5,['k'],['d'],N,,,,F ,21
0,243,243,40,5,['k'],['d'],N,,,,F ,21
0,244,244,354,5,['k'],['k'],Y,,,,F ,21
0,245,245,437,5,['k'],['k'],Y,,,,F ,21
0,246,246,473,5,['k'],['k'],Y,,,,F ,21
0,247,247,477,5,['k'],['k'],Y,,,,F ,21
0,248,248,222,5,['k'],['d'],N,,,,F ,21
0,249,249,104,5,['d'],['d'],Y,,,,F ,21
,,,,,,,"36, 14",,,,,
0,250,250,471,6,['d'],['k'],N,,,,F ,21
0,251,251,289,6,['d'],['d'],Y,,,,F ,21
0,252,252,532,6,['k'],['k'],Y,,,,F ,21
0,253,253,570,6,['k'],['k'],Y,,,,F ,21
0,254,254,373,6,['d'],['k'],N,,,,F ,21
0,255,255,317,6,['k'],['k'],Y,,,,F ,21
0,256,256,463,6,['k'],['k'],Y,,,,F ,21
0,257,257,23,6,['k'],['d'],N,,,,F ,21
0,258,258,507,6,['k'],['k'],Y,,,,F ,21
0,259,259,94,6,['k'],['d'],N,,,,F ,21
0,260,260,558,6,['k'],['k'],Y,,,,F ,21
0,261,261,534,6,['k'],['k'],Y,,,,F ,21
0,262,262,233,6,['k'],['d'],N,,,,F ,21
0,263,263,46,6,['d'],['d'],Y,,,,F ,21
0,264,264,52,6,['d'],['d'],Y,,,,F ,21
0,265,265,544,6,['k'],['k'],Y,,,,F ,21
0,266,266,67,6,['d'],['d'],Y,,,,F ,21
0,267,267,84,6,['d'],['d'],Y,,,,F ,21
0,268,268,467,6,['d'],['k'],N,,,,F ,21
0,269,269,268,6,['d'],['d'],Y,,,,F ,21
0,270,270,49,6,['k'],['d'],N,,,,F ,21
0,271,271,583,6,['k'],['k'],Y,,,,F ,21
0,272,272,480,6,['k'],['k'],Y,,,,F ,21
0,273,273,542,6,['k'],['k'],Y,,,,F ,21
0,274,274,183,6,['d'],['d'],Y,,,,F ,21
0,275,275,576,6,['k'],['k'],Y,,,,F ,21
0,276,276,47,6,['d'],['d'],Y,,,,F ,21
0,277,277,339,6,['k'],['k'],Y,,,,F ,21
0,278,278,112,6,['d'],['d'],Y,,,,F ,21
0,279,279,595,6,['k'],['k'],Y,,,,F ,21
0,280,280,78,6,['k'],['d'],N,,,,F ,21
0,281,281,322,6,['k'],['k'],Y,,,,F ,21
0,282,282,53,6,['d'],['d'],Y,,,,F ,21
0,283,283,79,6,['d'],['d'],Y,,,,F ,21
0,284,284,459,6,['k'],['k'],Y,,,,F ,21
0,285,285,503,6,['k'],['k'],Y,,,,F ,21
0,286,286,592,6,['k'],['k'],Y,,,,F ,21
0,287,287,492,6,['k'],['k'],Y,,,,F ,21
0,288,288,51,6,['d'],['d'],Y,,,,F ,21
0,289,289,25,6,['d'],['d'],Y,,,,F ,21
0,290,290,159,6,['d'],['d'],Y,,,,F ,21
0,291,291,496,6,['d'],['k'],N,,,,F ,21
0,292,292,129,6,['k'],['d'],N,,,,F ,21
0,293,293,449,6,['k'],['k'],Y,,,,F ,21
0,294,294,481,6,['k'],['k'],Y,,,,F ,21
0,295,295,143,6,['d'],['d'],Y,,,,F ,21
0,296,296,236,6,['d'],['d'],Y,,,,F ,21
0,297,297,256,6,['d'],['d'],Y,,,,F ,21
0,298,298,393,6,['d'],['k'],N,,,,F ,21
0,299,299,469,6,['d'],['k'],N,,,,F ,21
,,,,,,,"38, 12",,,,,
0,300,300,195,7,['d'],['d'],Y,,,,F ,21
0,301,301,188,7,['d'],['d'],Y,,,,F ,21
0,302,302,22,7,['d'],['d'],Y,,,,F ,21
0,303,303,384,7,['k'],['k'],Y,,,,F ,21
0,304,304,504,7,['k'],['k'],Y,,,,F ,21
0,305,305,485,7,['k'],['k'],Y,,,,F ,21
0,306,306,185,7,['d'],['d'],Y,,,,F ,21
0,307,307,246,7,['d'],['d'],Y,,,,F ,21
0,308,308,8,7,['d'],['d'],Y,,,,F ,21
0,309,309,155,7,['d'],['d'],Y,,,,F ,21
0,310,310,425,7,['k'],['k'],Y,,,,F ,21
0,311,311,251,7,['d'],['d'],Y,,,,F ,21
0,312,312,71,7,['d'],['d'],Y,,,,F ,21
0,313,313,345,7,['k'],['k'],Y,,,,F ,21
0,314,314,279,7,['d'],['d'],Y,,,,F ,21
0,315,315,152,7,['k'],['d'],N,,,,F ,21
0,316,316,331,7,['k'],['k'],Y,,,,F ,21
0,317,317,15,7,['d'],['d'],Y,,,,F ,21
0,318,318,466,7,['k'],['k'],Y,,,,F ,21
0,319,319,468,7,['k'],['k'],Y,,,,F ,21
0,320,320,87,7,['d'],['d'],Y,,,,F ,21
0,321,321,145,7,['d'],['d'],Y,,,,F ,21
0,322,322,455,7,['k'],['k'],Y,,,,F ,21
0,323,323,13,7,['d'],['d'],Y,,,,F ,21
0,324,324,41,7,['d'],['d'],Y,,,,F ,21
0,325,325,515,7,['k'],['k'],Y,,,,F ,21
0,326,326,300,7,['k'],['k'],Y,,,,F ,21
0,327,327,223,7,['d'],['d'],Y,,,,F ,21
0,328,328,305,7,['k'],['k'],Y,,,,F ,21
0,329,329,198,7,['d'],['d'],Y,,,,F ,21
0,330,330,557,7,['k'],['k'],Y,,,,F ,21
0,331,331,186,7,['d'],['d'],Y,,,,F ,21
0,332,332,329,7,['k'],['k'],Y,,,,F ,21
0,333,333,484,7,['k'],['k'],Y,,,,F ,21
0,334,334,598,7,['k'],['k'],Y,,,,F ,21
0,335,335,294,7,['d'],['d'],Y,,,,F ,21
0,336,336,552,7,['k'],['k'],Y,,,,F ,21
0,337,337,395,7,['k'],['k'],Y,,,,F ,21
0,338,338,577,7,['d'],['k'],N,,,,F ,21
0,339,339,316,7,['k'],['k'],Y,,,,F ,21
0,340,340,219,7,['d'],['d'],Y,,,,F ,21
0,341,341,402,7,['k'],['k'],Y,,,,F ,21
0,342,342,435,7,['k'],['k'],Y,,,,F ,21
0,343,343,3,7,['d'],['d'],Y,,,,F ,21
0,344,344,478,7,['k'],['k'],Y,,,,F ,21
0,345,345,24,7,['k'],['d'],N,,,,F ,21
0,346,346,506,7,['k'],['k'],Y,,,,F ,21
0,347,347,526,7,['k'],['k'],Y,,,,F ,21
0,348,348,241,7,['d'],['d'],Y,,,,F ,21
0,349,349,430,7,['k'],['k'],Y,,,,F ,21
,,,,,,,"47, 3",,,,,
0,350,350,594,8,['k'],['k'],Y,,,,F ,21
0,351,351,530,8,['k'],['k'],Y,,,,F ,21
0,352,352,175,8,['d'],['d'],Y,,,,F ,21
0,353,353,34,8,['k'],['d'],N,,,,F ,21
0,354,354,561,8,['k'],['k'],Y,,,,F ,21
0,355,355,556,8,['k'],['k'],Y,,,,F ,21
0,356,356,247,8,['d'],['d'],Y,,,,F ,21
0,357,357,581,8,['k'],['k'],Y,,,,F ,21
0,358,358,569,8,['k'],['k'],Y,,,,F ,21
0,359,359,521,8,['k'],['k'],Y,,,,F ,21
0,360,360,135,8,['d'],['d'],Y,,,,F ,21
0,361,361,582,8,['k'],['k'],Y,,,,F ,21
0,362,362,424,8,['k'],['k'],Y,,,,F ,21
0,363,363,491,8,['k'],['k'],Y,,,,F ,21
0,364,364,234,8,['k'],['d'],N,,,,F ,21
0,365,365,239,8,['d'],['d'],Y,,,,F ,21
0,366,366,525,8,['k'],['k'],Y,,,,F ,21
0,367,367,445,8,['k'],['k'],Y,,,,F ,21
0,368,368,33,8,['d'],['d'],Y,,,,F ,21
0,369,369,461,8,['k'],['k'],Y,,,,F ,21
0,370,370,441,8,['k'],['k'],Y,,,,F ,21
0,371,371,147,8,['d'],['d'],Y,,,,F ,21
0,372,372,132,8,['d'],['d'],Y,,,,F ,21
0,373,373,551,8,['k'],['k'],Y,,,,F ,21
0,374,374,291,8,['k'],['d'],N,,,,F ,21
0,375,375,167,8,['d'],['d'],Y,,,,F ,21
0,376,376,146,8,['d'],['d'],Y,,,,F ,21
0,377,377,510,8,['k'],['k'],Y,,,,F ,21
0,378,378,379,8,['d'],['k'],N,,,,F ,21
0,379,379,547,8,['k'],['k'],Y,,,,F ,21
0,380,380,301,8,['k'],['k'],Y,,,,F ,21
0,381,381,18,8,['d'],['d'],Y,,,,F ,21
0,382,382,142,8,['k'],['d'],N,,,,F ,21
0,383,383,464,8,['d'],['k'],N,,,,F ,21
0,384,384,535,8,['k'],['k'],Y,,,,F ,21
0,385,385,60,8,['d'],['d'],Y,,,,F ,21
0,386,386,259,8,['k'],['d'],N,,,,F ,21
0,387,387,591,8,['k'],['k'],Y,,,,F ,21
0,388,388,580,8,['k'],['k'],Y,,,,F ,21
0,389,389,494,8,['k'],['k'],Y,,,,F ,21
0,390,390,338,8,['k'],['k'],Y,,,,F ,21
0,391,391,254,8,['d'],['d'],Y,,,,F ,21
0,392,392,73,8,['k'],['d'],N,,,,F ,21
0,393,393,139,8,['k'],['d'],N,,,,F ,21
0,394,394,144,8,['d'],['d'],Y,,,,F ,21
0,395,395,81,8,['k'],['d'],N,,,,F ,21
0,396,396,312,8,['k'],['k'],Y,,,,F ,21
0,397,397,210,8,['d'],['d'],Y,,,,F ,21
0,398,398,137,8,['k'],['d'],N,,,,F ,21
0,399,399,546,8,['k'],['k'],Y,,,,F ,21
,,,,,,,"39, 11",,,,,
0,400,400,420,9,['k'],['k'],Y,,,,F ,21
0,401,401,360,9,['k'],['k'],Y,,,,F ,21
0,402,402,590,9,['k'],['k'],Y,,,,F ,21
0,403,403,14,9,['d'],['d'],Y,,,,F ,21
0,404,404,297,9,['d'],['d'],Y,,,,F ,21
0,405,405,88,9,['d'],['d'],Y,,,,F ,21
0,406,406,63,9,['d'],['d'],Y,,,,F ,21
0,407,407,365,9,['k'],['k'],Y,,,,F ,21
0,408,408,86,9,['k'],['d'],N,,,,F ,21
0,409,409,288,9,['k'],['d'],N,,,,F ,21
0,410,410,37,9,['d'],['d'],Y,,,,F ,21
0,411,411,372,9,['k'],['k'],Y,,,,F ,21
0,412,412,490,9,['k'],['k'],Y,,,,F ,21
0,413,413,474,9,['k'],['k'],Y,,,,F ,21
0,414,414,489,9,['d'],['k'],N,,,,F ,21
0,415,415,253,9,['k'],['d'],N,,,,F ,21
0,416,416,500,9,['d'],['k'],N,,,,F ,21
0,417,417,165,9,['d'],['d'],Y,,,,F ,21
0,418,418,409,9,['k'],['k'],Y,,,,F ,21
0,419,419,75,9,['d'],['d'],Y,,,,F ,21
0,420,420,17,9,['d'],['d'],Y,,,,F ,21
0,421,421,579,9,['d'],['k'],N,,,,F ,21
0,422,422,107,9,['d'],['d'],Y,,,,F ,21
0,423,423,126,9,['d'],['d'],Y,,,,F ,21
0,424,424,328,9,['k'],['k'],Y,,,,F ,21
0,425,425,261,9,['d'],['d'],Y,,,,F ,21
0,426,426,513,9,['k'],['k'],Y,,,,F ,21
0,427,427,136,9,['d'],['d'],Y,,,,F ,21
0,428,428,275,9,['d'],['d'],Y,,,,F ,21
0,429,429,349,9,['d'],['k'],N,,,,F ,21
0,430,430,216,9,['k'],['d'],N,,,,F ,21
0,431,431,456,9,['k'],['k'],Y,,,,F ,21
0,432,432,11,9,['d'],['d'],Y,,,,F ,21
0,433,433,377,9,['k'],['k'],Y,,,,F ,21
0,434,434,269,9,['d'],['d'],Y,,,,F ,21
0,435,435,197,9,['d'],['d'],Y,,,,F ,21
0,436,436,352,9,['k'],['k'],Y,,,,F ,21
0,437,437,520,9,['k'],['k'],Y,,,,F ,21
0,438,438,363,9,['k'],['k'],Y,,,,F ,21
0,439,439,488,9,['k'],['k'],Y,,,,F ,21
0,440,440,0,9,['d'],['d'],Y,,,,F ,21
0,441,441,58,9,['k'],['d'],N,,,,F ,21
0,442,442,550,9,['k'],['k'],Y,,,,F ,21
0,443,443,323,9,['d'],['k'],N,,,,F ,21
0,444,444,123,9,['d'],['d'],Y,,,,F ,21
0,445,445,327,9,['k'],['k'],Y,,,,F ,21
0,446,446,44,9,['d'],['d'],Y,,,,F ,21
0,447,447,447,9,['k'],['k'],Y,,,,F ,21
0,448,448,371,9,['k'],['k'],Y,,,,F ,21
0,449,449,1,9,['d'],['d'],Y,,,,F ,21
,,,,,,,"40, 10",,,,,
0,450,450,127,10,['d'],['d'],Y,,,,F ,21
0,451,451,166,10,['d'],['d'],Y,,,,F ,21
0,452,452,293,10,['d'],['d'],Y,,,,F ,21
0,453,453,181,10,['k'],['d'],N,,,,F ,21
0,454,454,382,10,['k'],['k'],Y,,,,F ,21
0,455,455,391,10,['k'],['k'],Y,,,,F ,21
0,456,456,65,10,['d'],['d'],Y,,,,F ,21
0,457,457,36,10,['d'],['d'],Y,,,,F ,21
0,458,458,274,10,['d'],['d'],Y,,,,F ,21
0,459,459,497,10,['k'],['k'],Y,,,,F ,21
0,460,460,170,10,['d'],['d'],Y,,,,F ,21
0,461,461,340,10,['k'],['k'],Y,,,,F ,21
0,462,462,343,10,['k'],['k'],Y,,,,F ,21
0,463,463,119,10,['d'],['d'],Y,,,,F ,21
0,464,464,218,10,['d'],['d'],Y,,,,F ,21
0,465,465,99,10,['d'],['d'],Y,,,,F ,21
0,466,466,307,10,['k'],['k'],Y,,,,F ,21
0,467,467,184,10,['k'],['d'],N,,,,F ,21
0,468,468,574,10,['k'],['k'],Y,,,,F ,21
0,469,469,597,10,['k'],['k'],Y,,,,F ,21
0,470,470,299,10,['d'],['d'],Y,,,,F ,21
0,471,471,397,10,['d'],['k'],N,,,,F ,21
0,472,472,405,10,['k'],['k'],Y,,,,F ,21
0,473,473,54,10,['d'],['d'],Y,,,,F ,21
0,474,474,92,10,['d'],['d'],Y,,,,F ,21
0,475,475,113,10,['d'],['d'],Y,,,,F ,21
0,476,476,154,10,['d'],['d'],Y,,,,F ,21
0,477,477,334,10,['k'],['k'],Y,,,,F ,21
0,478,478,187,10,['d'],['d'],Y,,,,F ,21
0,479,479,212,10,['d'],['d'],Y,,,,F ,21
0,480,480,548,10,['k'],['k'],Y,,,,F ,21
0,481,481,125,10,['d'],['d'],Y,,,,F ,21
0,482,482,337,10,['d'],['k'],N,,,,F ,21
0,483,483,193,10,['k'],['d'],N,,,,F ,21
0,484,484,499,10,['k'],['k'],Y,,,,F ,21
0,485,485,599,10,['k'],['k'],Y,,,,F ,21
0,486,486,231,10,['d'],['d'],Y,,,,F ,21
0,487,487,134,10,['d'],['d'],Y,,,,F ,21
0,488,488,158,10,['d'],['d'],Y,,,,F ,21
0,489,489,176,10,['d'],['d'],Y,,,,F ,21
0,490,490,280,10,['d'],['d'],Y,,,,F ,21
0,491,491,29,10,['d'],['d'],Y,,,,F ,21
0,492,492,191,10,['d'],['d'],Y,,,,F ,21
0,493,493,450,10,['d'],['k'],N,,,,F ,21
0,494,494,250,10,['d'],['d'],Y,,,,F ,21
0,495,495,103,10,['d'],['d'],Y,,,,F ,21
0,496,496,376,10,['k'],['k'],Y,,,,F ,21
0,497,497,432,10,['k'],['k'],Y,,,,F ,21
0,498,498,417,10,['d'],['k'],N,,,,F ,21
0,499,499,16,10,['d'],['d'],Y,,,,F ,21
,,,,,,,"43, 7",,,,,
0,500,500,208,11,['k'],['d'],Y,Y,Y,Y,F ,21
0,501,501,267,11,None,,Timed out,,Y,Y,F ,21
0,502,502,429,11,['k'],['k'],N,,Y,Y,F ,21
0,503,503,32,11,['d'],['d'],N,,Y,Y,F ,21
0,504,504,5,11,['d'],['d'],N,,Y,Y,F ,21
0,505,505,314,11,['k'],['k'],N,,Y,Y,F ,21
0,506,506,27,11,['k'],['d'],Y,,Y,Y,F ,21
0,507,507,495,11,['d'],['k'],Y,,Y,Y,F ,21
0,508,508,96,11,['d'],['d'],N,,Y,Y,F ,21
0,509,509,278,11,['d'],['d'],N,,Y,Y,F ,21
0,510,510,244,11,['k'],['d'],Y,,Y,Y,F ,21
0,511,511,311,11,['k'],['k'],N,,Y,Y,F ,21
0,512,512,458,11,['d'],['k'],Y,,Y,Y,F ,21
0,513,513,539,11,['d'],['k'],Y,,Y,Y,F ,21
0,514,514,55,11,['k'],['d'],Y,,Y,Y,F ,21
0,515,515,523,11,['d'],['k'],Y,,Y,Y,F ,21
0,516,516,593,11,['k'],['k'],N,,Y,Y,F ,21
0,517,517,522,11,['d'],['k'],Y,,Y,Y,F ,21
0,518,518,248,11,['k'],['d'],Y,,Y,Y,F ,21
0,519,519,30,11,['d'],['d'],N,,Y,Y,F ,21
0,520,520,554,11,['k'],['k'],N,,Y,Y,F ,21
0,521,521,160,11,['d'],['d'],N,,Y,Y,F ,21
0,522,522,335,11,['k'],['k'],N,,Y,Y,F ,21
0,523,523,192,11,['k'],['d'],Y,,Y,Y,F ,21
0,524,524,128,11,['k'],['d'],Y,,Y,Y,F ,21
0,525,525,568,11,['k'],['k'],N,,Y,Y,F ,21
0,526,526,164,11,['k'],['d'],Y,,Y,Y,F ,21
0,527,527,117,11,['d'],['d'],N,,Y,Y,F ,21
0,528,528,56,11,['k'],['d'],Y,,Y,Y,F ,21
0,529,529,448,11,['k'],['k'],N,,Y,Y,F ,21
0,530,530,359,11,['k'],['k'],N,,Y,Y,F ,21
0,531,531,566,11,['k'],['k'],N,,Y,Y,F ,21
0,532,532,584,11,['k'],['k'],N,,Y,Y,F ,21
0,533,533,387,11,['k'],['k'],N,,Y,Y,F ,21
0,534,534,509,11,['d'],['k'],Y,,Y,Y,F ,21
0,535,535,196,11,['k'],['d'],Y,,Y,Y,F ,21
0,536,536,121,11,['d'],['d'],N,,Y,Y,F ,21
0,537,537,57,11,['k'],['d'],Y,,Y,Y,F ,21
0,538,538,295,11,['k'],['d'],Y,,Y,Y,F ,21
0,539,539,141,11,['k'],['d'],Y,,Y,Y,F ,21
0,540,540,283,11,['d'],['d'],N,,Y,Y,F ,21
0,541,541,440,11,['k'],['k'],N,,Y,Y,F ,21
0,542,542,324,11,['k'],['k'],N,,Y,Y,F ,21
0,543,543,514,11,['k'],['k'],N,,Y,Y,F ,21
0,544,544,211,11,['d'],['d'],N,,Y,Y,F ,21
0,545,545,536,11,['k'],['k'],N,,Y,Y,F ,21
0,546,546,292,11,['d'],['d'],N,,Y,Y,F ,21
0,547,547,76,11,['d'],['d'],N,,Y,Y,F ,21
0,548,548,205,11,['k'],['d'],Y,,Y,Y,F ,21
0,549,549,357,11,['k'],['k'],N,,Y,Y,F ,21
,,,,,,,"20, 29, 1",,,,,
0,550,550,272,12,['k'],['d'],Y,,Y,Y,F ,21
0,551,551,101,12,['k'],['d'],Y,,Y,Y,F ,21
0,552,552,4,12,['k'],['d'],Y,,Y,Y,F ,21
0,553,553,276,12,['k'],['d'],Y,,Y,Y,F ,21
0,554,554,106,12,['k'],['d'],Y,,Y,Y,F ,21
0,555,555,344,12,['d'],['k'],Y,,Y,Y,F ,21
0,556,556,585,12,['d'],['k'],Y,,Y,Y,F ,21
0,557,557,255,12,['d'],['d'],N,,Y,Y,F ,21
0,558,558,124,12,['k'],['d'],Y,,Y,Y,F ,21
0,559,559,389,12,['k'],['k'],N,,Y,Y,F ,21
0,560,560,367,12,['k'],['k'],N,,Y,Y,F ,21
0,561,561,374,12,['k'],['k'],N,,Y,Y,F ,21
0,562,562,38,12,['k'],['d'],Y,,Y,Y,F ,21
0,563,563,19,12,['k'],['d'],Y,,Y,Y,F ,21
0,564,564,215,12,['k'],['d'],Y,,Y,Y,F ,21
0,565,565,174,12,['k'],['d'],Y,,Y,Y,F ,21
0,566,566,161,12,['k'],['d'],Y,,Y,Y,F ,21
0,567,567,559,12,['k'],['k'],N,,Y,Y,F ,21
0,568,568,98,12,['k'],['d'],Y,,Y,Y,F ,21
0,569,569,415,12,['d'],['k'],Y,,Y,Y,F ,21
0,570,570,386,12,['d'],['k'],Y,,Y,Y,F ,21
0,571,571,453,12,['d'],['k'],Y,,Y,Y,F ,21
0,572,572,207,12,['d'],['d'],N,,Y,Y,F ,21
0,573,573,512,12,['d'],['k'],Y,,Y,Y,F ,21
0,574,574,270,12,['k'],['d'],Y,,Y,Y,F ,21
0,575,575,410,12,['d'],['k'],Y,,Y,Y,F ,21
0,576,576,172,12,['k'],['d'],Y,,Y,Y,F ,21
0,577,577,90,12,['d'],['d'],N,,Y,Y,F ,21
0,578,578,442,12,['d'],['k'],Y,,Y,Y,F ,21
0,579,579,564,12,['k'],['k'],N,,Y,Y,F ,21
0,580,580,355,12,['d'],['k'],Y,,Y,Y,F ,21
0,581,581,59,12,['d'],['d'],N,,Y,Y,F ,21
0,582,582,108,12,['k'],['d'],Y,,Y,Y,F ,21
0,583,583,20,12,['k'],['d'],Y,,Y,Y,F ,21
0,584,584,189,12,['d'],['d'],N,,Y,Y,F ,21
0,585,585,350,12,['d'],['k'],Y,,Y,Y,F ,21
0,586,586,180,12,['k'],['d'],Y,,Y,Y,F ,21
0,587,587,271,12,['k'],['d'],Y,,Y,Y,F ,21
0,588,588,321,12,['d'],['k'],Y,,Y,Y,F ,21
0,589,589,21,12,['k'],['d'],Y,,Y,Y,F ,21
0,590,590,245,12,['k'],['d'],Y,,Y,Y,F ,21
0,591,591,77,12,['k'],['d'],Y,,Y,Y,F ,21
0,592,592,224,12,['k'],['d'],Y,,Y,Y,F ,21
0,593,593,285,12,['k'],['d'],Y,,Y,Y,F ,21
0,594,594,351,12,['d'],['k'],Y,,Y,Y,F ,21
0,595,595,82,12,['k'],['d'],Y,,Y,Y,F ,21
0,596,596,277,12,['k'],['d'],Y,,Y,Y,F ,21
0,597,597,313,12,['d'],['k'],Y,,Y,Y,F ,21
0,598,598,519,12,['d'],['k'],Y,,Y,Y,F ,21
0,599,599,589,12,['k'],['k'],N,,Y,Y,F ,21
,,,,,,,"39, 11",,,,,
