.thisRepN,.thisTrialN,.thisN,.thisIndex,Block Number,Key pressed,Correct?,Category,Button switch shown?,Actually switched?,Fast?,gender,age
0,0,0,569,1,None,Timed out,,,,,Female,21
0,1,1,313,1,['k'],Y,['k'],,,,Female,21
0,2,2,380,1,['k'],Y,['k'],,,,Female,21
0,3,3,557,1,['d'],N,['k'],,,,Female,21
0,4,4,572,1,['k'],Y,['k'],,,,Female,21
0,5,5,205,1,['d'],Y,['d'],,,,Female,21
0,6,6,424,1,['k'],Y,['k'],,,,Female,21
0,7,7,278,1,['d'],Y,['d'],,,,Female,21
0,8,8,110,1,['k'],N,['d'],,,,Female,21
0,9,9,414,1,['d'],N,['k'],,,,Female,21
0,10,10,516,1,['k'],Y,['k'],,,,Female,21
0,11,11,442,1,['k'],Y,['k'],,,,Female,21
0,12,12,334,1,['k'],Y,['k'],,,,Female,21
0,13,13,546,1,['k'],Y,['k'],,,,Female,21
0,14,14,208,1,['k'],N,['d'],,,,Female,21
0,15,15,514,1,['k'],Y,['k'],,,,Female,21
0,16,16,274,1,['d'],Y,['d'],,,,Female,21
0,17,17,76,1,['d'],Y,['d'],,,,Female,21
0,18,18,254,1,['d'],Y,['d'],,,,Female,21
0,19,19,480,1,['k'],Y,['k'],,,,Female,21
0,20,20,21,1,['d'],Y,['d'],,,,Female,21
0,21,21,537,1,['k'],Y,['k'],,,,Female,21
0,22,22,251,1,['d'],Y,['d'],,,,Female,21
0,23,23,10,1,['d'],Y,['d'],,,,Female,21
0,24,24,536,1,['k'],Y,['k'],,,,Female,21
0,25,25,310,1,['d'],N,['k'],,,,Female,21
0,26,26,124,1,['d'],Y,['d'],,,,Female,21
0,27,27,486,1,['k'],Y,['k'],,,,Female,21
0,28,28,427,1,['k'],Y,['k'],,,,Female,21
0,29,29,155,1,['d'],Y,['d'],,,,Female,21
0,30,30,565,1,['k'],Y,['k'],,,,Female,21
0,31,31,417,1,['d'],N,['k'],,,,Female,21
0,32,32,216,1,['k'],N,['d'],,,,Female,21
0,33,33,372,1,['k'],Y,['k'],,,,Female,21
0,34,34,447,1,['k'],Y,['k'],,,,Female,21
0,35,35,277,1,['d'],Y,['d'],,,,Female,21
0,36,36,408,1,['k'],Y,['k'],,,,Female,21
0,37,37,493,1,['k'],Y,['k'],,,,Female,21
0,38,38,115,1,['d'],Y,['d'],,,,Female,21
0,39,39,548,1,['k'],Y,['k'],,,,Female,21
0,40,40,236,1,['d'],Y,['d'],,,,Female,21
0,41,41,597,1,['k'],Y,['k'],,,,Female,21
0,42,42,570,1,['k'],Y,['k'],,,,Female,21
0,43,43,130,1,['k'],N,['d'],,,,Female,21
0,44,44,346,1,['d'],N,['k'],,,,Female,21
0,45,45,67,1,['d'],Y,['d'],,,,Female,21
0,46,46,533,1,['k'],Y,['k'],,,,Female,21
0,47,47,472,1,['k'],Y,['k'],,,,Female,21
0,48,48,164,1,['d'],Y,['d'],,,,Female,21
0,49,49,358,1,['k'],Y,['k'],,,,Female,21
,,,,,,40,,,,,,
0,50,50,393,2,['k'],Y,['k'],,,,Female,21
0,51,51,594,2,['k'],Y,['k'],,,,Female,21
0,52,52,484,2,['k'],Y,['k'],,,,Female,21
0,53,53,78,2,['k'],N,['d'],,,,Female,21
0,54,54,18,2,['d'],Y,['d'],,,,Female,21
0,55,55,12,2,['d'],Y,['d'],,,,Female,21
0,56,56,593,2,['k'],Y,['k'],,,,Female,21
0,57,57,369,2,['d'],N,['k'],,,,Female,21
0,58,58,45,2,['d'],Y,['d'],,,,Female,21
0,59,59,481,2,['k'],Y,['k'],,,,Female,21
0,60,60,592,2,['k'],Y,['k'],,,,Female,21
0,61,61,148,2,['d'],Y,['d'],,,,Female,21
0,62,62,22,2,['d'],Y,['d'],,,,Female,21
0,63,63,252,2,['d'],Y,['d'],,,,Female,21
0,64,64,270,2,['d'],Y,['d'],,,,Female,21
0,65,65,467,2,['d'],N,['k'],,,,Female,21
0,66,66,475,2,['k'],Y,['k'],,,,Female,21
0,67,67,397,2,['k'],Y,['k'],,,,Female,21
0,68,68,430,2,['k'],Y,['k'],,,,Female,21
0,69,69,353,2,['k'],Y,['k'],,,,Female,21
0,70,70,470,2,['k'],Y,['k'],,,,Female,21
0,71,71,224,2,['d'],Y,['d'],,,,Female,21
0,72,72,173,2,['k'],N,['d'],,,,Female,21
0,73,73,267,2,['d'],Y,['d'],,,,Female,21
0,74,74,188,2,['d'],Y,['d'],,,,Female,21
0,75,75,86,2,['k'],N,['d'],,,,Female,21
0,76,76,563,2,['k'],Y,['k'],,,,Female,21
0,77,77,428,2,['k'],Y,['k'],,,,Female,21
0,78,78,496,2,['k'],Y,['k'],,,,Female,21
0,79,79,152,2,['k'],N,['d'],,,,Female,21
0,80,80,24,2,['k'],N,['d'],,,,Female,21
0,81,81,371,2,['k'],Y,['k'],,,,Female,21
0,82,82,479,2,['k'],Y,['k'],,,,Female,21
0,83,83,404,2,['d'],N,['k'],,,,Female,21
0,84,84,140,2,['d'],Y,['d'],,,,Female,21
0,85,85,157,2,['d'],Y,['d'],,,,Female,21
0,86,86,462,2,['d'],N,['k'],,,,Female,21
0,87,87,560,2,['k'],Y,['k'],,,,Female,21
0,88,88,521,2,['k'],Y,['k'],,,,Female,21
0,89,89,474,2,['k'],Y,['k'],,,,Female,21
0,90,90,596,2,['k'],Y,['k'],,,,Female,21
0,91,91,502,2,['k'],Y,['k'],,,,Female,21
0,92,92,222,2,['k'],N,['d'],,,,Female,21
0,93,93,437,2,['k'],Y,['k'],,,,Female,21
0,94,94,146,2,['d'],Y,['d'],,,,Female,21
0,95,95,228,2,['k'],N,['d'],,,,Female,21
0,96,96,544,2,['k'],Y,['k'],,,,Female,21
0,97,97,585,2,['k'],Y,['k'],,,,Female,21
0,98,98,53,2,['d'],Y,['d'],,,,Female,21
0,99,99,242,2,['k'],N,['d'],,,,Female,21
,,,,,,"38, 12",,,,,,
0,100,100,561,3,['k'],Y,['k'],,,,Female,21
0,101,101,308,3,['k'],Y,['k'],,,,Female,21
0,102,102,93,3,['d'],Y,['d'],,,,Female,21
0,103,103,338,3,['k'],Y,['k'],,,,Female,21
0,104,104,399,3,['d'],N,['k'],,,,Female,21
0,105,105,431,3,['k'],Y,['k'],,,,Female,21
0,106,106,250,3,['d'],Y,['d'],,,,Female,21
0,107,107,432,3,['d'],N,['k'],,,,Female,21
0,108,108,552,3,['k'],Y,['k'],,,,Female,21
0,109,109,247,3,['d'],Y,['d'],,,,Female,21
0,110,110,303,3,['k'],Y,['k'],,,,Female,21
0,111,111,391,3,['k'],Y,['k'],,,,Female,21
0,112,112,272,3,['k'],N,['d'],,,,Female,21
0,113,113,96,3,['d'],Y,['d'],,,,Female,21
0,114,114,330,3,['d'],N,['k'],,,,Female,21
0,115,115,80,3,['k'],N,['d'],,,,Female,21
0,116,116,476,3,['d'],N,['k'],,,,Female,21
0,117,117,301,3,['k'],Y,['k'],,,,Female,21
0,118,118,101,3,['d'],Y,['d'],,,,Female,21
0,119,119,449,3,['k'],Y,['k'],,,,Female,21
0,120,120,286,3,['d'],Y,['d'],,,,Female,21
0,121,121,103,3,['d'],Y,['d'],,,,Female,21
0,122,122,389,3,['k'],Y,['k'],,,,Female,21
0,123,123,558,3,['k'],Y,['k'],,,,Female,21
0,124,124,257,3,['d'],Y,['d'],,,,Female,21
0,125,125,523,3,['k'],Y,['k'],,,,Female,21
0,126,126,436,3,['d'],N,['k'],,,,Female,21
0,127,127,299,3,['d'],Y,['d'],,,,Female,21
0,128,128,341,3,['k'],Y,['k'],,,,Female,21
0,129,129,240,3,['k'],N,['d'],,,,Female,21
0,130,130,171,3,['d'],Y,['d'],,,,Female,21
0,131,131,529,3,['k'],Y,['k'],,,,Female,21
0,132,132,458,3,['k'],Y,['k'],,,,Female,21
0,133,133,435,3,['k'],Y,['k'],,,,Female,21
0,134,134,339,3,['k'],Y,['k'],,,,Female,21
0,135,135,465,3,['k'],Y,['k'],,,,Female,21
0,136,136,147,3,['d'],Y,['d'],,,,Female,21
0,137,137,469,3,['k'],Y,['k'],,,,Female,21
0,138,138,264,3,['d'],Y,['d'],,,,Female,21
0,139,139,566,3,['d'],N,['k'],,,,Female,21
0,140,140,43,3,['k'],N,['d'],,,,Female,21
0,141,141,293,3,['d'],Y,['d'],,,,Female,21
0,142,142,290,3,['d'],Y,['d'],,,,Female,21
0,143,143,584,3,['k'],Y,['k'],,,,Female,21
0,144,144,172,3,['d'],Y,['d'],,,,Female,21
0,145,145,477,3,['d'],N,['k'],,,,Female,21
0,146,146,145,3,['d'],Y,['d'],,,,Female,21
0,147,147,98,3,['d'],Y,['d'],,,,Female,21
0,148,148,95,3,['d'],Y,['d'],,,,Female,21
0,149,149,47,3,['d'],Y,['d'],,,,Female,21
,,,,,,"39, 11",,,,,,
0,150,150,255,4,['k'],N,['d'],,,,Female,21
0,151,151,411,4,['k'],Y,['k'],,,,Female,21
0,152,152,382,4,['k'],Y,['k'],,,,Female,21
0,153,153,25,4,['d'],Y,['d'],,,,Female,21
0,154,154,66,4,['d'],Y,['d'],,,,Female,21
0,155,155,365,4,['k'],Y,['k'],,,,Female,21
0,156,156,573,4,['k'],Y,['k'],,,,Female,21
0,157,157,547,4,['k'],Y,['k'],,,,Female,21
0,158,158,482,4,['k'],Y,['k'],,,,Female,21
0,159,159,81,4,['d'],Y,['d'],,,,Female,21
0,160,160,58,4,['d'],Y,['d'],,,,Female,21
0,161,161,471,4,['d'],N,['k'],,,,Female,21
0,162,162,409,4,['k'],Y,['k'],,,,Female,21
0,163,163,461,4,['k'],Y,['k'],,,,Female,21
0,164,164,174,4,['d'],Y,['d'],,,,Female,21
0,165,165,318,4,['k'],Y,['k'],,,,Female,21
0,166,166,243,4,['d'],Y,['d'],,,,Female,21
0,167,167,262,4,['d'],Y,['d'],,,,Female,21
0,168,168,513,4,['k'],Y,['k'],,,,Female,21
0,169,169,203,4,['d'],Y,['d'],,,,Female,21
0,170,170,401,4,['k'],Y,['k'],,,,Female,21
0,171,171,57,4,['d'],Y,['d'],,,,Female,21
0,172,172,100,4,['k'],N,['d'],,,,Female,21
0,173,173,51,4,['d'],Y,['d'],,,,Female,21
0,174,174,3,4,['d'],Y,['d'],,,,Female,21
0,175,175,259,4,['k'],N,['d'],,,,Female,21
0,176,176,512,4,['k'],Y,['k'],,,,Female,21
0,177,177,217,4,['d'],Y,['d'],,,,Female,21
0,178,178,343,4,['k'],Y,['k'],,,,Female,21
0,179,179,291,4,['d'],Y,['d'],,,,Female,21
0,180,180,210,4,['k'],N,['d'],,,,Female,21
0,181,181,2,4,['d'],Y,['d'],,,,Female,21
0,182,182,549,4,['k'],Y,['k'],,,,Female,21
0,183,183,89,4,['d'],Y,['d'],,,,Female,21
0,184,184,564,4,['d'],N,['k'],,,,Female,21
0,185,185,102,4,['k'],N,['d'],,,,Female,21
0,186,186,142,4,['d'],Y,['d'],,,,Female,21
0,187,187,532,4,['k'],Y,['k'],,,,Female,21
0,188,188,283,4,['d'],Y,['d'],,,,Female,21
0,189,189,63,4,['d'],Y,['d'],,,,Female,21
0,190,190,72,4,['d'],Y,['d'],,,,Female,21
0,191,191,348,4,['k'],Y,['k'],,,,Female,21
0,192,192,510,4,['k'],Y,['k'],,,,Female,21
0,193,193,112,4,['d'],Y,['d'],,,,Female,21
0,194,194,35,4,['d'],Y,['d'],,,,Female,21
0,195,195,553,4,['k'],Y,['k'],,,,Female,21
0,196,196,141,4,['d'],Y,['d'],,,,Female,21
0,197,197,468,4,['k'],Y,['k'],,,,Female,21
0,198,198,464,4,['k'],Y,['k'],,,,Female,21
0,199,199,370,4,['k'],Y,['k'],,,,Female,21
,,,,,,43,,,,,,
0,200,200,450,5,['d'],N,['k'],,,,Female,21
0,201,201,261,5,['k'],N,['d'],,,,Female,21
0,202,202,107,5,['d'],Y,['d'],,,,Female,21
0,203,203,488,5,['k'],Y,['k'],,,,Female,21
0,204,204,161,5,['d'],Y,['d'],,,,Female,21
0,205,205,129,5,['d'],Y,['d'],,,,Female,21
0,206,206,386,5,['k'],Y,['k'],,,,Female,21
0,207,207,119,5,['d'],Y,['d'],,,,Female,21
0,208,208,131,5,['d'],Y,['d'],,,,Female,21
0,209,209,396,5,['k'],Y,['k'],,,,Female,21
0,210,210,402,5,['k'],Y,['k'],,,,Female,21
0,211,211,434,5,['k'],Y,['k'],,,,Female,21
0,212,212,497,5,['k'],Y,['k'],,,,Female,21
0,213,213,327,5,['k'],Y,['k'],,,,Female,21
0,214,214,181,5,['k'],N,['d'],,,,Female,21
0,215,215,491,5,['k'],Y,['k'],,,,Female,21
0,216,216,99,5,['d'],Y,['d'],,,,Female,21
0,217,217,84,5,['d'],Y,['d'],,,,Female,21
0,218,218,297,5,['d'],Y,['d'],,,,Female,21
0,219,219,300,5,['k'],Y,['k'],,,,Female,21
0,220,220,11,5,['d'],Y,['d'],,,,Female,21
0,221,221,52,5,['d'],Y,['d'],,,,Female,21
0,222,222,373,5,['d'],N,['k'],,,,Female,21
0,223,223,200,5,['d'],Y,['d'],,,,Female,21
0,224,224,390,5,['k'],Y,['k'],,,,Female,21
0,225,225,54,5,['d'],Y,['d'],,,,Female,21
0,226,226,295,5,['d'],Y,['d'],,,,Female,21
0,227,227,526,5,['k'],Y,['k'],,,,Female,21
0,228,228,394,5,['k'],Y,['k'],,,,Female,21
0,229,229,165,5,['d'],Y,['d'],,,,Female,21
0,230,230,105,5,['d'],Y,['d'],,,,Female,21
0,231,231,292,5,['k'],N,['d'],,,,Female,21
0,232,232,238,5,['k'],N,['d'],,,,Female,21
0,233,233,55,5,['d'],Y,['d'],,,,Female,21
0,234,234,20,5,['d'],Y,['d'],,,,Female,21
0,235,235,191,5,['d'],Y,['d'],,,,Female,21
0,236,236,268,5,['d'],Y,['d'],,,,Female,21
0,237,237,453,5,['k'],Y,['k'],,,,Female,21
0,238,238,229,5,['d'],Y,['d'],,,,Female,21
0,239,239,170,5,['d'],Y,['d'],,,,Female,21
0,240,240,499,5,['k'],Y,['k'],,,,Female,21
0,241,241,128,5,['d'],Y,['d'],,,,Female,21
0,242,242,192,5,['d'],Y,['d'],,,,Female,21
0,243,243,104,5,['d'],Y,['d'],,,,Female,21
0,244,244,485,5,['k'],Y,['k'],,,,Female,21
0,245,245,38,5,['d'],Y,['d'],,,,Female,21
0,246,246,271,5,['d'],Y,['d'],,,,Female,21
0,247,247,407,5,['k'],Y,['k'],,,,Female,21
0,248,248,117,5,['d'],Y,['d'],,,,Female,21
0,249,249,312,5,['d'],N,['k'],,,,Female,21
,,,,,,43,,,,,,
0,250,250,231,6,['d'],Y,['d'],,,,Female,21
0,251,251,357,6,['d'],N,['k'],,,,Female,21
0,252,252,349,6,['k'],Y,['k'],,,,Female,21
0,253,253,534,6,['k'],Y,['k'],,,,Female,21
0,254,254,144,6,['d'],Y,['d'],,,,Female,21
0,255,255,245,6,['d'],Y,['d'],,,,Female,21
0,256,256,166,6,['d'],Y,['d'],,,,Female,21
0,257,257,83,6,['k'],N,['d'],,,,Female,21
0,258,258,70,6,['k'],N,['d'],,,,Female,21
0,259,259,34,6,['k'],N,['d'],,,,Female,21
0,260,260,139,6,['d'],Y,['d'],,,,Female,21
0,261,261,90,6,['k'],N,['d'],,,,Female,21
0,262,262,91,6,['d'],Y,['d'],,,,Female,21
0,263,263,595,6,['k'],Y,['k'],,,,Female,21
0,264,264,9,6,['d'],Y,['d'],,,,Female,21
0,265,265,226,6,['d'],Y,['d'],,,,Female,21
0,266,266,282,6,['d'],Y,['d'],,,,Female,21
0,267,267,501,6,['k'],Y,['k'],,,,Female,21
0,268,268,32,6,['d'],Y,['d'],,,,Female,21
0,269,269,241,6,['d'],Y,['d'],,,,Female,21
0,270,270,288,6,['d'],Y,['d'],,,,Female,21
0,271,271,263,6,['k'],N,['d'],,,,Female,21
0,272,272,118,6,['d'],Y,['d'],,,,Female,21
0,273,273,590,6,['d'],N,['k'],,,,Female,21
0,274,274,359,6,['k'],Y,['k'],,,,Female,21
0,275,275,215,6,['d'],Y,['d'],,,,Female,21
0,276,276,29,6,['d'],Y,['d'],,,,Female,21
0,277,277,175,6,['d'],Y,['d'],,,,Female,21
0,278,278,489,6,['k'],Y,['k'],,,,Female,21
0,279,279,413,6,['k'],Y,['k'],,,,Female,21
0,280,280,92,6,['d'],Y,['d'],,,,Female,21
0,281,281,554,6,['d'],N,['k'],,,,Female,21
0,282,282,169,6,['d'],Y,['d'],,,,Female,21
0,283,283,75,6,['d'],Y,['d'],,,,Female,21
0,284,284,214,6,['d'],Y,['d'],,,,Female,21
0,285,285,367,6,['k'],Y,['k'],,,,Female,21
0,286,286,304,6,['k'],Y,['k'],,,,Female,21
0,287,287,438,6,['k'],Y,['k'],,,,Female,21
0,288,288,4,6,['d'],Y,['d'],,,,Female,21
0,289,289,296,6,['d'],Y,['d'],,,,Female,21
0,290,290,347,6,['k'],Y,['k'],,,,Female,21
0,291,291,550,6,['k'],Y,['k'],,,,Female,21
0,292,292,218,6,['k'],N,['d'],,,,Female,21
0,293,293,137,6,['k'],N,['d'],,,,Female,21
0,294,294,522,6,['d'],N,['k'],,,,Female,21
0,295,295,460,6,['k'],Y,['k'],,,,Female,21
0,296,296,329,6,['k'],Y,['k'],,,,Female,21
0,297,297,180,6,['d'],Y,['d'],,,,Female,21
0,298,298,17,6,['d'],Y,['d'],,,,Female,21
0,299,299,248,6,['d'],Y,['d'],,,,Female,21
,,,,,,"39, 11",,,,,,
0,300,300,287,7,['d'],Y,['d'],,,,Female,21
0,301,301,498,7,['k'],Y,['k'],,,,Female,21
0,302,302,284,7,['d'],Y,['d'],,,,Female,21
0,303,303,531,7,['k'],Y,['k'],,,,Female,21
0,304,304,26,7,['d'],Y,['d'],,,,Female,21
0,305,305,579,7,['d'],N,['k'],,,,Female,21
0,306,306,46,7,['d'],Y,['d'],,,,Female,21
0,307,307,559,7,['d'],N,['k'],,,,Female,21
0,308,308,503,7,['d'],N,['k'],,,,Female,21
0,309,309,298,7,['d'],Y,['d'],,,,Female,21
0,310,310,456,7,['k'],Y,['k'],,,,Female,21
0,311,311,280,7,['d'],Y,['d'],,,,Female,21
0,312,312,316,7,['k'],Y,['k'],,,,Female,21
0,313,313,134,7,['d'],Y,['d'],,,,Female,21
0,314,314,441,7,['k'],Y,['k'],,,,Female,21
0,315,315,183,7,['d'],Y,['d'],,,,Female,21
0,316,316,207,7,['d'],Y,['d'],,,,Female,21
0,317,317,7,7,['d'],Y,['d'],,,,Female,21
0,318,318,212,7,['d'],Y,['d'],,,,Female,21
0,319,319,495,7,['d'],N,['k'],,,,Female,21
0,320,320,328,7,['k'],Y,['k'],,,,Female,21
0,321,321,206,7,['d'],Y,['d'],,,,Female,21
0,322,322,61,7,['d'],Y,['d'],,,,Female,21
0,323,323,176,7,['d'],Y,['d'],,,,Female,21
0,324,324,483,7,['d'],N,['k'],,,,Female,21
0,325,325,40,7,['k'],N,['d'],,,,Female,21
0,326,326,459,7,['k'],Y,['k'],,,,Female,21
0,327,327,249,7,['d'],Y,['d'],,,,Female,21
0,328,328,551,7,['k'],Y,['k'],,,,Female,21
0,329,329,368,7,['k'],Y,['k'],,,,Female,21
0,330,330,403,7,['d'],N,['k'],,,,Female,21
0,331,331,227,7,['d'],Y,['d'],,,,Female,21
0,332,332,490,7,['k'],Y,['k'],,,,Female,21
0,333,333,418,7,['k'],Y,['k'],,,,Female,21
0,334,334,421,7,['k'],Y,['k'],,,,Female,21
0,335,335,199,7,['k'],N,['d'],,,,Female,21
0,336,336,519,7,['k'],Y,['k'],,,,Female,21
0,337,337,360,7,['k'],Y,['k'],,,,Female,21
0,338,338,311,7,['d'],N,['k'],,,,Female,21
0,339,339,50,7,['d'],Y,['d'],,,,Female,21
0,340,340,114,7,['d'],Y,['d'],,,,Female,21
0,341,341,466,7,['k'],Y,['k'],,,,Female,21
0,342,342,136,7,['d'],Y,['d'],,,,Female,21
0,343,343,239,7,['d'],Y,['d'],,,,Female,21
0,344,344,185,7,['d'],Y,['d'],,,,Female,21
0,345,345,111,7,['d'],Y,['d'],,,,Female,21
0,346,346,362,7,['k'],Y,['k'],,,,Female,21
0,347,347,335,7,['k'],Y,['k'],,,,Female,21
0,348,348,19,7,['d'],Y,['d'],,,,Female,21
0,349,349,326,7,['d'],N,['k'],,,,Female,21
,,,,,,40,,,,,,
0,350,350,85,8,['d'],Y,['d'],,,,Female,21
0,351,351,355,8,['k'],Y,['k'],,,,Female,21
0,352,352,13,8,['d'],Y,['d'],,,,Female,21
0,353,353,332,8,['k'],Y,['k'],,,,Female,21
0,354,354,520,8,['k'],Y,['k'],,,,Female,21
0,355,355,230,8,['d'],Y,['d'],,,,Female,21
0,356,356,543,8,['k'],Y,['k'],,,,Female,21
0,357,357,398,8,['k'],Y,['k'],,,,Female,21
0,358,358,463,8,['k'],Y,['k'],,,,Female,21
0,359,359,167,8,['d'],Y,['d'],,,,Female,21
0,360,360,209,8,['d'],Y,['d'],,,,Female,21
0,361,361,323,8,['k'],Y,['k'],,,,Female,21
0,362,362,598,8,['k'],Y,['k'],,,,Female,21
0,363,363,366,8,['k'],Y,['k'],,,,Female,21
0,364,364,571,8,['k'],Y,['k'],,,,Female,21
0,365,365,383,8,['k'],Y,['k'],,,,Female,21
0,366,366,74,8,['d'],Y,['d'],,,,Female,21
0,367,367,305,8,['k'],Y,['k'],,,,Female,21
0,368,368,186,8,['d'],Y,['d'],,,,Female,21
0,369,369,28,8,['k'],N,['d'],,,,Female,21
0,370,370,187,8,['d'],Y,['d'],,,,Female,21
0,371,371,150,8,['d'],Y,['d'],,,,Female,21
0,372,372,220,8,['d'],Y,['d'],,,,Female,21
0,373,373,279,8,['d'],Y,['d'],,,,Female,21
0,374,374,69,8,['d'],Y,['d'],,,,Female,21
0,375,375,443,8,['d'],N,['k'],,,,Female,21
0,376,376,351,8,['k'],Y,['k'],,,,Female,21
0,377,377,420,8,['k'],Y,['k'],,,,Female,21
0,378,378,423,8,['k'],Y,['k'],,,,Female,21
0,379,379,62,8,['d'],Y,['d'],,,,Female,21
0,380,380,515,8,['k'],Y,['k'],,,,Female,21
0,381,381,419,8,['k'],Y,['k'],,,,Female,21
0,382,382,388,8,['k'],Y,['k'],,,,Female,21
0,383,383,517,8,['k'],Y,['k'],,,,Female,21
0,384,384,162,8,['d'],Y,['d'],,,,Female,21
0,385,385,113,8,['d'],Y,['d'],,,,Female,21
0,386,386,193,8,['d'],Y,['d'],,,,Female,21
0,387,387,6,8,['d'],Y,['d'],,,,Female,21
0,388,388,138,8,['d'],Y,['d'],,,,Female,21
0,389,389,525,8,['k'],Y,['k'],,,,Female,21
0,390,390,530,8,['k'],Y,['k'],,,,Female,21
0,391,391,589,8,['d'],N,['k'],,,,Female,21
0,392,392,189,8,['k'],N,['d'],,,,Female,21
0,393,393,587,8,['k'],Y,['k'],,,,Female,21
0,394,394,39,8,['k'],N,['d'],,,,Female,21
0,395,395,88,8,['d'],Y,['d'],,,,Female,21
0,396,396,68,8,['d'],Y,['d'],,,,Female,21
0,397,397,336,8,['k'],Y,['k'],,,,Female,21
0,398,398,505,8,['d'],N,['k'],,,,Female,21
0,399,399,273,8,['k'],N,['d'],,,,Female,21
,,,,,,43,,,,,,
0,400,400,492,9,['k'],Y,['k'],,,,Female,21
0,401,401,342,9,['k'],Y,['k'],,,,Female,21
0,402,402,266,9,['d'],Y,['d'],,,,Female,21
0,403,403,374,9,['d'],N,['k'],,,,Female,21
0,404,404,60,9,['d'],Y,['d'],,,,Female,21
0,405,405,575,9,['k'],Y,['k'],,,,Female,21
0,406,406,281,9,['d'],Y,['d'],,,,Female,21
0,407,407,149,9,['d'],Y,['d'],,,,Female,21
0,408,408,8,9,['d'],Y,['d'],,,,Female,21
0,409,409,235,9,['d'],Y,['d'],,,,Female,21
0,410,410,1,9,['d'],Y,['d'],,,,Female,21
0,411,411,123,9,['d'],Y,['d'],,,,Female,21
0,412,412,153,9,['d'],Y,['d'],,,,Female,21
0,413,413,56,9,['d'],Y,['d'],,,,Female,21
0,414,414,555,9,['d'],N,['k'],,,,Female,21
0,415,415,94,9,['d'],Y,['d'],,,,Female,21
0,416,416,320,9,['k'],Y,['k'],,,,Female,21
0,417,417,567,9,['k'],Y,['k'],,,,Female,21
0,418,418,455,9,['k'],Y,['k'],,,,Female,21
0,419,419,120,9,['d'],Y,['d'],,,,Female,21
0,420,420,213,9,['d'],Y,['d'],,,,Female,21
0,421,421,599,9,['k'],Y,['k'],,,,Female,21
0,422,422,184,9,['k'],N,['d'],,,,Female,21
0,423,423,433,9,['k'],Y,['k'],,,,Female,21
0,424,424,363,9,['k'],Y,['k'],,,,Female,21
0,425,425,507,9,['k'],Y,['k'],,,,Female,21
0,426,426,14,9,['d'],Y,['d'],,,,Female,21
0,427,427,211,9,['d'],Y,['d'],,,,Female,21
0,428,428,122,9,['d'],Y,['d'],,,,Female,21
0,429,429,132,9,['d'],Y,['d'],,,,Female,21
0,430,430,576,9,['k'],Y,['k'],,,,Female,21
0,431,431,82,9,['d'],Y,['d'],,,,Female,21
0,432,432,15,9,['d'],Y,['d'],,,,Female,21
0,433,433,325,9,['k'],Y,['k'],,,,Female,21
0,434,434,314,9,['k'],Y,['k'],,,,Female,21
0,435,435,473,9,['k'],Y,['k'],,,,Female,21
0,436,436,33,9,['d'],Y,['d'],,,,Female,21
0,437,437,321,9,['k'],Y,['k'],,,,Female,21
0,438,438,285,9,['d'],Y,['d'],,,,Female,21
0,439,439,322,9,['k'],Y,['k'],,,,Female,21
0,440,440,392,9,['k'],Y,['k'],,,,Female,21
0,441,441,151,9,['d'],Y,['d'],,,,Female,21
0,442,442,59,9,['d'],Y,['d'],,,,Female,21
0,443,443,504,9,['k'],Y,['k'],,,,Female,21
0,444,444,381,9,['k'],Y,['k'],,,,Female,21
0,445,445,179,9,['k'],N,['d'],,,,Female,21
0,446,446,568,9,['d'],N,['k'],,,,Female,21
0,447,447,395,9,['k'],Y,['k'],,,,Female,21
0,448,448,429,9,['k'],Y,['k'],,,,Female,21
0,449,449,87,9,['d'],Y,['d'],,,,Female,21
,,,,,,45,,,,,,
0,450,450,154,10,['d'],Y,['d'],,,,Female,21
0,451,451,37,10,['d'],Y,['d'],,,,Female,21
0,452,452,588,10,['k'],Y,['k'],,,,Female,21
0,453,453,580,10,['k'],Y,['k'],,,,Female,21
0,454,454,439,10,['d'],N,['k'],,,,Female,21
0,455,455,535,10,['k'],Y,['k'],,,,Female,21
0,456,456,204,10,['d'],Y,['d'],,,,Female,21
0,457,457,562,10,['k'],Y,['k'],,,,Female,21
0,458,458,444,10,['k'],Y,['k'],,,,Female,21
0,459,459,446,10,['k'],Y,['k'],,,,Female,21
0,460,460,41,10,['d'],Y,['d'],,,,Female,21
0,461,461,317,10,['k'],Y,['k'],,,,Female,21
0,462,462,377,10,['k'],Y,['k'],,,,Female,21
0,463,463,506,10,['k'],Y,['k'],,,,Female,21
0,464,464,324,10,['k'],Y,['k'],,,,Female,21
0,465,465,518,10,['k'],Y,['k'],,,,Female,21
0,466,466,225,10,['d'],Y,['d'],,,,Female,21
0,467,467,31,10,['d'],Y,['d'],,,,Female,21
0,468,468,354,10,['k'],Y,['k'],,,,Female,21
0,469,469,16,10,['d'],Y,['d'],,,,Female,21
0,470,470,116,10,['d'],Y,['d'],,,,Female,21
0,471,471,378,10,['d'],N,['k'],,,,Female,21
0,472,472,384,10,['k'],Y,['k'],,,,Female,21
0,473,473,376,10,['k'],Y,['k'],,,,Female,21
0,474,474,108,10,['d'],Y,['d'],,,,Female,21
0,475,475,487,10,['k'],Y,['k'],,,,Female,21
0,476,476,400,10,['k'],Y,['k'],,,,Female,21
0,477,477,337,10,['d'],N,['k'],,,,Female,21
0,478,478,244,10,['d'],Y,['d'],,,,Female,21
0,479,479,306,10,['k'],Y,['k'],,,,Female,21
0,480,480,77,10,['d'],Y,['d'],,,,Female,21
0,481,481,410,10,['k'],Y,['k'],,,,Female,21
0,482,482,64,10,['d'],Y,['d'],,,,Female,21
0,483,483,194,10,['d'],Y,['d'],,,,Female,21
0,484,484,71,10,['d'],Y,['d'],,,,Female,21
0,485,485,258,10,['d'],Y,['d'],,,,Female,21
0,486,486,294,10,['d'],Y,['d'],,,,Female,21
0,487,487,265,10,['d'],Y,['d'],,,,Female,21
0,488,488,121,10,['d'],Y,['d'],,,,Female,21
0,489,489,246,10,['d'],Y,['d'],,,,Female,21
0,490,490,302,10,['k'],Y,['k'],,,,Female,21
0,491,491,375,10,['k'],Y,['k'],,,,Female,21
0,492,492,451,10,['k'],Y,['k'],,,,Female,21
0,493,493,73,10,['k'],N,['d'],,,,Female,21
0,494,494,422,10,['k'],Y,['k'],,,,Female,21
0,495,495,198,10,['d'],Y,['d'],,,,Female,21
0,496,496,196,10,['k'],N,['d'],,,,Female,21
0,497,497,545,10,['k'],Y,['k'],,,,Female,21
0,498,498,159,10,['d'],Y,['d'],,,,Female,21
0,499,499,509,10,['k'],Y,['k'],,,,Female,21
,,,,,,45,,,,,,
0,500,500,160,11,['k'],Y,['d'],Y,Y,Y,Female,21
0,501,501,452,11,['d'],Y,['k'],,Y,Y,Female,21
0,502,502,344,11,['d'],Y,['k'],,Y,Y,Female,21
0,503,503,578,11,['d'],Y,['k'],,Y,Y,Female,21
0,504,504,135,11,['k'],Y,['d'],,Y,Y,Female,21
0,505,505,5,11,['k'],Y,['d'],,Y,Y,Female,21
0,506,506,276,11,['k'],Y,['d'],,Y,Y,Female,21
0,507,507,49,11,['d'],N,['d'],,Y,Y,Female,21
0,508,508,97,11,['k'],Y,['d'],,Y,Y,Female,21
0,509,509,582,11,['d'],Y,['k'],,Y,Y,Female,21
0,510,510,478,11,['d'],Y,['k'],,Y,Y,Female,21
0,511,511,127,11,['k'],Y,['d'],,Y,Y,Female,21
0,512,512,340,11,['k'],N,['k'],,Y,Y,Female,21
0,513,513,540,11,['d'],Y,['k'],,Y,Y,Female,21
0,514,514,233,11,['k'],Y,['d'],,Y,Y,Female,21
0,515,515,574,11,['d'],Y,['k'],,Y,Y,Female,21
0,516,516,315,11,['d'],Y,['k'],,Y,Y,Female,21
0,517,517,405,11,['d'],Y,['k'],,Y,Y,Female,21
0,518,518,581,11,['d'],Y,['k'],,Y,Y,Female,21
0,519,519,387,11,['d'],Y,['k'],,Y,Y,Female,21
0,520,520,197,11,['k'],Y,['d'],,Y,Y,Female,21
0,521,521,448,11,None,Timed out,,,Y,Y,Female,21
0,522,522,260,11,['k'],Y,['d'],,Y,Y,Female,21
0,523,523,583,11,['d'],Y,['k'],,Y,Y,Female,21
0,524,524,415,11,['d'],Y,['k'],,Y,Y,Female,21
0,525,525,356,11,['d'],Y,['k'],,Y,Y,Female,21
0,526,526,269,11,['k'],Y,['d'],,Y,Y,Female,21
0,527,527,106,11,['k'],Y,['d'],,Y,Y,Female,21
0,528,528,333,11,['d'],Y,['k'],,Y,Y,Female,21
0,529,529,364,11,['d'],Y,['k'],,Y,Y,Female,21
0,530,530,426,11,['d'],Y,['k'],,Y,Y,Female,21
0,531,531,591,11,['d'],Y,['k'],,Y,Y,Female,21
0,532,532,541,11,['d'],Y,['k'],,Y,Y,Female,21
0,533,533,500,11,['k'],N,['k'],,Y,Y,Female,21
0,534,534,586,11,['d'],Y,['k'],,Y,Y,Female,21
0,535,535,48,11,['d'],N,['d'],,Y,Y,Female,21
0,536,536,190,11,['d'],N,['d'],,Y,Y,Female,21
0,537,537,79,11,['k'],Y,['d'],,Y,Y,Female,21
0,538,538,289,11,['d'],N,['d'],,Y,Y,Female,21
0,539,539,168,11,['k'],Y,['d'],,Y,Y,Female,21
0,540,540,237,11,['k'],Y,['d'],,Y,Y,Female,21
0,541,541,528,11,['d'],Y,['k'],,Y,Y,Female,21
0,542,542,30,11,['k'],Y,['d'],,Y,Y,Female,21
0,543,543,307,11,['d'],Y,['k'],,Y,Y,Female,21
0,544,544,156,11,['k'],Y,['d'],,Y,Y,Female,21
0,545,545,143,11,['k'],Y,['d'],,Y,Y,Female,21
0,546,546,221,11,['k'],Y,['d'],,Y,Y,Female,21
0,547,547,27,11,['k'],Y,['d'],,Y,Y,Female,21
0,548,548,542,11,['k'],N,['k'],,Y,Y,Female,21
0,549,549,457,11,['d'],Y,['k'],,Y,Y,Female,21
,,,,,,42,,,,,,
0,550,550,511,12,['k'],N,['k'],,Y,Y,Female,21
0,551,551,275,12,['k'],Y,['d'],,Y,Y,Female,21
0,552,552,234,12,['k'],Y,['d'],,Y,Y,Female,21
0,553,553,425,12,['d'],Y,['k'],,Y,Y,Female,21
0,554,554,219,12,['k'],Y,['d'],,Y,Y,Female,21
0,555,555,352,12,['d'],Y,['k'],,Y,Y,Female,21
0,556,556,406,12,['d'],Y,['k'],,Y,Y,Female,21
0,557,557,524,12,['d'],Y,['k'],,Y,Y,Female,21
0,558,558,177,12,['k'],Y,['d'],,Y,Y,Female,21
0,559,559,109,12,['k'],Y,['d'],,Y,Y,Female,21
0,560,560,256,12,['k'],Y,['d'],,Y,Y,Female,21
0,561,561,556,12,['k'],N,['k'],,Y,Y,Female,21
0,562,562,195,12,['k'],Y,['d'],,Y,Y,Female,21
0,563,563,319,12,['d'],Y,['k'],,Y,Y,Female,21
0,564,564,202,12,['k'],Y,['d'],,Y,Y,Female,21
0,565,565,379,12,['d'],Y,['k'],,Y,Y,Female,21
0,566,566,182,12,['k'],Y,['d'],,Y,Y,Female,21
0,567,567,125,12,['k'],Y,['d'],,Y,Y,Female,21
0,568,568,350,12,['d'],Y,['k'],,Y,Y,Female,21
0,569,569,538,12,['d'],Y,['k'],,Y,Y,Female,21
0,570,570,158,12,['k'],Y,['d'],,Y,Y,Female,21
0,571,571,178,12,['k'],Y,['d'],,Y,Y,Female,21
0,572,572,361,12,['d'],Y,['k'],,Y,Y,Female,21
0,573,573,385,12,['k'],N,['k'],,Y,Y,Female,21
0,574,574,577,12,['k'],N,['k'],,Y,Y,Female,21
0,575,575,445,12,['d'],Y,['k'],,Y,Y,Female,21
0,576,576,345,12,['d'],Y,['k'],,Y,Y,Female,21
0,577,577,416,12,['k'],N,['k'],,Y,Y,Female,21
0,578,578,65,12,['k'],Y,['d'],,Y,Y,Female,21
0,579,579,163,12,['d'],N,['d'],,Y,Y,Female,21
0,580,580,44,12,['k'],Y,['d'],,Y,Y,Female,21
0,581,581,36,12,['k'],Y,['d'],,Y,Y,Female,21
0,582,582,494,12,['d'],Y,['k'],,Y,Y,Female,21
0,583,583,232,12,['k'],Y,['d'],,Y,Y,Female,21
0,584,584,201,12,['d'],N,['d'],,Y,Y,Female,21
0,585,585,42,12,['k'],Y,['d'],,Y,Y,Female,21
0,586,586,440,12,['d'],Y,['k'],,Y,Y,Female,21
0,587,587,412,12,['d'],Y,['k'],,Y,Y,Female,21
0,588,588,0,12,['d'],N,['d'],,Y,Y,Female,21
0,589,589,539,12,['k'],N,['k'],,Y,Y,Female,21
0,590,590,253,12,['d'],N,['d'],,Y,Y,Female,21
0,591,591,454,12,['k'],N,['k'],,Y,Y,Female,21
0,592,592,133,12,['k'],Y,['d'],,Y,Y,Female,21
0,593,593,508,12,['d'],Y,['k'],,Y,Y,Female,21
0,594,594,223,12,['k'],Y,['d'],,Y,Y,Female,21
0,595,595,331,12,['d'],Y,['k'],,Y,Y,Female,21
0,596,596,527,12,['d'],Y,['k'],,Y,Y,Female,21
0,597,597,309,12,['d'],Y,['k'],,Y,Y,Female,21
0,598,598,23,12,['k'],Y,['d'],,Y,Y,Female,21
0,599,599,126,12,['k'],Y,['d'],,Y,Y,Female,21
,,,,,,"39, 11",,,,,,
