.thisRepN,.thisTrialN,.thisN,.thisIndex,.thisTrial,Block Number,Key pressed,Category,Correct?,Int Match?,Int Response,Int Correct?,Line Accuracy,Interference Accuracy,Matching Interferences,New instruction shown?,Buttons switched?,Fast?,gender,age,
0,0,0,0,0,1,['k'],['k'],Y,,,,,,,,,,F,18,
0,1,1,6,6,1,['d'],['d'],Y,,,,,,,,,,F,18,
0,2,2,1,1,1,['k'],['d'],N,N,None,Y,,,,,,,F,18,
0,3,3,5,5,1,['d'],['k'],N,N,None,Y,,,,,,,F,18,
0,4,4,6,6,1,['k'],['d'],N,N,None,Y,,,,,,,F,18,
0,5,5,8,8,1,['d'],['k'],N,Y,['space'],Y,,,,,,,F,18,
0,6,6,3,3,1,['k'],['k'],Y,Y,['space'],Y,,,,,,,F,18,
0,7,7,8,8,1,['d'],['d'],Y,N,None,Y,,,,,,,F,18,
0,8,8,6,6,1,['k'],['d'],N,Y,None,N,,,,,,,F,18,
0,9,9,14,14,1,['d'],['d'],Y,Y,['space'],Y,,,,,,,F,18,
0,10,10,3,3,1,['k'],['k'],Y,Y,['space'],Y,,,,,,,F,18,
0,11,11,12,12,1,['k'],['k'],Y,Y,None,N,,,,,,,F,18,
0,12,12,6,6,1,['d'],['k'],N,N,None,Y,,,,,,,F,18,
0,13,13,14,14,1,['k'],['k'],Y,N,None,Y,,,,,,,F,18,
0,14,14,8,8,1,['d'],['d'],Y,N,['space'],N,,,,,,,F,18,
1,0,15,0,0,1,['k'],['k'],Y,N,None,Y,,,,,,,F,18,
1,1,16,2,2,1,['k'],['k'],Y,N,None,Y,,,,,,,F,18,
1,2,17,5,5,1,['k'],['d'],N,Y,['space'],Y,,,,,,,F,18,
1,3,18,12,12,1,['d'],['d'],Y,Y,None,N,,,,,,,F,18,
1,4,19,14,14,1,['k'],['d'],N,N,None,Y,,,,,,,F,18,
1,5,20,6,6,1,['d'],['d'],Y,N,['space'],N,,,,,,,F,18,
1,6,21,10,10,1,['k'],['k'],Y,Y,['space'],Y,,,,,,,F,18,
1,7,22,0,0,1,['d'],['d'],Y,Y,['space'],Y,,,,,,,F,18,
1,8,23,12,12,1,['d'],['d'],Y,N,None,Y,,,,,,,F,18,
1,9,24,6,6,1,['k'],['k'],Y,N,['space'],N,,,,,,,F,18,
1,10,25,3,3,1,['d'],['k'],N,N,None,Y,,,,,,,F,18,
1,11,26,11,11,1,['k'],['k'],Y,Y,None,N,,,,,,,F,18,
1,12,27,3,3,1,['k'],['k'],Y,N,None,Y,,,,,,,F,18,
1,13,28,6,6,1,['k'],['k'],Y,Y,['space'],Y,,,,,,,F,18,
1,14,29,2,2,1,['d'],['k'],N,N,['space'],N,,,,,,,F,18,
2,0,30,6,6,1,['d'],['k'],N,Y,None,N,,,,,,,F,18,
2,1,31,7,7,1,['k'],['k'],Y,Y,None,N,,,,,,,F,18,
2,2,32,9,9,1,['k'],['k'],Y,Y,None,N,,,,,,,F,18,
2,3,33,8,8,1,['d'],['d'],Y,Y,['space'],Y,,,,,,,F,18,
2,4,34,13,13,1,['k'],['k'],Y,N,None,Y,,,,,,,F,18,
2,5,35,8,8,1,['d'],['d'],Y,Y,['space'],Y,,,,,,,F,18,
2,6,36,7,7,1,['k'],['d'],N,N,None,Y,,,,,,,F,18,
2,7,37,6,6,1,['d'],['k'],N,Y,None,N,,,,,,,F,18,
2,8,38,3,3,1,['k'],['d'],N,N,None,Y,,,,,,,F,18,
2,9,39,4,4,1,['k'],['k'],Y,N,None,Y,,,,,,,F,18,
2,10,40,9,9,1,['d'],['k'],N,N,None,Y,,,,,,,F,18,
2,11,41,1,1,1,['k'],['d'],N,Y,['space'],Y,,,,,,,F,18,
2,12,42,14,14,1,['d'],['d'],Y,Y,None,N,,,,,,,F,18,
2,13,43,0,0,1,['k'],['k'],Y,Y,None,N,,,,,,,F,18,
2,14,44,2,2,1,['k'],['k'],Y,N,None,Y,,,,,,,F,18,
3,0,45,11,11,1,['d'],['k'],N,Y,None,N,,,,,,,F,18,
3,1,46,9,9,1,['k'],['k'],Y,N,None,Y,,,,,,,F,18,
3,2,47,10,10,1,['d'],['d'],Y,N,None,Y,,,,,,,F,18,
3,3,48,1,1,1,['k'],['d'],N,N,None,Y,,,,,,,F,18,
3,4,49,3,3,1,['k'],['k'],Y,Y,None,N,32,32,23,,,,F,18,
3,5,50,12,12,2,['d'],['d'],Y,,,,,,,,,,F,18,
3,6,51,12,12,2,['k'],['d'],N,,,,,,,,,,F,18,
3,7,52,9,9,2,['k'],['k'],Y,N,['space'],N,,,,,,,F,18,
3,8,53,5,5,2,['d'],['k'],N,Y,None,N,,,,,,,F,18,
3,9,54,0,0,2,['k'],['k'],Y,Y,['space'],Y,,,,,,,F,18,
3,10,55,6,6,2,['d'],['k'],N,N,None,Y,,,,,,,F,18,
3,11,56,3,3,2,['k'],['d'],N,N,None,Y,,,,,,,F,18,
3,12,57,1,1,2,['k'],['k'],Y,N,['space'],N,,,,,,,F,18,
3,13,58,4,4,2,['d'],['d'],Y,Y,['space'],Y,,,,,,,F,18,
3,14,59,10,10,2,['k'],['d'],N,N,None,Y,,,,,,,F,18,
4,0,60,14,14,2,['d'],['k'],N,Y,None,N,,,,,,,F,18,
4,1,61,1,1,2,['k'],['d'],N,Y,['space'],Y,,,,,,,F,18,
4,2,62,5,5,2,['d'],['d'],Y,Y,['space'],Y,,,,,,,F,18,
4,3,63,1,1,2,['k'],['d'],N,N,None,Y,,,,,,,F,18,
4,4,64,2,2,2,['k'],['k'],Y,N,['space'],N,,,,,,,F,18,
4,5,65,1,1,2,['d'],['k'],N,N,None,Y,,,,,,,F,18,
4,6,66,3,3,2,['k'],['d'],N,N,None,Y,,,,,,,F,18,
4,7,67,4,4,2,['d'],['d'],Y,Y,['space'],Y,,,,,,,F,18,
4,8,68,12,12,2,['d'],['k'],N,Y,None,N,,,,,,,F,18,
4,9,69,14,14,2,['k'],['d'],N,N,None,Y,,,,,,,F,18,
4,10,70,5,5,2,['d'],['d'],Y,Y,None,N,,,,,,,F,18,
4,11,71,14,14,2,['k'],['d'],N,N,['space'],N,,,,,,,F,18,
4,12,72,0,0,2,['d'],['k'],N,Y,['space'],Y,,,,,,,F,18,
4,13,73,3,3,2,['k'],['d'],N,N,None,Y,,,,,,,F,18,
4,14,74,5,5,2,['d'],['k'],N,N,None,Y,,,,,,,F,18,
5,0,75,14,14,2,['k'],['k'],Y,N,None,Y,,,,,,,F,18,
5,1,76,1,1,2,['k'],['k'],Y,N,None,Y,,,,,,,F,18,
5,2,77,11,11,2,['d'],['d'],Y,Y,['space'],Y,,,,,,,F,18,
5,3,78,13,13,2,['k'],['k'],Y,Y,['space'],Y,,,,,,,F,18,
5,4,79,6,6,2,['d'],['d'],Y,N,None,Y,,,,,,,F,18,
5,5,80,5,5,2,['d'],['d'],Y,Y,['space'],Y,,,,,,,F,18,
5,6,81,13,13,2,['k'],['k'],Y,Y,['space'],Y,,,,,,,F,18,
5,7,82,2,2,2,['d'],['d'],Y,Y,['space'],Y,,,,,,,F,18,
5,8,83,11,11,2,['k'],['k'],Y,N,None,Y,,,,,,,F,18,
5,9,84,8,8,2,['d'],['k'],N,Y,['space'],Y,,,,,,,F,18,
5,10,85,6,6,2,['d'],['d'],Y,N,None,Y,,,,,,,F,18,
5,11,86,10,10,2,['k'],['d'],N,Y,None,N,,,,,,,F,18,
5,12,87,4,4,2,['d'],['k'],N,N,None,Y,,,,,,,F,18,
5,13,88,5,5,2,['k'],['d'],N,N,None,Y,,,,,,,F,18,
5,14,89,8,8,2,['d'],['k'],N,Y,None,N,,,,,,,F,18,
6,0,90,13,13,2,['k'],['d'],N,N,None,Y,,,,,,,F,18,
6,1,91,14,14,2,['d'],['d'],Y,N,None,Y,,,,,,,F,18,
6,2,92,0,0,2,['k'],['d'],N,N,None,Y,,,,,,,F,18,
6,3,93,1,1,2,['d'],['d'],Y,Y,['space'],Y,,,,,,,F,18,
6,4,94,0,0,2,['k'],['k'],Y,Y,['space'],Y,,,,,,,F,18,
6,5,95,8,8,2,['k'],['k'],Y,Y,['space'],Y,,,,,,,F,18,
6,6,96,0,0,2,['d'],['k'],N,N,None,Y,,,,,,,F,18,
6,7,97,8,8,2,['k'],['k'],Y,Y,None,N,,,,,,,F,18,
6,8,98,13,13,2,['k'],['d'],N,N,None,Y,,,,,,,F,18,
6,9,99,4,4,2,['d'],['d'],Y,N,['space'],N,25,36,22,,,,F,18,
6,10,100,8,8,3,['k'],['d'],N,,,,,,,,,,F,18,
6,11,101,9,9,3,['k'],['k'],Y,,,,,,,,,,F,18,
6,12,102,10,10,3,['k'],['d'],N,N,['space'],N,,,,,,,F,18,
6,13,103,11,11,3,['d'],['k'],N,N,None,Y,,,,,,,F,18,
6,14,104,10,10,3,['k'],['d'],N,N,None,Y,,,,,,,F,18,
7,0,105,4,4,3,['d'],['d'],Y,Y,['space'],Y,,,,,,,F,18,
7,1,106,12,12,3,['k'],['k'],Y,Y,['space'],Y,,,,,,,F,18,
7,2,107,3,3,3,['d'],['k'],N,N,None,Y,,,,,,,F,18,
7,3,108,4,4,3,['d'],['k'],N,N,None,Y,,,,,,,F,18,
7,4,109,6,6,3,['k'],['d'],N,Y,None,N,,,,,,,F,18,
7,5,110,11,11,3,['k'],['k'],Y,Y,['space'],Y,,,,,,,F,18,
7,6,111,3,3,3,['d'],['k'],N,N,['space'],N,,,,,,,F,18,
7,7,112,10,10,3,['d'],['d'],Y,Y,['space'],Y,,,,,,,F,18,
7,8,113,3,3,3,['k'],['k'],Y,N,None,Y,,,,,,,F,18,
7,9,114,4,4,3,['d'],['d'],Y,N,None,Y,,,,,,,F,18,
7,10,115,7,7,3,['k'],['k'],Y,N,None,Y,,,,,,,F,18,
7,11,116,7,7,3,['d'],['d'],Y,N,None,Y,,,,,,,F,18,
7,12,117,13,13,3,['k'],['k'],Y,N,None,Y,,,,,,,F,18,
7,13,118,12,12,3,['d'],['k'],N,Y,['space'],Y,,,,,,,F,18,
7,14,119,14,14,3,['k'],['k'],Y,Y,['space'],Y,,,,,,,F,18,
8,0,120,7,7,3,['k'],['k'],Y,N,None,Y,,,,,,,F,18,
8,1,121,1,1,3,['d'],['k'],N,N,None,Y,,,,,,,F,18,
8,2,122,1,1,3,['k'],['k'],Y,N,None,Y,,,,,,,F,18,
8,3,123,9,9,3,['d'],['d'],Y,N,None,Y,,,,,,,F,18,
8,4,124,2,2,3,['k'],['k'],Y,Y,None,N,,,,,,,F,18,
8,5,125,9,9,3,['k'],['k'],Y,N,None,Y,,,,,,,F,18,
8,6,126,10,10,3,['d'],['k'],N,N,None,Y,,,,,,,F,18,
8,7,127,12,12,3,['k'],['k'],Y,N,None,Y,,,,,,,F,18,
8,8,128,5,5,3,['d'],['k'],N,Y,['space'],Y,,,,,,,F,18,
8,9,129,3,3,3,['k'],['k'],Y,Y,['space'],Y,,,,,,,F,18,
8,10,130,2,2,3,['d'],['k'],N,N,None,Y,,,,,,,F,18,
8,11,131,14,14,3,['k'],['k'],Y,Y,['space'],Y,,,,,,,F,18,
8,12,132,5,5,3,['k'],['d'],N,N,None,Y,,,,,,,F,18,
8,13,133,0,0,3,['d'],['k'],N,N,None,Y,,,,,,,F,18,
8,14,134,12,12,3,['d'],['d'],Y,N,None,Y,,,,,,,F,18,
9,0,135,1,1,3,['k'],['d'],N,Y,['space'],Y,,,,,,,F,18,
9,1,136,4,4,3,['k'],['k'],Y,Y,['space'],Y,,,,,,,F,18,
9,2,137,2,2,3,['d'],['k'],N,Y,['space'],Y,,,,,,,F,18,
9,3,138,3,3,3,['k'],['k'],Y,Y,['space'],Y,,,,,,,F,18,
9,4,139,10,10,3,['d'],['d'],Y,N,None,Y,,,,,,,F,18,
9,5,140,12,12,3,['k'],['d'],N,Y,['space'],Y,,,,,,,F,18,
9,6,141,12,12,3,['d'],['d'],Y,N,None,Y,,,,,,,F,18,
9,7,142,3,3,3,['k'],['k'],Y,N,None,Y,,,,,,,F,18,
9,8,143,1,1,3,['d'],['k'],N,N,None,Y,,,,,,,F,18,
9,9,144,7,7,3,['k'],['d'],N,Y,['space'],Y,,,,,,,F,18,
9,10,145,11,11,3,['d'],['k'],N,N,None,Y,,,,,,,F,18,
9,11,146,11,11,3,['k'],['d'],N,Y,None,N,,,,,,,F,18,
9,12,147,11,11,3,['d'],['k'],N,Y,None,N,,,,,,,F,18,
9,13,148,9,9,3,['k'],['k'],Y,Y,['space'],Y,,,,,,,F,18,
9,14,149,10,10,3,['d'],['d'],Y,Y,['space'],Y,27,42,21,,,,F,18,
10,0,150,12,12,4,['k'],['d'],N,,,,,,,,,,F,18,
10,1,151,2,2,4,['d'],['d'],Y,,,,,,,,,,F,18,
10,2,152,0,0,4,['k'],['d'],N,Y,['space'],Y,,,,,,,F,18,
10,3,153,13,13,4,['d'],['d'],Y,Y,['space'],Y,,,,,,,F,18,
10,4,154,0,0,4,['k'],['d'],N,Y,['space'],Y,,,,,,,F,18,
10,5,155,11,11,4,['d'],['d'],Y,Y,['space'],Y,,,,,,,F,18,
10,6,156,12,12,4,['d'],['d'],Y,Y,['space'],Y,,,,,,,F,18,
10,7,157,0,0,4,['d'],['k'],N,N,None,Y,,,,,,,F,18,
10,8,158,14,14,4,['k'],['d'],N,Y,['space'],Y,,,,,,,F,18,
10,9,159,1,1,4,['d'],['d'],Y,Y,['space'],Y,,,,,,,F,18,
10,10,160,1,1,4,['k'],['d'],N,Y,['space'],Y,,,,,,,F,18,
10,11,161,14,14,4,['d'],['d'],Y,N,None,Y,,,,,,,F,18,
10,12,162,3,3,4,['k'],['k'],Y,Y,['space'],Y,,,,,,,F,18,
10,13,163,0,0,4,['d'],['k'],N,N,None,Y,,,,,,,F,18,
10,14,164,3,3,4,['k'],['k'],Y,Y,['space'],Y,,,,,,,F,18,
11,0,165,14,14,4,['d'],['d'],Y,Y,['space'],Y,,,,,,,F,18,
11,1,166,8,8,4,['k'],['k'],Y,Y,['space'],Y,,,,,,,F,18,
11,2,167,11,11,4,['d'],['d'],Y,Y,['space'],Y,,,,,,,F,18,
11,3,168,9,9,4,['k'],['k'],Y,Y,['space'],Y,,,,,,,F,18,
11,4,169,1,1,4,['d'],['k'],N,Y,['space'],Y,,,,,,,F,18,
11,5,170,1,1,4,['k'],['k'],Y,N,None,Y,,,,,,,F,18,
11,6,171,7,7,4,['d'],['d'],Y,Y,['space'],Y,,,,,,,F,18,
11,7,172,10,10,4,['d'],['d'],Y,Y,['k'],N,,,,,,,F,18,
11,8,173,13,13,4,['k'],['d'],N,N,None,Y,,,,,,,F,18,
11,9,174,6,6,4,['d'],['d'],Y,N,None,Y,,,,,,,F,18,
11,10,175,3,3,4,['k'],['d'],N,Y,['space'],Y,,,,,,,F,18,
11,11,176,9,9,4,['d'],['d'],Y,Y,['space'],Y,,,,,,,F,18,
11,12,177,11,11,4,['k'],['d'],N,N,None,Y,,,,,,,F,18,
11,13,178,14,14,4,['d'],['k'],N,Y,['space'],Y,,,,,,,F,18,
11,14,179,5,5,4,['k'],['d'],N,N,['space'],N,,,,,,,F,18,
12,0,180,1,1,4,['d'],['k'],N,Y,['space'],Y,,,,,,,F,18,
12,1,181,3,3,4,['k'],['d'],N,Y,['space'],Y,,,,,,,F,18,
12,2,182,5,5,4,['d'],['d'],Y,N,None,Y,,,,,,,F,18,
12,3,183,8,8,4,['d'],['d'],Y,Y,['space'],Y,,,,,,,F,18,
12,4,184,14,14,4,['k'],['k'],Y,N,None,Y,,,,,,,F,18,
12,5,185,7,7,4,['k'],['k'],Y,N,None,Y,,,,,,,F,18,
12,6,186,7,7,4,['d'],['k'],N,N,['space'],N,,,,,,,F,18,
12,7,187,5,5,4,['k'],['k'],Y,N,None,Y,,,,,,,F,18,
12,8,188,7,7,4,['d'],['k'],N,Y,['space'],Y,,,,,,,F,18,
12,9,189,10,10,4,['k'],['k'],Y,N,['space'],N,,,,,,,F,18,
12,10,190,0,0,4,['d'],['k'],N,N,None,Y,,,,,,,F,18,
12,11,191,10,10,4,['k'],['d'],N,N,['space'],N,,,,,,,F,18,
12,12,192,6,6,4,['d'],['d'],Y,N,None,Y,,,,,,,F,18,
12,13,193,14,14,4,['k'],['d'],N,N,None,Y,,,,,,,F,18,
12,14,194,13,13,4,['d'],['d'],Y,N,None,Y,,,,,,,F,18,
13,0,195,11,11,4,['k'],['d'],N,Y,None,N,,,,,,,F,18,
13,1,196,8,8,4,['d'],['d'],Y,N,['space'],N,,,,,,,F,18,
13,2,197,11,11,4,['k'],['k'],Y,N,None,Y,,,,,,,F,18,
13,3,198,0,0,4,['k'],['d'],N,N,['space'],N,,,,,,,F,18,
13,4,199,0,0,4,['d'],['k'],N,N,None,Y,27,40,25,,,,F,18,
13,5,200,7,7,5,['d'],['k'],N,,,,,,,,,,F,18,
13,6,201,13,13,5,['k'],['k'],Y,,,,,,,,,,F,18,
13,7,202,14,14,5,['d'],['k'],N,N,None,Y,,,,,,,F,18,
13,8,203,7,7,5,['k'],['k'],Y,N,['space'],N,,,,,,,F,18,
13,9,204,6,6,5,['k'],['k'],Y,Y,['space'],Y,,,,,,,F,18,
13,10,205,7,7,5,['d'],['d'],Y,N,None,Y,,,,,,,F,18,
13,11,206,6,6,5,['d'],['d'],Y,N,None,Y,,,,,,,F,18,
13,12,207,13,13,5,['k'],['k'],Y,N,['space'],N,,,,,,,F,18,
13,13,208,5,5,5,['d'],['k'],N,N,None,Y,,,,,,,F,18,
13,14,209,3,3,5,['k'],['k'],Y,Y,None,N,,,,,,,F,18,
14,0,210,2,2,5,['k'],['d'],N,Y,['space'],Y,,,,,,,F,18,
14,1,211,2,2,5,['d'],['d'],Y,N,None,Y,,,,,,,F,18,
14,2,212,1,1,5,['k'],['k'],Y,Y,['space'],Y,,,,,,,F,18,
14,3,213,8,8,5,['d'],['k'],N,N,None,Y,,,,,,,F,18,
14,4,214,4,4,5,['k'],['k'],Y,N,None,Y,,,,,,,F,18,
14,5,215,11,11,5,['d'],['d'],Y,N,None,Y,,,,,,,F,18,
14,6,216,9,9,5,['k'],['d'],N,Y,['space'],Y,,,,,,,F,18,
14,7,217,4,4,5,['d'],['k'],N,N,None,Y,,,,,,,F,18,
14,8,218,11,11,5,['k'],['k'],Y,N,None,Y,,,,,,,F,18,
14,9,219,14,14,5,['d'],['d'],Y,Y,['space'],Y,,,,,,,F,18,
14,10,220,6,6,5,['k'],['d'],N,N,None,Y,,,,,,,F,18,
14,11,221,2,2,5,['d'],['k'],N,N,['space'],N,,,,,,,F,18,
14,12,222,14,14,5,['k'],['k'],Y,Y,['space'],Y,,,,,,,F,18,
14,13,223,9,9,5,['d'],['k'],N,N,None,Y,,,,,,,F,18,
14,14,224,4,4,5,['k'],['d'],N,N,None,Y,,,,,,,F,18,
15,0,225,13,13,5,['k'],['d'],N,Y,['d'],N,,,,,,,F,18,
15,1,226,11,11,5,['d'],['d'],Y,Y,None,N,,,,,,,F,18,
15,2,227,13,13,5,['k'],['d'],N,N,['space'],N,,,,,,,F,18,
15,3,228,10,10,5,['d'],['d'],Y,N,['space'],N,,,,,,,F,18,
15,4,229,7,7,5,['k'],['k'],Y,N,['space'],N,,,,,,,F,18,
15,5,230,4,4,5,['d'],['d'],Y,N,['space'],N,,,,,,,F,18,
15,6,231,8,8,5,['k'],['k'],Y,Y,['space'],Y,,,,,,,F,18,
15,7,232,5,5,5,['d'],['d'],Y,N,None,Y,,,,,,,F,18,
15,8,233,14,14,5,['k'],['d'],N,Y,['space'],Y,,,,,,,F,18,
15,9,234,10,10,5,['k'],['k'],Y,N,None,Y,,,,,,,F,18,
15,10,235,9,9,5,['d'],['d'],Y,Y,['space'],Y,,,,,,,F,18,
15,11,236,13,13,5,['k'],['k'],Y,Y,['space'],Y,,,,,,,F,18,
15,12,237,14,14,5,['d'],['k'],N,Y,['space'],Y,,,,,,,F,18,
15,13,238,2,2,5,['k'],['k'],Y,Y,['space'],Y,,,,,,,F,18,
15,14,239,14,14,5,['k'],['d'],N,N,None,Y,,,,,,,F,18,
16,0,240,5,5,5,['k'],['k'],Y,N,None,Y,,,,,,,F,18,
16,1,241,13,13,5,['k'],['k'],Y,Y,None,N,,,,,,,F,18,
16,2,242,1,1,5,['d'],['d'],Y,Y,['space'],Y,,,,,,,F,18,
16,3,243,4,4,5,['k'],['k'],Y,N,None,Y,,,,,,,F,18,
16,4,244,4,4,5,['d'],['d'],Y,N,None,Y,,,,,,,F,18,
16,5,245,8,8,5,['k'],['d'],N,Y,['space'],Y,,,,,,,F,18,
16,6,246,13,13,5,['d'],['k'],N,Y,['space'],Y,,,,,,,F,18,
16,7,247,2,2,5,['k'],['d'],N,Y,['space'],Y,,,,,,,F,18,
16,8,248,11,11,5,['d'],['k'],N,N,None,Y,,,,,,,F,18,
16,9,249,9,9,5,['d'],['k'],N,Y,['space'],Y,29,37,21,,,,F,18,
16,10,250,3,3,6,['k'],['k'],Y,,,,,,,,,,F,18,
16,11,251,8,8,6,['d'],['k'],N,,,,,,,,,,F,18,
16,12,252,12,12,6,['d'],['d'],Y,N,None,Y,,,,,,,F,18,
16,13,253,6,6,6,['k'],['k'],Y,Y,['space'],Y,,,,,,,F,18,
16,14,254,13,13,6,['k'],['d'],N,N,None,Y,,,,,,,F,18,
17,0,255,5,5,6,['d'],['k'],N,Y,['space'],Y,,,,,,,F,18,
17,1,256,2,2,6,['k'],['d'],N,Y,['space'],Y,,,,,,,F,18,
17,2,257,8,8,6,['d'],['k'],N,N,None,Y,,,,,,,F,18,
17,3,258,13,13,6,['k'],['k'],Y,Y,['space'],Y,,,,,,,F,18,
17,4,259,6,6,6,['d'],['d'],Y,Y,['space'],Y,,,,,,,F,18,
17,5,260,8,8,6,['k'],['k'],Y,Y,['space'],Y,,,,,,,F,18,
17,6,261,8,8,6,['d'],['d'],Y,N,None,Y,,,,,,,F,18,
17,7,262,8,8,6,['d'],['d'],Y,Y,['space'],Y,,,,,,,F,18,
17,8,263,1,1,6,['k'],['d'],N,Y,['space'],Y,,,,,,,F,18,
17,9,264,12,12,6,['d'],['d'],Y,N,None,Y,,,,,,,F,18,
17,10,265,12,12,6,['k'],['k'],Y,Y,['space'],Y,,,,,,,F,18,
17,11,266,9,9,6,['d'],['d'],Y,N,None,Y,,,,,,,F,18,
17,12,267,0,0,6,['k'],['d'],N,N,None,Y,,,,,,,F,18,
17,13,268,12,12,6,['d'],['k'],N,Y,['space'],Y,,,,,,,F,18,
17,14,269,11,11,6,['k'],['k'],Y,Y,['space'],Y,,,,,,,F,18,
18,0,270,3,3,6,['k'],['d'],N,Y,None,N,,,,,,,F,18,
18,1,271,7,7,6,['d'],['k'],N,N,None,Y,,,,,,,F,18,
18,2,272,14,14,6,['k'],['k'],Y,N,None,Y,,,,,,,F,18,
18,3,273,2,2,6,['d'],['d'],Y,N,None,Y,,,,,,,F,18,
18,4,274,11,11,6,['d'],['k'],N,N,None,Y,,,,,,,F,18,
18,5,275,8,8,6,['k'],['k'],Y,N,None,Y,,,,,,,F,18,
18,6,276,7,7,6,['k'],['k'],Y,N,None,Y,,,,,,,F,18,
18,7,277,14,14,6,['d'],['k'],N,Y,['space'],Y,,,,,,,F,18,
18,8,278,0,0,6,['k'],['d'],N,N,None,Y,,,,,,,F,18,
18,9,279,0,0,6,['d'],['k'],N,Y,['space'],Y,,,,,,,F,18,
18,10,280,10,10,6,['k'],['d'],N,N,None,Y,,,,,,,F,18,
18,11,281,11,11,6,['d'],['k'],N,Y,['space'],Y,,,,,,,F,18,
18,12,282,10,10,6,['k'],['d'],N,N,None,Y,,,,,,,F,18,
18,13,283,10,10,6,['d'],['d'],Y,N,['space'],N,,,,,,,F,18,
18,14,284,2,2,6,['d'],['k'],N,N,None,Y,,,,,,,F,18,
19,0,285,1,1,6,"['d', 'k']",['k'],N,N,None,Y,,,,,,,F,18,
19,1,286,12,12,6,['d'],['d'],Y,Y,['space'],Y,,,,,,,F,18,
19,2,287,3,3,6,['k'],['k'],Y,Y,['space'],Y,,,,,,,F,18,
19,3,288,14,14,6,['d'],['k'],N,Y,['space'],Y,,,,,,,F,18,
19,4,289,13,13,6,['k'],['d'],N,Y,['space'],Y,,,,,,,F,18,
19,5,290,12,12,6,['k'],['d'],N,N,None,Y,,,,,,,F,18,
19,6,291,3,3,6,['d'],['d'],Y,Y,['space'],Y,,,,,,,F,18,
19,7,292,12,12,6,['k'],['k'],Y,Y,['space'],Y,,,,,,,F,18,
19,8,293,4,4,6,['d'],['d'],Y,N,None,Y,,,,,,,F,18,
19,9,294,5,5,6,['k'],['k'],Y,Y,['space'],Y,,,,,,,F,18,
19,10,295,4,4,6,['d'],['k'],N,N,None,Y,,,,,,,F,18,
19,11,296,14,14,6,['k'],['k'],Y,Y,None,N,,,,,,,F,18,
19,12,297,9,9,6,['d'],['d'],Y,N,None,Y,,,,,,,F,18,
19,13,298,8,8,6,['k'],['k'],Y,N,None,Y,,,,,,,F,18,
19,14,299,9,9,6,['d'],['d'],Y,Y,['space'],Y,27,45,24,,,,F,18,
20,0,300,13,13,7,['k'],['d'],N,,,,,,,,,,F,18,
20,1,301,8,8,7,['d'],['d'],Y,,,,,,,,,,F,18,
20,2,302,8,8,7,['d'],['k'],N,Y,None,N,,,,,,,F,18,
20,3,303,12,12,7,['d'],['k'],N,Y,['space'],Y,,,,,,,F,18,
20,4,304,2,2,7,['k'],['k'],Y,N,None,Y,,,,,,,F,18,
20,5,305,6,6,7,['d'],['d'],Y,Y,['space'],Y,,,,,,,F,18,
20,6,306,14,14,7,['k'],['k'],Y,Y,['space'],Y,,,,,,,F,18,
20,7,307,10,10,7,['d'],['d'],Y,N,None,Y,,,,,,,F,18,
20,8,308,2,2,7,['k'],['k'],Y,Y,['space'],Y,,,,,,,F,18,
20,9,309,0,0,7,['d'],['k'],N,N,None,Y,,,,,,,F,18,
20,10,310,7,7,7,['k'],['d'],N,Y,['space'],Y,,,,,,,F,18,
20,11,311,2,2,7,['d'],['k'],N,Y,['space'],Y,,,,,,,F,18,
20,12,312,6,6,7,['k'],['k'],Y,N,None,Y,,,,,,,F,18,
20,13,313,6,6,7,['d'],['k'],N,N,None,Y,,,,,,,F,18,
20,14,314,12,12,7,['k'],['k'],Y,Y,['space'],Y,,,,,,,F,18,
21,0,315,13,13,7,['d'],['k'],N,N,None,Y,,,,,,,F,18,
21,1,316,6,6,7,['k'],['k'],Y,N,None,Y,,,,,,,F,18,
21,2,317,1,1,7,['k'],['k'],Y,N,None,Y,,,,,,,F,18,
21,3,318,14,14,7,['d'],['d'],Y,Y,['space'],Y,,,,,,,F,18,
21,4,319,4,4,7,['k'],['k'],Y,Y,['k'],N,,,,,,,F,18,
21,5,320,4,4,7,['k'],['k'],Y,Y,['space'],Y,,,,,,,F,18,
21,6,321,9,9,7,['d'],['k'],N,Y,['space'],Y,,,,,,,F,18,
21,7,322,10,10,7,['k'],['k'],Y,Y,['space'],Y,,,,,,,F,18,
21,8,323,0,0,7,['d'],['d'],Y,Y,['space'],Y,,,,,,,F,18,
21,9,324,0,0,7,['k'],['d'],N,Y,['space'],Y,,,,,,,F,18,
21,10,325,13,13,7,['d'],['d'],Y,N,None,Y,,,,,,,F,18,
21,11,326,8,8,7,['k'],['k'],Y,N,None,Y,,,,,,,F,18,
21,12,327,7,7,7,['d'],['d'],Y,Y,['space'],Y,,,,,,,F,18,
21,13,328,4,4,7,['d'],['k'],N,N,None,Y,,,,,,,F,18,
21,14,329,1,1,7,['k'],['d'],N,Y,None,N,,,,,,,F,18,
22,0,330,0,0,7,['d'],['d'],Y,Y,['space'],Y,,,,,,,F,18,
22,1,331,13,13,7,['d'],['d'],Y,Y,['space'],Y,,,,,,,F,18,
22,2,332,11,11,7,['d'],['d'],Y,Y,['space'],Y,,,,,,,F,18,
22,3,333,7,7,7,['k'],['d'],N,N,None,Y,,,,,,,F,18,
22,4,334,9,9,7,['d'],['d'],Y,N,None,Y,,,,,,,F,18,
22,5,335,9,9,7,['d'],['d'],Y,N,None,Y,,,,,,,F,18,
22,6,336,10,10,7,['d'],['d'],Y,N,None,Y,,,,,,,F,18,
22,7,337,10,10,7,['d'],['d'],Y,Y,['space'],Y,,,,,,,F,18,
22,8,338,13,13,7,['k'],['k'],Y,Y,['d'],N,,,,,,,F,18,
22,9,339,4,4,7,['d'],['k'],N,Y,['space'],Y,,,,,,,F,18,
22,10,340,6,6,7,['k'],['k'],Y,N,None,Y,,,,,,,F,18,
22,11,341,4,4,7,['k'],['d'],N,N,None,Y,,,,,,,F,18,
22,12,342,8,8,7,['d'],['d'],Y,Y,['space'],Y,,,,,,,F,18,
22,13,343,11,11,7,['d'],['k'],N,N,None,Y,,,,,,,F,18,
22,14,344,13,13,7,['k'],['d'],N,Y,['space'],Y,,,,,,,F,18,
23,0,345,12,12,7,['d'],['d'],Y,N,None,Y,,,,,,,F,18,
23,1,346,14,14,7,['k'],['k'],Y,N,None,Y,,,,,,,F,18,
23,2,347,11,11,7,['d'],['d'],Y,N,None,Y,,,,,,,F,18,
23,3,348,3,3,7,['d'],['d'],Y,N,['space'],N,,,,,,,F,18,
23,4,349,4,4,7,['k'],['k'],Y,N,None,Y,33,43,25,,,,F,18,
23,5,350,0,0,8,['k'],['k'],Y,,,,,,,,,,F,18,
23,6,351,13,13,8,['k'],['k'],Y,,,,,,,,,,F,18,
23,7,352,13,13,8,['d'],['d'],Y,N,['space'],N,,,,,,,F,18,
23,8,353,3,3,8,['k'],['d'],N,Y,None,N,,,,,,,F,18,
23,9,354,12,12,8,['d'],['d'],Y,Y,['space'],Y,,,,,,,F,18,
23,10,355,7,7,8,['k'],['k'],Y,Y,['space'],Y,,,,,,,F,18,
23,11,356,9,9,8,['d'],['k'],N,Y,['space'],Y,,,,,,,F,18,
23,12,357,7,7,8,['k'],['k'],Y,Y,['space'],Y,,,,,,,F,18,
23,13,358,10,10,8,['d'],['d'],Y,N,None,Y,,,,,,,F,18,
23,14,359,14,14,8,['k'],['d'],N,Y,['space'],Y,,,,,,,F,18,
24,0,360,10,10,8,['d'],['d'],Y,Y,['space'],Y,,,,,,,F,18,
24,1,361,14,14,8,['k'],['d'],N,N,None,Y,,,,,,,F,18,
24,2,362,4,4,8,['d'],['d'],Y,Y,['space'],Y,,,,,,,F,18,
24,3,363,3,3,8,['k'],['d'],N,N,None,Y,,,,,,,F,18,
24,4,364,11,11,8,['d'],['d'],Y,N,None,Y,,,,,,,F,18,
24,5,365,7,7,8,['d'],['d'],Y,Y,None,N,,,,,,,F,18,
24,6,366,9,9,8,['d'],['k'],N,Y,['space'],Y,,,,,,,F,18,
24,7,367,4,4,8,['k'],['d'],N,N,None,Y,,,,,,,F,18,
24,8,368,11,11,8,['d'],['k'],N,N,None,Y,,,,,,,F,18,
24,9,369,4,4,8,['k'],['k'],Y,Y,['space'],Y,,,,,,,F,18,
24,10,370,0,0,8,['d'],['d'],Y,Y,['space'],Y,,,,,,,F,18,
24,11,371,2,2,8,['k'],['k'],Y,N,None,Y,,,,,,,F,18,
24,12,372,4,4,8,['k'],['d'],N,N,None,Y,,,,,,,F,18,
24,13,373,13,13,8,['k'],['k'],Y,Y,['space'],Y,,,,,,,F,18,
24,14,374,5,5,8,['d'],['d'],Y,N,None,Y,,,,,,,F,18,
25,0,375,2,2,8,['d'],['d'],Y,Y,['space'],Y,,,,,,,F,18,
25,1,376,3,3,8,['k'],['d'],N,N,None,Y,,,,,,,F,18,
25,2,377,1,1,8,['k'],['d'],N,N,None,Y,,,,,,,F,18,
25,3,378,7,7,8,['d'],['k'],N,Y,['space'],Y,,,,,,,F,18,
25,4,379,14,14,8,['k'],['d'],N,N,None,Y,,,,,,,F,18,
25,5,380,10,10,8,['d'],['k'],N,Y,['space'],Y,,,,,,,F,18,
25,6,381,6,6,8,['d'],['k'],N,Y,['space'],Y,,,,,,,F,18,
25,7,382,7,7,8,['k'],['d'],N,Y,['space'],Y,,,,,,,F,18,
25,8,383,6,6,8,['d'],['d'],Y,Y,None,N,,,,,,,F,18,
25,9,384,6,6,8,['k'],['k'],Y,N,None,Y,,,,,,,F,18,
25,10,385,13,13,8,['d'],['d'],Y,Y,['space'],Y,,,,,,,F,18,
25,11,386,0,0,8,['d'],['k'],N,Y,['space'],Y,,,,,,,F,18,
25,12,387,12,12,8,['k'],['k'],Y,Y,['space'],Y,,,,,,,F,18,
25,13,388,10,10,8,['k'],['k'],Y,Y,['space'],Y,,,,,,,F,18,
25,14,389,5,5,8,['k'],['d'],N,Y,['d'],N,,,,,,,F,18,
26,0,390,9,9,8,['k'],['d'],N,N,None,Y,,,,,,,F,18,
26,1,391,1,1,8,['d'],['k'],N,Y,['space'],Y,,,,,,,F,18,
26,2,392,3,3,8,['k'],['k'],Y,N,None,Y,,,,,,,F,18,
26,3,393,6,6,8,['k'],['k'],Y,N,None,Y,,,,,,,F,18,
26,4,394,11,11,8,['k'],['d'],N,N,None,Y,,,,,,,F,18,
26,5,395,1,1,8,['d'],['d'],Y,N,['space'],N,,,,,,,F,18,
26,6,396,7,7,8,['d'],['d'],Y,N,None,Y,,,,,,,F,18,
26,7,397,1,1,8,['k'],['k'],Y,N,None,Y,,,,,,,F,18,
26,8,398,12,12,8,['d'],['k'],N,N,None,Y,,,,,,,F,18,
26,9,399,6,6,8,['k'],['d'],N,N,None,Y,27,42,25,,,,F,18,
26,10,400,1,1,9,['k'],['d'],N,,,,,,,,,,F,18,
26,11,401,12,12,9,['d'],['d'],Y,,,,,,,,,,F,18,
26,12,402,13,13,9,['k'],['d'],N,Y,['space'],Y,,,,,,,F,18,
26,13,403,8,8,9,['d'],['d'],Y,N,None,Y,,,,,,,F,18,
26,14,404,7,7,9,['d'],['d'],Y,N,None,Y,,,,,,,F,18,
27,0,405,2,2,9,['k'],['k'],Y,Y,None,N,,,,,,,F,18,
27,1,406,7,7,9,['k'],['d'],N,N,['space'],N,,,,,,,F,18,
27,2,407,5,5,9,['k'],['k'],Y,N,None,Y,,,,,,,F,18,
27,3,408,5,5,9,['d'],['d'],Y,Y,None,N,,,,,,,F,18,
27,4,409,1,1,9,['k'],['k'],Y,N,None,Y,,,,,,,F,18,
27,5,410,0,0,9,['k'],['d'],N,Y,['d'],N,,,,,,,F,18,
27,6,411,13,13,9,['d'],['d'],Y,N,None,Y,,,,,,,F,18,
27,7,412,6,6,9,['k'],['d'],N,Y,['space'],Y,,,,,,,F,18,
27,8,413,0,0,9,['d'],['d'],Y,N,None,Y,,,,,,,F,18,
27,9,414,11,11,9,['k'],['d'],N,N,None,Y,,,,,,,F,18,
27,10,415,9,9,9,['d'],['d'],Y,Y,['space'],Y,,,,,,,F,18,
27,11,416,2,2,9,['k'],['k'],Y,N,None,Y,,,,,,,F,18,
27,12,417,5,5,9,['d'],['d'],Y,Y,['space'],Y,,,,,,,F,18,
27,13,418,5,5,9,['k'],['d'],N,N,None,Y,,,,,,,F,18,
27,14,419,3,3,9,['d'],['d'],Y,Y,['space'],Y,,,,,,,F,18,
28,0,420,7,7,9,['k'],['k'],Y,N,None,Y,,,,,,,F,18,
28,1,421,7,7,9,['d'],['d'],Y,N,['space'],N,,,,,,,F,18,
28,2,422,9,9,9,['k'],['d'],N,N,None,Y,,,,,,,F,18,
28,3,423,10,10,9,['d'],['k'],N,Y,['space'],Y,,,,,,,F,18,
28,4,424,14,14,9,['k'],['d'],N,N,None,Y,,,,,,,F,18,
28,5,425,14,14,9,['d'],['k'],N,Y,['space'],Y,,,,,,,F,18,
28,6,426,5,5,9,['d'],['d'],Y,N,None,Y,,,,,,,F,18,
28,7,427,9,9,9,['k'],['k'],Y,N,None,Y,,,,,,,F,18,
28,8,428,12,12,9,['d'],['k'],N,N,None,Y,,,,,,,F,18,
28,9,429,7,7,9,['k'],['d'],N,Y,['space'],Y,,,,,,,F,18,
28,10,430,8,8,9,['k'],['d'],N,N,None,Y,,,,,,,F,18,
28,11,431,2,2,9,['d'],['d'],Y,N,None,Y,,,,,,,F,18,
28,12,432,3,3,9,['d'],['k'],N,Y,['space'],Y,,,,,,,F,18,
28,13,433,10,10,9,['k'],['k'],Y,N,None,Y,,,,,,,F,18,
28,14,434,11,11,9,['d'],['k'],N,N,None,Y,,,,,,,F,18,
29,0,435,3,3,9,['k'],['d'],N,N,None,Y,,,,,,,F,18,
29,1,436,11,11,9,['d'],['d'],Y,Y,None,N,,,,,,,F,18,
29,2,437,9,9,9,['k'],['k'],Y,N,None,Y,,,,,,,F,18,
29,3,438,10,10,9,['d'],['d'],Y,N,None,Y,,,,,,,F,18,
29,4,439,2,2,9,['k'],['k'],Y,N,None,Y,,,,,,,F,18,
29,5,440,1,1,9,['d'],['k'],N,Y,None,N,,,,,,,F,18,
29,6,441,12,12,9,['k'],['d'],N,N,None,Y,,,,,,,F,18,
29,7,442,5,5,9,['d'],['d'],Y,N,['space'],N,,,,,,,F,18,
29,8,443,5,5,9,['d'],['k'],N,N,['k'],N,,,,,,,F,18,
29,9,444,2,2,9,['d'],['d'],Y,N,['space'],N,,,,,,,F,18,
29,10,445,10,10,9,['k'],['k'],Y,N,None,Y,,,,,,,F,18,
29,11,446,5,5,9,['k'],['d'],N,Y,['space'],Y,,,,,,,F,18,
29,12,447,2,2,9,['d'],['k'],N,Y,None,N,,,,,,,F,18,
29,13,448,5,5,9,['k'],['d'],N,N,None,Y,,,,,,,F,18,
29,14,449,9,9,9,['d'],['d'],Y,N,None,Y,27,37,16,,,,F,18,
30,0,450,3,3,10,['k'],['k'],Y,,,,,,,,,,F,18,
30,1,451,8,8,10,['d'],['d'],Y,,,,,,,,,,F,18,
30,2,452,9,9,10,['d'],['d'],Y,Y,['space'],Y,,,,,,,F,18,
30,3,453,10,10,10,['d'],['d'],Y,Y,['space'],Y,,,,,,,F,18,
30,4,454,1,1,10,['k'],['k'],Y,N,None,Y,,,,,,,F,18,
30,5,455,0,0,10,['d'],['d'],Y,N,None,Y,,,,,,,F,18,
30,6,456,14,14,10,['k'],['d'],N,N,None,Y,,,,,,,F,18,
30,7,457,9,9,10,['d'],['d'],Y,N,['space'],N,,,,,,,F,18,
30,8,458,13,13,10,['k'],['k'],Y,Y,['space'],Y,,,,,,,F,18,
30,9,459,8,8,10,['d'],['k'],N,Y,['space'],Y,,,,,,,F,18,
30,10,460,7,7,10,['k'],['k'],Y,N,None,Y,,,,,,,F,18,
30,11,461,13,13,10,['d'],['k'],N,Y,['space'],Y,,,,,,,F,18,
30,12,462,10,10,10,['k'],['d'],N,Y,['space'],Y,,,,,,,F,18,
30,13,463,7,7,10,['d'],['k'],N,Y,['space'],Y,,,,,,,F,18,
30,14,464,6,6,10,['k'],['d'],N,N,None,Y,,,,,,,F,18,
31,0,465,3,3,10,['d'],['d'],Y,Y,['space'],Y,,,,,,,F,18,
31,1,466,13,13,10,['k'],['d'],N,N,None,Y,,,,,,,F,18,
31,2,467,2,2,10,['d'],['k'],N,N,None,Y,,,,,,,F,18,
31,3,468,5,5,10,['d'],['k'],N,Y,None,N,,,,,,,F,18,
31,4,469,0,0,10,['k'],['d'],N,N,None,Y,,,,,,,F,18,
31,5,470,0,0,10,['d'],['d'],Y,Y,None,N,,,,,,,F,18,
31,6,471,13,13,10,['k'],['k'],Y,N,['space'],N,,,,,,,F,18,
31,7,472,8,8,10,['d'],['d'],Y,Y,None,N,,,,,,,F,18,
31,8,473,0,0,10,['d'],['k'],N,N,None,Y,,,,,,,F,18,
31,9,474,9,9,10,['k'],['k'],Y,Y,['space'],Y,,,,,,,F,18,
31,10,475,9,9,10,['d'],['d'],Y,N,['space'],N,,,,,,,F,18,
31,11,476,8,8,10,['k'],['k'],Y,Y,['space'],Y,,,,,,,F,18,
31,12,477,8,8,10,['k'],['k'],Y,N,['space'],N,,,,,,,F,18,
31,13,478,0,0,10,['k'],['d'],N,N,['d'],N,,,,,,,F,18,
31,14,479,14,14,10,['k'],['d'],N,Y,['space'],Y,,,,,,,F,18,
32,0,480,4,4,10,['k'],['d'],N,Y,['space'],Y,,,,,,,F,18,
32,1,481,12,12,10,['d'],['d'],Y,N,None,Y,,,,,,,F,18,
32,2,482,7,7,10,['d'],['d'],Y,Y,['space'],Y,,,,,,,F,18,
32,3,483,12,12,10,['d'],['d'],Y,Y,['space'],Y,,,,,,,F,18,
32,4,484,9,9,10,['k'],['d'],N,N,['space'],N,,,,,,,F,18,
32,5,485,4,4,10,['d'],['d'],Y,Y,['space'],Y,,,,,,,F,18,
32,6,486,8,8,10,['k'],['d'],N,Y,['space'],Y,,,,,,,F,18,
32,7,487,9,9,10,['k'],['d'],N,N,None,Y,,,,,,,F,18,
32,8,488,2,2,10,['d'],['k'],N,N,None,Y,,,,,,,F,18,
32,9,489,1,1,10,['k'],['d'],N,Y,['space'],Y,,,,,,,F,18,
32,10,490,8,8,10,['d'],['d'],Y,Y,['space'],Y,,,,,,,F,18,
32,11,491,13,13,10,['d'],['k'],N,Y,['space'],Y,,,,,,,F,18,
32,12,492,3,3,10,['k'],['d'],N,Y,['space'],Y,,,,,,,F,18,
32,13,493,10,10,10,['d'],['d'],Y,N,None,Y,,,,,,,F,18,
32,14,494,6,6,10,['k'],['k'],Y,Y,['space'],Y,,,,,,,F,18,
33,0,495,10,10,10,['d'],['k'],N,Y,['space'],Y,,,,,,,F,18,
33,1,496,12,12,10,['d'],['k'],N,N,None,Y,,,,,,,F,18,
33,2,497,6,6,10,['d'],['k'],N,N,None,Y,,,,,,,F,18,
33,3,498,5,5,10,['k'],['k'],Y,N,None,Y,,,,,,,F,18,
33,4,499,0,0,10,['d'],['k'],N,N,None,Y,25,39,25,,,,F,18,
33,5,500,11,11,11,['k'],['k'],N,,,,,,,Y,Y,Y,F,18,
33,6,501,11,11,11,['d'],['k'],Y,,,,,,,,Y,Y,F,18,
33,7,502,9,9,11,['d'],['k'],Y,Y,['space'],Y,,,,,Y,Y,F,18,
33,8,503,9,9,11,['k'],['d'],Y,Y,['space'],Y,,,,,Y,Y,F,18,
33,9,504,7,7,11,['d'],['d'],N,Y,['space'],Y,,,,,Y,Y,F,18,
33,10,505,0,0,11,['k'],['k'],N,Y,['space'],Y,,,,,Y,Y,F,18,
33,11,506,12,12,11,['d'],['k'],Y,Y,['space'],Y,,,,,Y,Y,F,18,
33,12,507,12,12,11,['k'],['k'],N,N,None,Y,,,,,Y,Y,F,18,
33,13,508,9,9,11,['d'],['k'],Y,N,['space'],N,,,,,Y,Y,F,18,
33,14,509,4,4,11,['k'],['d'],Y,N,None,Y,,,,,Y,Y,F,18,
34,0,510,5,5,11,['d'],['k'],Y,Y,['space'],Y,,,,,Y,Y,F,18,
34,1,511,0,0,11,['k'],['k'],N,N,None,Y,,,,,Y,Y,F,18,
34,2,512,11,11,11,['d'],['k'],Y,Y,['space'],Y,,,,,Y,Y,F,18,
34,3,513,2,2,11,['k'],['k'],N,Y,['space'],Y,,,,,Y,Y,F,18,
34,4,514,1,1,11,['d'],['d'],N,N,None,Y,,,,,Y,Y,F,18,
34,5,515,1,1,11,['k'],['d'],Y,Y,['space'],Y,,,,,Y,Y,F,18,
34,6,516,0,0,11,['d'],['d'],N,Y,['space'],Y,,,,,Y,Y,F,18,
34,7,517,10,10,11,['k'],['k'],N,Y,['space'],Y,,,,,Y,Y,F,18,
34,8,518,10,10,11,['d'],['k'],Y,Y,['space'],Y,,,,,Y,Y,F,18,
34,9,519,4,4,11,['k'],['k'],N,N,None,Y,,,,,Y,Y,F,18,
34,10,520,9,9,11,['k'],['k'],N,N,None,Y,,,,,Y,Y,F,18,
34,11,521,6,6,11,['d'],['k'],Y,Y,['space'],Y,,,,,Y,Y,F,18,
34,12,522,13,13,11,['d'],['k'],Y,Y,['space'],Y,,,,,Y,Y,F,18,
34,13,523,10,10,11,['k'],['k'],N,N,None,Y,,,,,Y,Y,F,18,
34,14,524,1,1,11,['d'],['k'],Y,N,None,Y,,,,,Y,Y,F,18,
35,0,525,14,14,11,['k'],['k'],N,Y,['k'],N,,,,,Y,Y,F,18,
35,1,526,7,7,11,['d'],['k'],Y,N,None,Y,,,,,Y,Y,F,18,
35,2,527,2,2,11,['k'],['k'],N,N,None,Y,,,,,Y,Y,F,18,
35,3,528,5,5,11,['d'],['d'],N,Y,['space'],Y,,,,,Y,Y,F,18,
35,4,529,2,2,11,['d'],['d'],N,N,None,Y,,,,,Y,Y,F,18,
35,5,530,9,9,11,['k'],['d'],Y,N,None,Y,,,,,Y,Y,F,18,
35,6,531,8,8,11,['d'],['k'],Y,N,None,Y,,,,,Y,Y,F,18,
35,7,532,12,12,11,['d'],['d'],N,N,None,Y,,,,,Y,Y,F,18,
35,8,533,11,11,11,['d'],['k'],Y,Y,['space'],Y,,,,,Y,Y,F,18,
35,9,534,6,6,11,['k'],['k'],N,Y,None,N,,,,,Y,Y,F,18,
35,10,535,1,1,11,['k'],['k'],N,N,None,Y,,,,,Y,Y,F,18,
35,11,536,6,6,11,['d'],['k'],Y,N,None,Y,,,,,Y,Y,F,18,
35,12,537,5,5,11,['k'],['d'],Y,Y,['space'],Y,,,,,Y,Y,F,18,
35,13,538,6,6,11,['d'],['k'],Y,Y,['space'],Y,,,,,Y,Y,F,18,
35,14,539,10,10,11,['k'],['d'],Y,N,None,Y,,,,,Y,Y,F,18,
36,0,540,13,13,11,['d'],['k'],Y,Y,['space'],Y,,,,,Y,Y,F,18,
36,1,541,2,2,11,['k'],['d'],Y,N,['space'],N,,,,,Y,Y,F,18,
36,2,542,3,3,11,['d'],['k'],Y,Y,['space'],Y,,,,,Y,Y,F,18,
36,3,543,7,7,11,['k'],['k'],N,Y,['space'],Y,,,,,Y,Y,F,18,
36,4,544,4,4,11,['d'],['d'],N,Y,['space'],Y,,,,,Y,Y,F,18,
36,5,545,0,0,11,['k'],['d'],Y,N,None,Y,,,,,Y,Y,F,18,
36,6,546,14,14,11,['d'],['k'],Y,N,None,Y,,,,,Y,Y,F,18,
36,7,547,4,4,11,['k'],['d'],Y,Y,None,N,,,,,Y,Y,F,18,
36,8,548,4,4,11,['d'],['d'],N,N,None,Y,,,,,Y,Y,F,18,
36,9,549,11,11,11,['k'],['d'],Y,N,None,Y,28,43,25,,Y,Y,F,18,
36,10,550,4,4,12,['k'],['k'],N,,,,,,,,Y,Y,F,18,
36,11,551,7,7,12,['d'],['d'],N,,,,,,,,Y,Y,F,18,
36,12,552,12,12,12,['k'],['d'],Y,Y,['space'],Y,,,,,Y,Y,F,18,
36,13,553,7,7,12,['d'],['k'],Y,N,None,Y,,,,,Y,Y,F,18,
36,14,554,5,5,12,['k'],['d'],Y,Y,['space'],Y,,,,,Y,Y,F,18,
37,0,555,4,4,12,['d'],['k'],Y,N,None,Y,,,,,Y,Y,F,18,
37,1,556,12,12,12,['k'],['k'],N,Y,['d'],N,,,,,Y,Y,F,18,
37,2,557,7,7,12,['d'],['k'],Y,N,None,Y,,,,,Y,Y,F,18,
37,3,558,13,13,12,['d'],['k'],Y,N,None,Y,,,,,Y,Y,F,18,
37,4,559,10,10,12,['k'],['d'],Y,Y,['space'],Y,,,,,Y,Y,F,18,
37,5,560,4,4,12,['d'],['d'],N,Y,['space'],Y,,,,,Y,Y,F,18,
37,6,561,11,11,12,['k'],['d'],Y,Y,['space'],Y,,,,,Y,Y,F,18,
37,7,562,14,14,12,['d'],['d'],N,Y,['space'],Y,,,,,Y,Y,F,18,
37,8,563,4,4,12,['k'],['k'],N,N,None,Y,,,,,Y,Y,F,18,
37,9,564,2,2,12,['d'],['d'],N,N,None,Y,,,,,Y,Y,F,18,
37,10,565,1,1,12,['k'],['k'],N,Y,['space'],Y,,,,,Y,Y,F,18,
37,11,566,13,13,12,['d'],['k'],Y,Y,['space'],Y,,,,,Y,Y,F,18,
37,12,567,3,3,12,['k'],['k'],N,N,None,Y,,,,,Y,Y,F,18,
37,13,568,2,2,12,['k'],['k'],N,N,None,Y,,,,,Y,Y,F,18,
37,14,569,11,11,12,['k'],['d'],Y,N,None,Y,,,,,Y,Y,F,18,
38,0,570,4,4,12,['k'],['d'],Y,Y,['space'],Y,,,,,Y,Y,F,18,
38,1,571,12,12,12,['d'],['d'],N,Y,None,N,,,,,Y,Y,F,18,
38,2,572,6,6,12,['k'],['k'],N,Y,['space'],Y,,,,,Y,Y,F,18,
38,3,573,1,1,12,['d'],['d'],N,Y,['space'],Y,,,,,Y,Y,F,18,
38,4,574,8,8,12,['k'],['d'],Y,N,None,Y,,,,,Y,Y,F,18,
38,5,575,1,1,12,['d'],['d'],N,N,None,Y,,,,,Y,Y,F,18,
38,6,576,2,2,12,['k'],['d'],Y,Y,['space'],Y,,,,,Y,Y,F,18,
38,7,577,3,3,12,['d'],['k'],Y,Y,['space'],Y,,,,,Y,Y,F,18,
38,8,578,3,3,12,['k'],['d'],Y,N,['space'],N,,,,,Y,Y,F,18,
38,9,579,8,8,12,['k'],['k'],N,N,['space'],N,,,,,Y,Y,F,18,
38,10,580,10,10,12,['d'],['d'],N,N,None,Y,,,,,Y,Y,F,18,
38,11,581,2,2,12,['k'],['k'],N,Y,['space'],Y,,,,,Y,Y,F,18,
38,12,582,7,7,12,['d'],['d'],N,N,['space'],N,,,,,Y,Y,F,18,
38,13,583,5,5,12,['k'],['d'],Y,Y,['space'],Y,,,,,Y,Y,F,18,
38,14,584,5,5,12,['d'],['k'],Y,N,None,Y,,,,,Y,Y,F,18,
39,0,585,5,5,12,['k'],['d'],Y,Y,['space'],Y,,,,,Y,Y,F,18,
39,1,586,5,5,12,['d'],['k'],Y,Y,['space'],Y,,,,,Y,Y,F,18,
39,2,587,5,5,12,['d'],['d'],N,N,None,Y,,,,,Y,Y,F,18,
39,3,588,11,11,12,['k'],['d'],Y,Y,['space'],Y,,,,,Y,Y,F,18,
39,4,589,8,8,12,['d'],['d'],N,N,None,Y,,,,,Y,Y,F,18,
39,5,590,4,4,12,None,,Timed out,N,None,Y,,,,,Y,Y,F,18,
39,6,591,9,9,12,['d'],['k'],Y,Y,['space'],Y,,,,,Y,Y,F,18,
39,7,592,6,6,12,['k'],['d'],Y,N,None,Y,,,,,Y,Y,F,18,
39,8,593,3,3,12,['d'],['d'],N,Y,['space'],Y,,,,,Y,Y,F,18,
39,9,594,2,2,12,['k'],['d'],Y,N,None,Y,,,,,Y,Y,F,18,
39,10,595,11,11,12,['k'],['d'],Y,Y,None,N,,,,,Y,Y,F,18,
39,11,596,12,12,12,['k'],['k'],N,N,None,Y,,,,,Y,Y,F,18,
39,12,597,11,11,12,['d'],['k'],Y,Y,['space'],Y,,,,,Y,Y,F,18,
39,13,598,2,2,12,['k'],['k'],N,N,None,Y,,,,,Y,Y,F,18,
39,14,599,0,0,12,['d'],['k'],Y,Y,['space'],Y,26,42,25,,Y,Y,F,18,
