.thisRepN,.thisTrialN,.thisN,.thisIndex,.thisTrial,Block Number,Key pressed,Category,Correct?,Int Match?,Int Response,Int Correct?,Line Accuracy,Interference Accuracy,Matching Interferences,New instruction shown?,Buttons switched?,Fast?,gender,age,
0,0,0,10,10,1,['k'],['k'],Y,,,,,,,,,,F,19,
0,1,1,2,2,1,['k'],['k'],Y,,,,,,,,,,F,19,
0,2,2,6,6,1,['k'],['k'],Y,Y,['space'],Y,,,,,,,F,19,
0,3,3,4,4,1,['d'],['d'],Y,Y,['space'],Y,,,,,,,F,19,
0,4,4,7,7,1,['k'],['k'],Y,Y,['space'],Y,,,,,,,F,19,
0,5,5,7,7,1,['k'],['d'],N,N,None,Y,,,,,,,F,19,
0,6,6,4,4,1,['d'],['d'],Y,Y,['space'],Y,,,,,,,F,19,
0,7,7,0,0,1,['d'],['k'],N,N,None,Y,,,,,,,F,19,
0,8,8,2,2,1,['k'],['k'],Y,N,None,Y,,,,,,,F,19,
0,9,9,10,10,1,['k'],['d'],N,Y,['space'],Y,,,,,,,F,19,
0,10,10,0,0,1,['d'],['k'],N,Y,['d'],N,,,,,,,F,19,
1,0,11,5,5,1,['k'],['d'],N,N,['space'],N,,,,,,,F,19,
1,1,12,8,8,1,['k'],['k'],Y,N,['space'],N,,,,,,,F,19,
1,2,13,1,1,1,['k'],['k'],Y,Y,['space'],Y,,,,,,,F,19,
1,3,14,10,10,1,['d'],['d'],Y,N,None,Y,,,,,,,F,19,
1,4,15,5,5,1,['k'],['k'],Y,Y,['space'],Y,,,,,,,F,19,
1,5,16,7,7,1,['k'],['d'],N,N,None,Y,,,,,,,F,19,
1,6,17,8,8,1,['d'],['d'],Y,Y,['space'],Y,,,,,,,F,19,
1,7,18,0,0,1,['k'],['k'],Y,Y,None,N,,,,,,,F,19,
1,8,19,3,3,1,['k'],['k'],Y,Y,['space'],Y,,,,,,,F,19,
1,9,20,1,1,1,['k'],['k'],Y,Y,['space'],Y,,,,,,,F,19,
1,10,21,1,1,1,['d'],['d'],Y,N,None,Y,,,,,,,F,19,
2,0,22,7,7,1,['k'],['k'],Y,Y,['space'],Y,,,,,,,F,19,
2,1,23,3,3,1,['d'],['d'],Y,N,None,Y,,,,,,,F,19,
2,2,24,10,10,1,['k'],['k'],Y,N,None,Y,,,,,,,F,19,
2,3,25,8,8,1,['k'],['k'],Y,Y,None,N,,,,,,,F,19,
2,4,26,2,2,1,['d'],['d'],Y,N,['space'],N,,,,,,,F,19,
2,5,27,6,6,1,['k'],['k'],Y,Y,None,N,,,,,,,F,19,
2,6,28,7,7,1,['k'],['d'],N,N,None,Y,,,,,,,F,19,
2,7,29,2,2,1,['k'],['k'],Y,Y,['space'],Y,,,,,,,F,19,
2,8,30,1,1,1,['k'],['d'],N,Y,['space'],Y,,,,,,,F,19,
2,9,31,0,0,1,['k'],['k'],Y,N,None,Y,,,,,,,F,19,
2,10,32,9,9,1,['d'],['k'],N,Y,None,N,,,,,,,F,19,
3,0,33,4,4,1,['d'],['d'],Y,N,None,Y,,,,,,,F,19,
3,1,34,2,2,1,['k'],['k'],Y,N,None,Y,,,,,,,F,19,
3,2,35,7,7,1,['d'],['d'],Y,Y,None,N,,,,,,,F,19,
3,3,36,5,5,1,['k'],['k'],Y,Y,None,N,,,,,,,F,19,
3,4,37,0,0,1,['k'],['d'],N,N,['space'],N,,,,,,,F,19,
3,5,38,6,6,1,['k'],['k'],Y,N,None,Y,,,,,,,F,19,
3,6,39,7,7,1,['k'],['d'],N,Y,['space'],Y,,,,,,,F,19,
3,7,40,2,2,1,['k'],['k'],Y,Y,['space'],Y,,,,,,,F,19,
3,8,41,10,10,1,['k'],['k'],Y,N,None,Y,,,,,,,F,19,
3,9,42,10,10,1,['d'],['d'],Y,N,None,Y,,,,,,,F,19,
3,10,43,4,4,1,['k'],['k'],Y,N,None,Y,,,,,,,F,19,
4,0,44,4,4,1,['k'],['k'],Y,N,None,Y,,,,,,,F,19,
4,1,45,9,9,1,['k'],['k'],Y,Y,['space'],Y,,,,,,,F,19,
4,2,46,0,0,1,['k'],['k'],Y,Y,['space'],Y,,,,,,,F,19,
4,3,47,7,7,1,['d'],['d'],Y,N,None,Y,,,,,,,F,19,
4,4,48,7,7,1,['d'],['d'],Y,N,None,Y,,,,,,,F,19,
4,5,49,6,6,1,['d'],['d'],Y,N,None,Y,39,37,24,,,,F,19,
4,6,50,9,9,2,['d'],['d'],Y,,,,,,,,,,F,19,
4,7,51,2,2,2,['k'],['k'],Y,,,,,,,,,,F,19,
4,8,52,9,9,2,['k'],['k'],Y,Y,['space'],Y,,,,,,,F,19,
4,9,53,5,5,2,['k'],['k'],Y,Y,['space'],Y,,,,,,,F,19,
4,10,54,4,4,2,['d'],['d'],Y,Y,['space'],Y,,,,,,,F,19,
5,0,55,0,0,2,['k'],['k'],Y,Y,None,N,,,,,,,F,19,
5,1,56,10,10,2,['k'],['k'],Y,N,None,Y,,,,,,,F,19,
5,2,57,8,8,2,['d'],['k'],N,Y,['space'],Y,,,,,,,F,19,
5,3,58,7,7,2,['k'],['k'],Y,Y,['space'],Y,,,,,,,F,19,
5,4,59,3,3,2,['k'],['k'],Y,Y,['space'],Y,,,,,,,F,19,
5,5,60,5,5,2,['d'],['d'],Y,Y,['space'],Y,,,,,,,F,19,
5,6,61,10,10,2,['k'],['d'],N,Y,['space'],Y,,,,,,,F,19,
5,7,62,6,6,2,['k'],['k'],Y,N,None,Y,,,,,,,F,19,
5,8,63,1,1,2,['k'],['d'],N,N,None,Y,,,,,,,F,19,
5,9,64,6,6,2,['k'],['k'],Y,N,['space'],N,,,,,,,F,19,
5,10,65,3,3,2,['k'],['k'],Y,N,None,Y,,,,,,,F,19,
6,0,66,3,3,2,['d'],['d'],Y,N,None,Y,,,,,,,F,19,
6,1,67,4,4,2,['d'],['d'],Y,Y,['space'],Y,,,,,,,F,19,
6,2,68,3,3,2,['k'],['d'],N,N,None,Y,,,,,,,F,19,
6,3,69,3,3,2,['d'],['d'],Y,N,['space'],N,,,,,,,F,19,
6,4,70,0,0,2,['k'],['k'],Y,Y,['space'],Y,,,,,,,F,19,
6,5,71,10,10,2,['d'],['d'],Y,N,None,Y,,,,,,,F,19,
6,6,72,2,2,2,['k'],['d'],N,N,None,Y,,,,,,,F,19,
6,7,73,5,5,2,['k'],['k'],Y,N,None,Y,,,,,,,F,19,
6,8,74,10,10,2,['k'],['k'],Y,Y,['space'],Y,,,,,,,F,19,
6,9,75,3,3,2,['k'],['k'],Y,N,None,Y,,,,,,,F,19,
6,10,76,9,9,2,['d'],['d'],Y,Y,None,N,,,,,,,F,19,
7,0,77,5,5,2,['d'],['d'],Y,Y,['space'],Y,,,,,,,F,19,
7,1,78,4,4,2,['d'],['d'],Y,Y,['k'],N,,,,,,,F,19,
7,2,79,4,4,2,['k'],['k'],Y,N,None,Y,,,,,,,F,19,
7,3,80,1,1,2,['k'],['k'],Y,N,None,Y,,,,,,,F,19,
7,4,81,10,10,2,['d'],['d'],Y,Y,None,N,,,,,,,F,19,
7,5,82,3,3,2,['d'],['d'],Y,Y,['space'],Y,,,,,,,F,19,
7,6,83,10,10,2,['k'],['k'],Y,Y,['space'],Y,,,,,,,F,19,
7,7,84,2,2,2,['d'],['d'],Y,Y,['space'],Y,,,,,,,F,19,
7,8,85,7,7,2,['k'],['k'],Y,Y,['space'],Y,,,,,,,F,19,
7,9,86,9,9,2,['d'],['d'],Y,N,None,Y,,,,,,,F,19,
7,10,87,1,1,2,['d'],['d'],Y,Y,['space'],Y,,,,,,,F,19,
8,0,88,8,8,2,['d'],['d'],Y,N,None,Y,,,,,,,F,19,
8,1,89,0,0,2,['d'],['d'],Y,Y,['space'],Y,,,,,,,F,19,
8,2,90,10,10,2,['d'],['d'],Y,N,None,Y,,,,,,,F,19,
8,3,91,1,1,2,['k'],['k'],Y,N,None,Y,,,,,,,F,19,
8,4,92,9,9,2,['k'],['k'],Y,N,None,Y,,,,,,,F,19,
8,5,93,7,7,2,['d'],['d'],Y,N,None,Y,,,,,,,F,19,
8,6,94,10,10,2,['k'],['k'],Y,Y,['space'],Y,,,,,,,F,19,
8,7,95,10,10,2,['d'],['d'],Y,Y,['space'],Y,,,,,,,F,19,
8,8,96,2,2,2,['k'],['k'],Y,N,None,Y,,,,,,,F,19,
8,9,97,4,4,2,['k'],['k'],Y,Y,None,N,,,,,,,F,19,
8,10,98,7,7,2,['d'],['k'],N,N,['space'],N,,,,,,,F,19,
9,0,99,7,7,2,['k'],['k'],Y,N,None,Y,44,40,25,,,,F,19,
9,1,100,5,5,3,['k'],['k'],Y,,,,,,,,,,F,19,
9,2,101,6,6,3,['k'],['d'],N,,,,,,,,,,F,19,
9,3,102,6,6,3,['k'],['d'],N,N,None,Y,,,,,,,F,19,
9,4,103,1,1,3,['d'],['d'],Y,Y,['space'],Y,,,,,,,F,19,
9,5,104,6,6,3,['k'],['k'],Y,N,None,Y,,,,,,,F,19,
9,6,105,0,0,3,['k'],['d'],N,N,None,Y,,,,,,,F,19,
9,7,106,2,2,3,['d'],['d'],Y,N,None,Y,,,,,,,F,19,
9,8,107,7,7,3,['k'],['k'],Y,Y,['space'],Y,,,,,,,F,19,
9,9,108,10,10,3,['k'],['k'],Y,N,None,Y,,,,,,,F,19,
9,10,109,6,6,3,['d'],['d'],Y,Y,['space'],Y,,,,,,,F,19,
10,0,110,6,6,3,['d'],['k'],N,Y,None,N,,,,,,,F,19,
10,1,111,6,6,3,['k'],['k'],Y,Y,['space'],Y,,,,,,,F,19,
10,2,112,9,9,3,['d'],['d'],Y,N,None,Y,,,,,,,F,19,
10,3,113,7,7,3,['d'],['k'],N,Y,['space'],Y,,,,,,,F,19,
10,4,114,10,10,3,['d'],['d'],Y,N,None,Y,,,,,,,F,19,
10,5,115,7,7,3,['k'],['k'],Y,Y,None,N,,,,,,,F,19,
10,6,116,5,5,3,['k'],['d'],N,N,None,Y,,,,,,,F,19,
10,7,117,10,10,3,['d'],['d'],Y,N,['space'],N,,,,,,,F,19,
10,8,118,4,4,3,['k'],['k'],Y,Y,['space'],Y,,,,,,,F,19,
10,9,119,1,1,3,['k'],['k'],Y,N,None,Y,,,,,,,F,19,
10,10,120,8,8,3,['d'],['k'],N,Y,None,N,,,,,,,F,19,
11,0,121,6,6,3,['k'],['k'],Y,N,None,Y,,,,,,,F,19,
11,1,122,3,3,3,['d'],['d'],Y,N,None,Y,,,,,,,F,19,
11,2,123,2,2,3,['k'],['k'],Y,N,None,Y,,,,,,,F,19,
11,3,124,3,3,3,['d'],['d'],Y,N,None,Y,,,,,,,F,19,
11,4,125,6,6,3,['k'],['k'],Y,N,None,Y,,,,,,,F,19,
11,5,126,7,7,3,['d'],['d'],Y,N,None,Y,,,,,,,F,19,
11,6,127,2,2,3,['d'],['d'],Y,Y,['space'],Y,,,,,,,F,19,
11,7,128,10,10,3,['d'],['d'],Y,N,None,Y,,,,,,,F,19,
11,8,129,10,10,3,['k'],['d'],N,Y,['space'],Y,,,,,,,F,19,
11,9,130,7,7,3,['k'],['k'],Y,Y,['space'],Y,,,,,,,F,19,
11,10,131,9,9,3,['k'],['d'],N,N,None,Y,,,,,,,F,19,
12,0,132,4,4,3,['k'],['k'],Y,Y,['space'],Y,,,,,,,F,19,
12,1,133,5,5,3,['d'],['d'],Y,Y,['space'],Y,,,,,,,F,19,
12,2,134,2,2,3,['k'],['k'],Y,Y,['space'],Y,,,,,,,F,19,
12,3,135,9,9,3,['d'],['d'],Y,Y,['space'],Y,,,,,,,F,19,
12,4,136,6,6,3,['d'],['d'],Y,Y,['space'],Y,,,,,,,F,19,
12,5,137,9,9,3,['d'],['d'],Y,Y,['space'],Y,,,,,,,F,19,
12,6,138,4,4,3,['k'],['k'],Y,Y,['space'],Y,,,,,,,F,19,
12,7,139,2,2,3,['k'],['k'],Y,Y,['space'],Y,,,,,,,F,19,
12,8,140,3,3,3,['k'],['k'],Y,Y,['space'],Y,,,,,,,F,19,
12,9,141,9,9,3,['d'],['d'],Y,Y,['space'],Y,,,,,,,F,19,
12,10,142,10,10,3,['d'],['k'],N,Y,['space'],Y,,,,,,,F,19,
13,0,143,4,4,3,['k'],['k'],Y,Y,['space'],Y,,,,,,,F,19,
13,1,144,8,8,3,['d'],['d'],Y,Y,['space'],Y,,,,,,,F,19,
13,2,145,5,5,3,['k'],['d'],N,N,None,Y,,,,,,,F,19,
13,3,146,4,4,3,['d'],['k'],N,N,None,Y,,,,,,,F,19,
13,4,147,0,0,3,['k'],['k'],Y,N,None,Y,,,,,,,F,19,
13,5,148,2,2,3,['d'],['d'],Y,N,None,Y,,,,,,,F,19,
13,6,149,8,8,3,['d'],['d'],Y,N,None,Y,38,44,25,,,,F,19,
13,7,150,0,0,4,['k'],['d'],N,,,,,,,,,,F,19,
13,8,151,7,7,4,['d'],['d'],Y,,,,,,,,,,F,19,
13,9,152,5,5,4,['k'],['k'],Y,N,None,Y,,,,,,,F,19,
13,10,153,9,9,4,['d'],['d'],Y,Y,['space'],Y,,,,,,,F,19,
14,0,154,1,1,4,['d'],['d'],Y,N,None,Y,,,,,,,F,19,
14,1,155,6,6,4,['k'],['k'],Y,Y,['space'],Y,,,,,,,F,19,
14,2,156,6,6,4,['d'],['k'],N,N,None,Y,,,,,,,F,19,
14,3,157,0,0,4,['k'],['k'],Y,N,None,Y,,,,,,,F,19,
14,4,158,3,3,4,['k'],['k'],Y,Y,['space'],Y,,,,,,,F,19,
14,5,159,9,9,4,['d'],['d'],Y,Y,['space'],Y,,,,,,,F,19,
14,6,160,9,9,4,['k'],['k'],Y,N,None,Y,,,,,,,F,19,
14,7,161,5,5,4,['k'],['k'],Y,N,None,Y,,,,,,,F,19,
14,8,162,5,5,4,['d'],['d'],Y,N,['space'],N,,,,,,,F,19,
14,9,163,0,0,4,['d'],['d'],Y,N,None,Y,,,,,,,F,19,
14,10,164,6,6,4,['k'],['k'],Y,Y,['space'],Y,,,,,,,F,19,
15,0,165,4,4,4,['k'],['k'],Y,Y,['space'],Y,,,,,,,F,19,
15,1,166,0,0,4,['d'],['k'],N,N,['space'],N,,,,,,,F,19,
15,2,167,1,1,4,['d'],['d'],Y,N,None,Y,,,,,,,F,19,
15,3,168,8,8,4,['k'],['k'],Y,N,None,Y,,,,,,,F,19,
15,4,169,2,2,4,['d'],['d'],Y,Y,['space'],Y,,,,,,,F,19,
15,5,170,4,4,4,['d'],['d'],Y,N,None,Y,,,,,,,F,19,
15,6,171,2,2,4,['k'],['k'],Y,Y,['space'],Y,,,,,,,F,19,
15,7,172,8,8,4,['k'],['k'],Y,Y,['space'],Y,,,,,,,F,19,
15,8,173,2,2,4,['k'],['k'],Y,N,None,Y,,,,,,,F,19,
15,9,174,5,5,4,['k'],['k'],Y,N,None,Y,,,,,,,F,19,
15,10,175,8,8,4,['d'],['d'],Y,N,None,Y,,,,,,,F,19,
16,0,176,9,9,4,['d'],['d'],Y,N,None,Y,,,,,,,F,19,
16,1,177,3,3,4,['k'],['d'],N,N,None,Y,,,,,,,F,19,
16,2,178,4,4,4,['d'],['d'],Y,N,None,Y,,,,,,,F,19,
16,3,179,0,0,4,['k'],['k'],Y,N,None,Y,,,,,,,F,19,
16,4,180,10,10,4,['k'],['k'],Y,N,None,Y,,,,,,,F,19,
16,5,181,8,8,4,['d'],['d'],Y,Y,None,N,,,,,,,F,19,
16,6,182,7,7,4,['d'],['d'],Y,Y,None,N,,,,,,,F,19,
16,7,183,6,6,4,['k'],['d'],N,Y,None,N,,,,,,,F,19,
16,8,184,8,8,4,['d'],['d'],Y,N,None,Y,,,,,,,F,19,
16,9,185,1,1,4,['d'],['d'],Y,Y,['space'],Y,,,,,,,F,19,
16,10,186,5,5,4,['k'],['k'],Y,N,None,Y,,,,,,,F,19,
17,0,187,5,5,4,['k'],['k'],Y,Y,['space'],Y,,,,,,,F,19,
17,1,188,0,0,4,['k'],['d'],N,N,['space'],N,,,,,,,F,19,
17,2,189,9,9,4,['d'],['d'],Y,Y,['space'],Y,,,,,,,F,19,
17,3,190,1,1,4,['k'],['k'],Y,Y,['space'],Y,,,,,,,F,19,
17,4,191,10,10,4,['k'],['k'],Y,N,None,Y,,,,,,,F,19,
17,5,192,10,10,4,['d'],['d'],Y,N,None,Y,,,,,,,F,19,
17,6,193,4,4,4,['k'],['k'],Y,N,None,Y,,,,,,,F,19,
17,7,194,0,0,4,['d'],['d'],Y,N,None,Y,,,,,,,F,19,
17,8,195,4,4,4,['k'],['k'],Y,Y,['space'],Y,,,,,,,F,19,
17,9,196,3,3,4,['k'],['k'],Y,Y,['space'],Y,,,,,,,F,19,
17,10,197,7,7,4,['k'],['k'],Y,Y,['space'],Y,,,,,,,F,19,
18,0,198,9,9,4,['k'],['k'],Y,N,None,Y,,,,,,,F,19,
18,1,199,5,5,4,['k'],['k'],Y,Y,['space'],Y,44,42,20,,,,F,19,
18,2,200,8,8,5,['k'],['k'],Y,,,,,,,,,,F,19,
18,3,201,5,5,5,['d'],['d'],Y,,,,,,,,,,F,19,
18,4,202,3,3,5,['k'],['k'],Y,Y,['space'],Y,,,,,,,F,19,
18,5,203,5,5,5,['k'],['k'],Y,Y,['space'],Y,,,,,,,F,19,
18,6,204,3,3,5,['k'],['k'],Y,N,None,Y,,,,,,,F,19,
18,7,205,8,8,5,['d'],['d'],Y,Y,['space'],Y,,,,,,,F,19,
18,8,206,4,4,5,['d'],['k'],N,N,None,Y,,,,,,,F,19,
18,9,207,2,2,5,['d'],['d'],Y,Y,None,N,,,,,,,F,19,
18,10,208,4,4,5,['k'],['d'],N,N,None,Y,,,,,,,F,19,
19,0,209,8,8,5,['d'],['d'],Y,N,None,Y,,,,,,,F,19,
19,1,210,4,4,5,['k'],['k'],Y,Y,['space'],Y,,,,,,,F,19,
19,2,211,6,6,5,['k'],['k'],Y,Y,None,N,,,,,,,F,19,
19,3,212,9,9,5,['k'],['d'],N,Y,['space'],Y,,,,,,,F,19,
19,4,213,10,10,5,['d'],['d'],Y,N,None,Y,,,,,,,F,19,
19,5,214,7,7,5,['d'],['d'],Y,Y,None,N,,,,,,,F,19,
19,6,215,4,4,5,['k'],['k'],Y,N,None,Y,,,,,,,F,19,
19,7,216,3,3,5,['d'],['k'],N,Y,['space'],Y,,,,,,,F,19,
19,8,217,6,6,5,['k'],['d'],N,Y,None,N,,,,,,,F,19,
19,9,218,7,7,5,['d'],['d'],Y,N,None,Y,,,,,,,F,19,
19,10,219,3,3,5,['d'],['d'],Y,N,None,Y,,,,,,,F,19,
20,0,220,4,4,5,['d'],['d'],Y,N,None,Y,,,,,,,F,19,
20,1,221,7,7,5,['k'],['d'],N,Y,['space'],Y,,,,,,,F,19,
20,2,222,0,0,5,['k'],['d'],N,N,None,Y,,,,,,,F,19,
20,3,223,8,8,5,['d'],['d'],Y,N,None,Y,,,,,,,F,19,
20,4,224,1,1,5,['k'],['k'],Y,N,None,Y,,,,,,,F,19,
20,5,225,10,10,5,['d'],['d'],Y,N,None,Y,,,,,,,F,19,
20,6,226,3,3,5,['k'],['k'],Y,Y,['k'],N,,,,,,,F,19,
20,7,227,10,10,5,['k'],['k'],Y,N,None,Y,,,,,,,F,19,
20,8,228,3,3,5,['k'],['k'],Y,N,None,Y,,,,,,,F,19,
20,9,229,2,2,5,['k'],['k'],Y,Y,['space'],Y,,,,,,,F,19,
20,10,230,9,9,5,['k'],['k'],Y,N,None,Y,,,,,,,F,19,
21,0,231,7,7,5,['k'],['d'],N,N,None,Y,,,,,,,F,19,
21,1,232,0,0,5,['d'],['d'],Y,Y,['space'],Y,,,,,,,F,19,
21,2,233,10,10,5,['k'],['k'],Y,N,None,Y,,,,,,,F,19,
21,3,234,10,10,5,['k'],['k'],Y,N,['space'],N,,,,,,,F,19,
21,4,235,5,5,5,['d'],['d'],Y,Y,['space'],Y,,,,,,,F,19,
21,5,236,1,1,5,['k'],['k'],Y,Y,['space'],Y,,,,,,,F,19,
21,6,237,8,8,5,['d'],['d'],Y,Y,['space'],Y,,,,,,,F,19,
21,7,238,6,6,5,['k'],['d'],N,N,None,Y,,,,,,,F,19,
21,8,239,9,9,5,['k'],['k'],Y,Y,['space'],Y,,,,,,,F,19,
21,9,240,4,4,5,['k'],['k'],Y,Y,['space'],Y,,,,,,,F,19,
21,10,241,0,0,5,['d'],['d'],Y,N,None,Y,,,,,,,F,19,
22,0,242,4,4,5,['d'],['d'],Y,N,None,Y,,,,,,,F,19,
22,1,243,8,8,5,['k'],['k'],Y,N,None,Y,,,,,,,F,19,
22,2,244,2,2,5,['d'],['d'],Y,N,None,Y,,,,,,,F,19,
22,3,245,2,2,5,['d'],['d'],Y,Y,None,N,,,,,,,F,19,
22,4,246,3,3,5,['k'],['k'],Y,Y,['space'],Y,,,,,,,F,19,
22,5,247,9,9,5,['k'],['d'],N,Y,['space'],Y,,,,,,,F,19,
22,6,248,1,1,5,['d'],['d'],Y,Y,['space'],Y,,,,,,,F,19,
22,7,249,10,10,5,['k'],['k'],Y,N,None,Y,40,41,23,,,,F,19,
22,8,250,6,6,6,['d'],['d'],Y,,,,,,,,,,F,19,
22,9,251,6,6,6,['d'],['d'],Y,,,,,,,,,,F,19,
22,10,252,8,8,6,['d'],['d'],Y,Y,['space'],Y,,,,,,,F,19,
23,0,253,0,0,6,['d'],['d'],Y,Y,None,N,,,,,,,F,19,
23,1,254,10,10,6,['k'],['k'],Y,Y,['space'],Y,,,,,,,F,19,
23,2,255,6,6,6,['d'],['d'],Y,Y,['space'],Y,,,,,,,F,19,
23,3,256,7,7,6,['k'],['k'],Y,N,None,Y,,,,,,,F,19,
23,4,257,0,0,6,['d'],['d'],Y,N,None,Y,,,,,,,F,19,
23,5,258,9,9,6,['d'],['d'],Y,Y,['space'],Y,,,,,,,F,19,
23,6,259,4,4,6,['k'],['k'],Y,N,None,Y,,,,,,,F,19,
23,7,260,7,7,6,['d'],['k'],N,Y,['space'],Y,,,,,,,F,19,
23,8,261,10,10,6,['d'],['d'],Y,N,None,Y,,,,,,,F,19,
23,9,262,5,5,6,['d'],['d'],Y,Y,['space'],Y,,,,,,,F,19,
23,10,263,4,4,6,['d'],['d'],Y,Y,None,N,,,,,,,F,19,
24,0,264,6,6,6,['k'],['k'],Y,N,None,Y,,,,,,,F,19,
24,1,265,0,0,6,['d'],['d'],Y,N,None,Y,,,,,,,F,19,
24,2,266,8,8,6,['k'],['d'],N,Y,['space'],Y,,,,,,,F,19,
24,3,267,0,0,6,['d'],['d'],Y,N,None,Y,,,,,,,F,19,
24,4,268,8,8,6,['d'],['d'],Y,Y,None,N,,,,,,,F,19,
24,5,269,3,3,6,['d'],['d'],Y,N,None,Y,,,,,,,F,19,
24,6,270,8,8,6,['d'],['d'],Y,Y,['space'],Y,,,,,,,F,19,
24,7,271,7,7,6,['k'],['d'],N,Y,['space'],Y,,,,,,,F,19,
24,8,272,4,4,6,['k'],['k'],Y,Y,['space'],Y,,,,,,,F,19,
24,9,273,2,2,6,['d'],['k'],N,Y,['space'],Y,,,,,,,F,19,
24,10,274,6,6,6,['k'],['k'],Y,N,None,Y,,,,,,,F,19,
25,0,275,0,0,6,['d'],['d'],Y,N,None,Y,,,,,,,F,19,
25,1,276,7,7,6,['k'],['k'],Y,Y,['space'],Y,,,,,,,F,19,
25,2,277,6,6,6,['k'],['k'],Y,N,None,Y,,,,,,,F,19,
25,3,278,5,5,6,['d'],['d'],Y,N,None,Y,,,,,,,F,19,
25,4,279,3,3,6,['d'],['d'],Y,Y,['space'],Y,,,,,,,F,19,
25,5,280,1,1,6,['k'],['k'],Y,Y,['space'],Y,,,,,,,F,19,
25,6,281,0,0,6,['d'],['d'],Y,Y,['space'],Y,,,,,,,F,19,
25,7,282,2,2,6,['k'],['k'],Y,N,None,Y,,,,,,,F,19,
25,8,283,2,2,6,['k'],['k'],Y,N,None,Y,,,,,,,F,19,
25,9,284,8,8,6,['d'],['d'],Y,Y,['space'],Y,,,,,,,F,19,
25,10,285,8,8,6,['k'],['k'],Y,N,None,Y,,,,,,,F,19,
26,0,286,7,7,6,['k'],['d'],N,N,None,Y,,,,,,,F,19,
26,1,287,3,3,6,['d'],['d'],Y,Y,['space'],Y,,,,,,,F,19,
26,2,288,8,8,6,['k'],['k'],Y,N,None,Y,,,,,,,F,19,
26,3,289,2,2,6,['d'],['d'],Y,Y,['space'],Y,,,,,,,F,19,
26,4,290,7,7,6,['d'],['d'],Y,Y,['space'],Y,,,,,,,F,19,
26,5,291,3,3,6,['d'],['d'],Y,N,None,Y,,,,,,,F,19,
26,6,292,3,3,6,['k'],['k'],Y,Y,['space'],Y,,,,,,,F,19,
26,7,293,6,6,6,['k'],['k'],Y,N,None,Y,,,,,,,F,19,
26,8,294,7,7,6,['k'],['k'],Y,N,None,Y,,,,,,,F,19,
26,9,295,9,9,6,['k'],['d'],N,N,None,Y,,,,,,,F,19,
26,10,296,1,1,6,['k'],['d'],N,Y,['space'],Y,,,,,,,F,19,
27,0,297,3,3,6,['k'],['k'],Y,Y,['space'],Y,,,,,,,F,19,
27,1,298,4,4,6,['d'],['d'],Y,N,None,Y,,,,,,,F,19,
27,2,299,0,0,6,['k'],['d'],N,N,None,Y,42,45,25,,,,F,19,
27,3,300,2,2,7,['k'],['d'],N,,,,,,,,,,F,19,
27,4,301,8,8,7,['d'],['d'],Y,,,,,,,,,,F,19,
27,5,302,9,9,7,['k'],['k'],Y,Y,['space'],Y,,,,,,,F,19,
27,6,303,5,5,7,['k'],['k'],Y,Y,['space'],Y,,,,,,,F,19,
27,7,304,0,0,7,['k'],['k'],Y,N,None,Y,,,,,,,F,19,
27,8,305,3,3,7,['d'],['d'],Y,N,None,Y,,,,,,,F,19,
27,9,306,6,6,7,['d'],['d'],Y,Y,['space'],Y,,,,,,,F,19,
27,10,307,2,2,7,['d'],['d'],Y,N,None,Y,,,,,,,F,19,
28,0,308,2,2,7,['d'],['d'],Y,Y,['space'],Y,,,,,,,F,19,
28,1,309,5,5,7,['k'],['d'],N,N,None,Y,,,,,,,F,19,
28,2,310,8,8,7,['k'],['k'],Y,Y,['space'],Y,,,,,,,F,19,
28,3,311,0,0,7,['d'],['d'],Y,Y,None,N,,,,,,,F,19,
28,4,312,0,0,7,['d'],['k'],N,Y,['space'],Y,,,,,,,F,19,
28,5,313,6,6,7,['d'],['k'],N,N,None,Y,,,,,,,F,19,
28,6,314,0,0,7,['k'],['d'],N,Y,['space'],Y,,,,,,,F,19,
28,7,315,1,1,7,['d'],['d'],Y,N,None,Y,,,,,,,F,19,
28,8,316,1,1,7,['k'],['k'],Y,Y,['space'],Y,,,,,,,F,19,
28,9,317,1,1,7,['d'],['d'],Y,N,None,Y,,,,,,,F,19,
28,10,318,4,4,7,['k'],['k'],Y,N,None,Y,,,,,,,F,19,
29,0,319,2,2,7,['d'],['d'],Y,N,None,Y,,,,,,,F,19,
29,1,320,2,2,7,['k'],['k'],Y,Y,['space'],Y,,,,,,,F,19,
29,2,321,8,8,7,['k'],['k'],Y,N,None,Y,,,,,,,F,19,
29,3,322,10,10,7,['k'],['k'],Y,Y,['space'],Y,,,,,,,F,19,
29,4,323,7,7,7,['d'],['d'],Y,Y,None,N,,,,,,,F,19,
29,5,324,4,4,7,['k'],['k'],Y,N,None,Y,,,,,,,F,19,
29,6,325,5,5,7,['d'],['d'],Y,Y,['space'],Y,,,,,,,F,19,
29,7,326,9,9,7,['k'],['d'],N,N,None,Y,,,,,,,F,19,
29,8,327,2,2,7,['k'],['k'],Y,Y,['space'],Y,,,,,,,F,19,
29,9,328,10,10,7,['d'],['d'],Y,N,None,Y,,,,,,,F,19,
29,10,329,1,1,7,['k'],['k'],Y,Y,['space'],Y,,,,,,,F,19,
30,0,330,4,4,7,['d'],['k'],N,Y,['space'],Y,,,,,,,F,19,
30,1,331,3,3,7,['k'],['k'],Y,N,None,Y,,,,,,,F,19,
30,2,332,3,3,7,['k'],['k'],Y,N,['k'],N,,,,,,,F,19,
30,3,333,2,2,7,['k'],['k'],Y,N,['space'],N,,,,,,,F,19,
30,4,334,4,4,7,['d'],['k'],N,N,None,Y,,,,,,,F,19,
30,5,335,1,1,7,['d'],['d'],Y,Y,['space'],Y,,,,,,,F,19,
30,6,336,10,10,7,['k'],['k'],Y,Y,['space'],Y,,,,,,,F,19,
30,7,337,1,1,7,['k'],['k'],Y,Y,['space'],Y,,,,,,,F,19,
30,8,338,2,2,7,['k'],['k'],Y,Y,['space'],Y,,,,,,,F,19,
30,9,339,7,7,7,['d'],['d'],Y,N,None,Y,,,,,,,F,19,
30,10,340,4,4,7,['k'],['k'],Y,Y,None,N,,,,,,,F,19,
31,0,341,6,6,7,['d'],['d'],Y,N,None,Y,,,,,,,F,19,
31,1,342,1,1,7,['d'],['d'],Y,Y,['space'],Y,,,,,,,F,19,
31,2,343,2,2,7,['k'],['d'],N,Y,None,N,,,,,,,F,19,
31,3,344,1,1,7,['k'],['k'],Y,N,['space'],N,,,,,,,F,19,
31,4,345,5,5,7,['d'],['d'],Y,N,None,Y,,,,,,,F,19,
31,5,346,3,3,7,['d'],['d'],Y,Y,['space'],Y,,,,,,,F,19,
31,6,347,10,10,7,['k'],['k'],Y,Y,['space'],Y,,,,,,,F,19,
31,7,348,2,2,7,['k'],['d'],N,N,None,Y,,,,,,,F,19,
31,8,349,4,4,7,['d'],['d'],Y,N,None,Y,40,41,25,,,,F,19,
31,9,350,1,1,8,['d'],['d'],Y,,,,,,,,,,F,19,
31,10,351,3,3,8,['d'],['k'],N,,,,,,,,,,F,19,
32,0,352,7,7,8,['k'],['k'],Y,Y,None,N,,,,,,,F,19,
32,1,353,3,3,8,['d'],['k'],N,N,None,Y,,,,,,,F,19,
32,2,354,7,7,8,['k'],['k'],Y,N,None,Y,,,,,,,F,19,
32,3,355,7,7,8,['k'],['k'],Y,Y,None,N,,,,,,,F,19,
32,4,356,4,4,8,['d'],['d'],Y,Y,['space'],Y,,,,,,,F,19,
32,5,357,6,6,8,['k'],['k'],Y,N,None,Y,,,,,,,F,19,
32,6,358,7,7,8,['d'],['d'],Y,N,None,Y,,,,,,,F,19,
32,7,359,0,0,8,['k'],['k'],Y,N,None,Y,,,,,,,F,19,
32,8,360,4,4,8,['k'],['k'],Y,Y,['space'],Y,,,,,,,F,19,
32,9,361,1,1,8,['k'],['k'],Y,Y,['space'],Y,,,,,,,F,19,
32,10,362,8,8,8,['d'],['d'],Y,N,None,Y,,,,,,,F,19,
33,0,363,2,2,8,['k'],['k'],Y,Y,None,N,,,,,,,F,19,
33,1,364,6,6,8,['k'],['k'],Y,Y,None,N,,,,,,,F,19,
33,2,365,10,10,8,['k'],['k'],Y,Y,['d'],N,,,,,,,F,19,
33,3,366,5,5,8,['d'],['d'],Y,Y,['space'],Y,,,,,,,F,19,
33,4,367,4,4,8,['k'],['k'],Y,N,None,Y,,,,,,,F,19,
33,5,368,3,3,8,['d'],['d'],Y,N,None,Y,,,,,,,F,19,
33,6,369,0,0,8,['d'],['d'],Y,Y,['space'],Y,,,,,,,F,19,
33,7,370,3,3,8,['k'],['k'],Y,N,None,Y,,,,,,,F,19,
33,8,371,1,1,8,['k'],['k'],Y,N,None,Y,,,,,,,F,19,
33,9,372,1,1,8,['k'],['d'],N,N,['space'],N,,,,,,,F,19,
33,10,373,6,6,8,['d'],['d'],Y,Y,['space'],Y,,,,,,,F,19,
34,0,374,0,0,8,['d'],['d'],Y,Y,['space'],Y,,,,,,,F,19,
34,1,375,6,6,8,['k'],['k'],Y,N,None,Y,,,,,,,F,19,
34,2,376,5,5,8,['d'],['d'],Y,N,None,Y,,,,,,,F,19,
34,3,377,9,9,8,['k'],['k'],Y,N,None,Y,,,,,,,F,19,
34,4,378,9,9,8,['d'],['d'],Y,Y,['space'],Y,,,,,,,F,19,
34,5,379,9,9,8,['k'],['k'],Y,N,None,Y,,,,,,,F,19,
34,6,380,4,4,8,['k'],['d'],N,Y,None,N,,,,,,,F,19,
34,7,381,2,2,8,['k'],['k'],Y,Y,None,N,,,,,,,F,19,
34,8,382,1,1,8,['d'],['d'],Y,N,None,Y,,,,,,,F,19,
34,9,383,1,1,8,['k'],['k'],Y,Y,['space'],Y,,,,,,,F,19,
34,10,384,4,4,8,['d'],['d'],Y,Y,None,N,,,,,,,F,19,
35,0,385,10,10,8,['k'],['d'],N,Y,['space'],Y,,,,,,,F,19,
35,1,386,2,2,8,['d'],['d'],Y,Y,['space'],Y,,,,,,,F,19,
35,2,387,5,5,8,['k'],['d'],N,Y,['space'],Y,,,,,,,F,19,
35,3,388,7,7,8,['d'],['d'],Y,N,None,Y,,,,,,,F,19,
35,4,389,6,6,8,['k'],['k'],Y,Y,['space'],Y,,,,,,,F,19,
35,5,390,2,2,8,['d'],['k'],N,N,['space'],N,,,,,,,F,19,
35,6,391,0,0,8,['k'],['d'],N,Y,['space'],Y,,,,,,,F,19,
35,7,392,10,10,8,['k'],['k'],Y,Y,['space'],Y,,,,,,,F,19,
35,8,393,0,0,8,['d'],['d'],Y,N,None,Y,,,,,,,F,19,
35,9,394,3,3,8,['d'],['d'],Y,N,None,Y,,,,,,,F,19,
35,10,395,6,6,8,['k'],['d'],N,N,None,Y,,,,,,,F,19,
36,0,396,2,2,8,['d'],['d'],Y,Y,['space'],Y,,,,,,,F,19,
36,1,397,2,2,8,['d'],['d'],Y,Y,['space'],Y,,,,,,,F,19,
36,2,398,7,7,8,['k'],['k'],Y,N,None,Y,,,,,,,F,19,
36,3,399,9,9,8,['k'],['k'],Y,N,None,Y,41,38,25,,,,F,19,
36,4,400,8,8,9,['d'],['d'],Y,,,,,,,,,,F,19,
36,5,401,10,10,9,['d'],['d'],Y,,,,,,,,,,F,19,
36,6,402,2,2,9,['k'],['k'],Y,Y,None,N,,,,,,,F,19,
36,7,403,2,2,9,['d'],['d'],Y,N,None,Y,,,,,,,F,19,
36,8,404,6,6,9,['d'],['d'],Y,N,None,Y,,,,,,,F,19,
36,9,405,1,1,9,['d'],['d'],Y,Y,['space'],Y,,,,,,,F,19,
36,10,406,5,5,9,['k'],['k'],Y,Y,['space'],Y,,,,,,,F,19,
37,0,407,1,1,9,['d'],['d'],Y,N,None,Y,,,,,,,F,19,
37,1,408,7,7,9,['d'],['d'],Y,N,None,Y,,,,,,,F,19,
37,2,409,4,4,9,['k'],['k'],Y,Y,None,N,,,,,,,F,19,
37,3,410,9,9,9,['k'],['k'],Y,Y,['space'],Y,,,,,,,F,19,
37,4,411,0,0,9,['d'],['d'],Y,N,None,Y,,,,,,,F,19,
37,5,412,4,4,9,['k'],['k'],Y,N,None,Y,,,,,,,F,19,
37,6,413,3,3,9,['d'],['k'],N,Y,['space'],Y,,,,,,,F,19,
37,7,414,6,6,9,['d'],['d'],Y,N,None,Y,,,,,,,F,19,
37,8,415,0,0,9,['d'],['d'],Y,N,None,Y,,,,,,,F,19,
37,9,416,3,3,9,['k'],['k'],Y,N,None,Y,,,,,,,F,19,
37,10,417,2,2,9,['k'],['k'],Y,N,None,Y,,,,,,,F,19,
38,0,418,5,5,9,['d'],['d'],Y,N,None,Y,,,,,,,F,19,
38,1,419,5,5,9,['k'],['d'],N,N,None,Y,,,,,,,F,19,
38,2,420,6,6,9,['k'],['k'],Y,N,None,Y,,,,,,,F,19,
38,3,421,4,4,9,['k'],['d'],N,N,None,Y,,,,,,,F,19,
38,4,422,1,1,9,['k'],['k'],Y,N,None,Y,,,,,,,F,19,
38,5,423,7,7,9,['k'],['k'],Y,Y,['space'],Y,,,,,,,F,19,
38,6,424,1,1,9,['d'],['d'],Y,Y,['space'],Y,,,,,,,F,19,
38,7,425,2,2,9,['k'],['k'],Y,N,None,Y,,,,,,,F,19,
38,8,426,4,4,9,['d'],['d'],Y,N,['space'],N,,,,,,,F,19,
38,9,427,5,5,9,['d'],['d'],Y,N,['k'],N,,,,,,,F,19,
38,10,428,0,0,9,['k'],['k'],Y,Y,['space'],Y,,,,,,,F,19,
39,0,429,4,4,9,['k'],['k'],Y,N,None,Y,,,,,,,F,19,
39,1,430,9,9,9,['d'],['k'],N,Y,['space'],Y,,,,,,,F,19,
39,2,431,10,10,9,['k'],['k'],Y,Y,['space'],Y,,,,,,,F,19,
39,3,432,5,5,9,['d'],['k'],N,N,None,Y,,,,,,,F,19,
39,4,433,1,1,9,['k'],['k'],Y,Y,['space'],Y,,,,,,,F,19,
39,5,434,8,8,9,['d'],['d'],Y,Y,['space'],Y,,,,,,,F,19,
39,6,435,6,6,9,['d'],['d'],Y,Y,['space'],Y,,,,,,,F,19,
39,7,436,3,3,9,['d'],['d'],Y,Y,['space'],Y,,,,,,,F,19,
39,8,437,10,10,9,['k'],['k'],Y,Y,['space'],Y,,,,,,,F,19,
39,9,438,2,2,9,['d'],['d'],Y,Y,['space'],Y,,,,,,,F,19,
39,10,439,5,5,9,['d'],['d'],Y,Y,['k'],N,,,,,,,F,19,
40,0,440,10,10,9,['k'],['k'],Y,Y,['space'],Y,,,,,,,F,19,
40,1,441,5,5,9,['k'],['k'],Y,Y,['space'],Y,,,,,,,F,19,
40,2,442,9,9,9,['d'],['d'],Y,N,None,Y,,,,,,,F,19,
40,3,443,1,1,9,['k'],['k'],Y,N,None,Y,,,,,,,F,19,
40,4,444,7,7,9,['k'],['k'],Y,Y,['d'],N,,,,,,,F,19,
40,5,445,0,0,9,['k'],['k'],Y,N,None,Y,,,,,,,F,19,
40,6,446,3,3,9,['k'],['k'],Y,Y,['space'],Y,,,,,,,F,19,
40,7,447,2,2,9,['k'],['k'],Y,N,None,Y,,,,,,,F,19,
40,8,448,6,6,9,['d'],['d'],Y,Y,['space'],Y,,,,,,,F,19,
40,9,449,2,2,9,['d'],['d'],Y,Y,['space'],Y,45,42,24,,,,F,19,
40,10,450,1,1,10,['k'],['d'],N,,,,,,,,,,F,19,
41,0,451,6,6,10,['k'],['d'],N,,,,,,,,,,F,19,
41,1,452,4,4,10,['d'],['d'],Y,Y,['space'],Y,,,,,,,F,19,
41,2,453,9,9,10,['d'],['d'],Y,Y,['space'],Y,,,,,,,F,19,
41,3,454,5,5,10,['k'],['k'],Y,Y,['space'],Y,,,,,,,F,19,
41,4,455,9,9,10,['k'],['k'],Y,N,None,Y,,,,,,,F,19,
41,5,456,3,3,10,['k'],['k'],Y,N,None,Y,,,,,,,F,19,
41,6,457,10,10,10,['k'],['k'],Y,N,None,Y,,,,,,,F,19,
41,7,458,3,3,10,['d'],['d'],Y,N,None,Y,,,,,,,F,19,
41,8,459,0,0,10,['d'],['d'],Y,N,None,Y,,,,,,,F,19,
41,9,460,1,1,10,['d'],['d'],Y,Y,['space'],Y,,,,,,,F,19,
41,10,461,9,9,10,['k'],['d'],N,N,None,Y,,,,,,,F,19,
42,0,462,1,1,10,['d'],['d'],Y,Y,['space'],Y,,,,,,,F,19,
42,1,463,3,3,10,['d'],['k'],N,N,None,Y,,,,,,,F,19,
42,2,464,8,8,10,['d'],['d'],Y,N,['space'],N,,,,,,,F,19,
42,3,465,0,0,10,['k'],['k'],Y,N,None,Y,,,,,,,F,19,
42,4,466,8,8,10,['d'],['d'],Y,Y,['space'],Y,,,,,,,F,19,
42,5,467,2,2,10,['d'],['d'],Y,N,['space'],N,,,,,,,F,19,
42,6,468,4,4,10,['k'],['k'],Y,Y,['space'],Y,,,,,,,F,19,
42,7,469,9,9,10,['d'],['d'],Y,N,None,Y,,,,,,,F,19,
42,8,470,9,9,10,['k'],['k'],Y,N,None,Y,,,,,,,F,19,
42,9,471,9,9,10,['d'],['d'],Y,N,None,Y,,,,,,,F,19,
42,10,472,8,8,10,['k'],['d'],N,Y,['space'],Y,,,,,,,F,19,
43,0,473,6,6,10,['d'],['d'],Y,N,None,Y,,,,,,,F,19,
43,1,474,8,8,10,['k'],['d'],N,N,None,Y,,,,,,,F,19,
43,2,475,7,7,10,['d'],['d'],Y,Y,['space'],Y,,,,,,,F,19,
43,3,476,9,9,10,['d'],['d'],Y,Y,['space'],Y,,,,,,,F,19,
43,4,477,5,5,10,['k'],['k'],Y,N,None,Y,,,,,,,F,19,
43,5,478,0,0,10,['d'],['k'],N,N,None,Y,,,,,,,F,19,
43,6,479,8,8,10,['k'],['k'],Y,N,None,Y,,,,,,,F,19,
43,7,480,3,3,10,['d'],['k'],N,N,None,Y,,,,,,,F,19,
43,8,481,3,3,10,['d'],['d'],Y,Y,['space'],Y,,,,,,,F,19,
43,9,482,4,4,10,['k'],['k'],Y,N,None,Y,,,,,,,F,19,
43,10,483,5,5,10,['k'],['k'],Y,N,None,Y,,,,,,,F,19,
44,0,484,8,8,10,['d'],['d'],Y,N,None,Y,,,,,,,F,19,
44,1,485,9,9,10,['d'],['d'],Y,N,None,Y,,,,,,,F,19,
44,2,486,5,5,10,['k'],['d'],N,Y,None,N,,,,,,,F,19,
44,3,487,8,8,10,['k'],['k'],Y,Y,['space'],Y,,,,,,,F,19,
44,4,488,7,7,10,['d'],['k'],N,Y,['space'],Y,,,,,,,F,19,
44,5,489,3,3,10,['k'],['k'],Y,N,None,Y,,,,,,,F,19,
44,6,490,9,9,10,['d'],['k'],N,N,['space'],N,,,,,,,F,19,
44,7,491,1,1,10,['k'],['k'],Y,N,None,Y,,,,,,,F,19,
44,8,492,10,10,10,['k'],['k'],Y,Y,['space'],Y,,,,,,,F,19,
44,9,493,10,10,10,['d'],['d'],Y,Y,['space'],Y,,,,,,,F,19,
44,10,494,8,8,10,['k'],['k'],Y,Y,['space'],Y,,,,,,,F,19,
45,0,495,8,8,10,['d'],['d'],Y,Y,['space'],Y,,,,,,,F,19,
45,1,496,5,5,10,['k'],['k'],Y,Y,['space'],Y,,,,,,,F,19,
45,2,497,4,4,10,['d'],['d'],Y,N,None,Y,,,,,,,F,19,
45,3,498,9,9,10,['k'],['k'],Y,N,None,Y,,,,,,,F,19,
45,4,499,8,8,10,['k'],['k'],Y,Y,['space'],Y,39,44,20,,,,F,19,
45,5,500,10,10,11,['d'],['k'],Y,,,,,,,Y,Y,Y,F,19,
45,6,501,2,2,11,['k'],['d'],Y,,,,,,,,Y,Y,F,19,
45,7,502,0,0,11,['k'],['d'],Y,N,None,Y,,,,,Y,Y,F,19,
45,8,503,9,9,11,['k'],['k'],N,N,None,Y,,,,,Y,Y,F,19,
45,9,504,4,4,11,['d'],['d'],N,N,None,Y,,,,,Y,Y,F,19,
45,10,505,1,1,11,['k'],['d'],Y,Y,['space'],Y,,,,,Y,Y,F,19,
46,0,506,3,3,11,['k'],['d'],Y,Y,['space'],Y,,,,,Y,Y,F,19,
46,1,507,0,0,11,['d'],['k'],Y,Y,['space'],Y,,,,,Y,Y,F,19,
46,2,508,5,5,11,['d'],['d'],N,N,None,Y,,,,,Y,Y,F,19,
46,3,509,8,8,11,['d'],['d'],N,N,None,Y,,,,,Y,Y,F,19,
46,4,510,1,1,11,['d'],['k'],Y,Y,['space'],Y,,,,,Y,Y,F,19,
46,5,511,3,3,11,['k'],['k'],N,N,None,Y,,,,,Y,Y,F,19,
46,6,512,1,1,11,['k'],['d'],Y,N,None,Y,,,,,Y,Y,F,19,
46,7,513,5,5,11,['d'],['d'],N,Y,['space'],Y,,,,,Y,Y,F,19,
46,8,514,9,9,11,['d'],['k'],Y,N,None,Y,,,,,Y,Y,F,19,
46,9,515,8,8,11,['d'],['k'],Y,Y,['space'],Y,,,,,Y,Y,F,19,
46,10,516,2,2,11,['k'],['k'],N,Y,['space'],Y,,,,,Y,Y,F,19,
47,0,517,8,8,11,['d'],['k'],Y,N,None,Y,,,,,Y,Y,F,19,
47,1,518,8,8,11,['k'],['d'],Y,N,None,Y,,,,,Y,Y,F,19,
47,2,519,3,3,11,['d'],['k'],Y,Y,['space'],Y,,,,,Y,Y,F,19,
47,3,520,9,9,11,['k'],['d'],Y,N,None,Y,,,,,Y,Y,F,19,
47,4,521,7,7,11,['d'],['d'],N,N,None,Y,,,,,Y,Y,F,19,
47,5,522,3,3,11,['d'],['k'],Y,Y,['space'],Y,,,,,Y,Y,F,19,
47,6,523,8,8,11,['k'],['k'],N,Y,['space'],Y,,,,,Y,Y,F,19,
47,7,524,7,7,11,['k'],['d'],Y,Y,['space'],Y,,,,,Y,Y,F,19,
47,8,525,0,0,11,['d'],['k'],Y,N,None,Y,,,,,Y,Y,F,19,
47,9,526,8,8,11,['d'],['k'],Y,Y,['space'],Y,,,,,Y,Y,F,19,
47,10,527,10,10,11,['k'],['d'],Y,Y,['space'],Y,,,,,Y,Y,F,19,
48,0,528,0,0,11,['d'],['d'],N,N,None,Y,,,,,Y,Y,F,19,
48,1,529,0,0,11,['d'],['d'],N,Y,['space'],Y,,,,,Y,Y,F,19,
48,2,530,0,0,11,['d'],['k'],Y,Y,['space'],Y,,,,,Y,Y,F,19,
48,3,531,7,7,11,['d'],['d'],N,Y,['space'],Y,,,,,Y,Y,F,19,
48,4,532,5,5,11,['d'],['k'],Y,N,None,Y,,,,,Y,Y,F,19,
48,5,533,8,8,11,['k'],['d'],Y,N,None,Y,,,,,Y,Y,F,19,
48,6,534,4,4,11,['k'],['k'],N,Y,['space'],Y,,,,,Y,Y,F,19,
48,7,535,6,6,11,['k'],['d'],Y,Y,['space'],Y,,,,,Y,Y,F,19,
48,8,536,6,6,11,['d'],['k'],Y,N,None,Y,,,,,Y,Y,F,19,
48,9,537,7,7,11,['k'],['k'],N,Y,['space'],Y,,,,,Y,Y,F,19,
48,10,538,7,7,11,['k'],['k'],N,Y,['space'],Y,,,,,Y,Y,F,19,
49,0,539,5,5,11,['k'],['d'],Y,N,None,Y,,,,,Y,Y,F,19,
49,1,540,0,0,11,['k'],['d'],Y,N,None,Y,,,,,Y,Y,F,19,
49,2,541,5,5,11,['k'],['d'],Y,Y,None,N,,,,,Y,Y,F,19,
49,3,542,3,3,11,['k'],['d'],Y,Y,['space'],Y,,,,,Y,Y,F,19,
49,4,543,1,1,11,['k'],['d'],Y,N,None,Y,,,,,Y,Y,F,19,
49,5,544,5,5,11,['d'],['k'],Y,N,None,Y,,,,,Y,Y,F,19,
49,6,545,0,0,11,['d'],['k'],Y,Y,['space'],Y,,,,,Y,Y,F,19,
49,7,546,2,2,11,['k'],['d'],Y,N,None,Y,,,,,Y,Y,F,19,
49,8,547,9,9,11,['k'],['d'],Y,Y,['space'],Y,,,,,Y,Y,F,19,
49,9,548,5,5,11,['d'],['k'],Y,N,None,Y,,,,,Y,Y,F,19,
49,10,549,9,9,11,['d'],['k'],Y,Y,['space'],Y,35,47,25,,Y,Y,F,19,
50,0,550,6,6,12,['k'],['d'],Y,,,,,,,,Y,Y,F,19,
50,1,551,1,1,12,['k'],['d'],Y,,,,,,,,Y,Y,F,19,
50,2,552,9,9,12,['k'],['d'],Y,N,None,Y,,,,,Y,Y,F,19,
50,3,553,10,10,12,['k'],['d'],Y,Y,['space'],Y,,,,,Y,Y,F,19,
50,4,554,9,9,12,['d'],['k'],Y,Y,['space'],Y,,,,,Y,Y,F,19,
50,5,555,10,10,12,['k'],['d'],Y,N,None,Y,,,,,Y,Y,F,19,
50,6,556,1,1,12,['d'],['d'],N,Y,['space'],Y,,,,,Y,Y,F,19,
50,7,557,8,8,12,['k'],['k'],N,N,None,Y,,,,,Y,Y,F,19,
50,8,558,6,6,12,['d'],['k'],Y,N,None,Y,,,,,Y,Y,F,19,
50,9,559,8,8,12,['d'],['k'],Y,N,['space'],N,,,,,Y,Y,F,19,
50,10,560,9,9,12,['d'],['k'],Y,N,['space'],N,,,,,Y,Y,F,19,
51,0,561,6,6,12,['k'],['d'],Y,Y,['space'],Y,,,,,Y,Y,F,19,
51,1,562,3,3,12,['d'],['k'],Y,N,['space'],N,,,,,Y,Y,F,19,
51,2,563,8,8,12,['d'],['k'],Y,N,['k'],N,,,,,Y,Y,F,19,
51,3,564,5,5,12,['d'],['k'],Y,Y,None,N,,,,,Y,Y,F,19,
51,4,565,1,1,12,['k'],['d'],Y,N,['space'],N,,,,,Y,Y,F,19,
51,5,566,8,8,12,['k'],['d'],Y,N,['d'],N,,,,,Y,Y,F,19,
51,6,567,5,5,12,['d'],['d'],N,N,['space'],N,,,,,Y,Y,F,19,
51,7,568,5,5,12,['k'],['d'],Y,N,['space'],N,,,,,Y,Y,F,19,
51,8,569,9,9,12,['k'],['d'],Y,N,['space'],N,,,,,Y,Y,F,19,
51,9,570,6,6,12,['k'],['k'],N,Y,['space'],Y,,,,,Y,Y,F,19,
51,10,571,4,4,12,['k'],['d'],Y,Y,['space'],Y,,,,,Y,Y,F,19,
52,0,572,7,7,12,['d'],['k'],Y,N,None,Y,,,,,Y,Y,F,19,
52,1,573,5,5,12,['k'],['d'],Y,N,['space'],N,,,,,Y,Y,F,19,
52,2,574,5,5,12,['d'],['k'],Y,N,['space'],N,,,,,Y,Y,F,19,
52,3,575,0,0,12,['d'],['k'],Y,Y,['space'],Y,,,,,Y,Y,F,19,
52,4,576,9,9,12,['k'],['d'],Y,N,None,Y,,,,,Y,Y,F,19,
52,5,577,0,0,12,['d'],['k'],Y,N,None,Y,,,,,Y,Y,F,19,
52,6,578,0,0,12,['k'],['k'],N,Y,None,N,,,,,Y,Y,F,19,
52,7,579,1,1,12,['d'],['k'],Y,N,None,Y,,,,,Y,Y,F,19,
52,8,580,10,10,12,None,,Timed out,N,None,Y,,,,,Y,Y,F,19,
52,9,581,6,6,12,['d'],['k'],Y,N,None,Y,,,,,Y,Y,F,19,
52,10,582,9,9,12,['d'],['k'],Y,N,None,Y,,,,,Y,Y,F,19,
53,0,583,6,6,12,['d'],['d'],N,Y,None,N,,,,,Y,Y,F,19,
53,1,584,6,6,12,['k'],['k'],N,Y,None,N,,,,,Y,Y,F,19,
53,2,585,7,7,12,['d'],['d'],N,N,None,Y,,,,,Y,Y,F,19,
53,3,586,4,4,12,['k'],['d'],Y,N,None,Y,,,,,Y,Y,F,19,
53,4,587,1,1,12,['d'],['k'],Y,N,None,Y,,,,,Y,Y,F,19,
53,5,588,3,3,12,['d'],['d'],N,Y,['space'],Y,,,,,Y,Y,F,19,
53,6,589,10,10,12,['d'],['k'],Y,Y,['space'],Y,,,,,Y,Y,F,19,
53,7,590,10,10,12,['d'],['k'],Y,Y,['space'],Y,,,,,Y,Y,F,19,
53,8,591,3,3,12,['d'],['k'],Y,Y,['space'],Y,,,,,Y,Y,F,19,
53,9,592,5,5,12,['d'],['k'],Y,N,None,Y,,,,,Y,Y,F,19,
53,10,593,8,8,12,['k'],['d'],Y,Y,None,N,,,,,Y,Y,F,19,
54,0,594,10,10,12,['k'],['k'],N,Y,None,N,,,,,Y,Y,F,19,
54,1,595,1,1,12,['d'],['k'],Y,N,None,Y,,,,,Y,Y,F,19,
54,2,596,1,1,12,['d'],['k'],Y,N,None,Y,,,,,Y,Y,F,19,
54,3,597,2,2,12,['k'],['k'],N,N,None,Y,,,,,Y,Y,F,19,
54,4,598,10,10,12,['d'],['d'],N,Y,['space'],Y,,,,,Y,Y,F,19,
54,5,599,1,1,12,['d'],['k'],Y,N,['space'],N,37,30,18,,Y,Y,F,19,
