.thisRepN,.thisTrialN,.thisN,.thisIndex,.thisTrial,Block Number,Key pressed,Category,Correct?,Int Match?,Int Response,Int Correct?,Line Accuracy,Interference Accuracy,Matching Interferences,New instruction shown?,Buttons switched?,Fast?,gender,age,
0,0,0,1,1,1,['k'],['k'],Y,,,,,,,,,,f,22,
0,1,1,2,2,1,['k'],['k'],Y,,,,,,,,,,f,22,
0,2,2,3,3,1,['d'],['k'],N,Y,None,N,,,,,,,f,22,
0,3,3,5,5,1,['d'],['k'],N,Y,None,N,,,,,,,f,22,
0,4,4,9,9,1,['k'],['k'],Y,Y,None,N,,,,,,,f,22,
0,5,5,9,9,1,['d'],['k'],N,Y,None,N,,,,,,,f,22,
0,6,6,10,10,1,['d'],['d'],Y,Y,['space'],Y,,,,,,,f,22,
0,7,7,12,12,1,['d'],['d'],Y,N,None,Y,,,,,,,f,22,
0,8,8,12,12,1,['d'],['k'],N,Y,None,N,,,,,,,f,22,
0,9,9,10,10,1,['k'],['k'],Y,N,None,Y,,,,,,,f,22,
0,10,10,10,10,1,['d'],['d'],Y,N,None,Y,,,,,,,f,22,
0,11,11,10,10,1,['k'],['d'],N,Y,None,N,,,,,,,f,22,
0,12,12,8,8,1,['k'],['k'],Y,N,None,Y,,,,,,,f,22,
0,13,13,3,3,1,['d'],['d'],Y,Y,['space'],Y,,,,,,,f,22,
0,14,14,7,7,1,['d'],['d'],Y,Y,None,N,,,,,,,f,22,
1,0,15,3,3,1,['d'],['d'],Y,Y,['space'],Y,,,,,,,f,22,
1,1,16,14,14,1,['d'],['k'],N,N,None,Y,,,,,,,f,22,
1,2,17,5,5,1,['d'],['d'],Y,Y,None,N,,,,,,,f,22,
1,3,18,2,2,1,['k'],['k'],Y,Y,None,N,,,,,,,f,22,
1,4,19,0,0,1,['d'],['d'],Y,Y,['space'],Y,,,,,,,f,22,
1,5,20,11,11,1,['d'],['d'],Y,N,None,Y,,,,,,,f,22,
1,6,21,4,4,1,['d'],['d'],Y,N,None,Y,,,,,,,f,22,
1,7,22,9,9,1,['d'],['d'],Y,Y,None,N,,,,,,,f,22,
1,8,23,6,6,1,['d'],['k'],N,Y,['space'],Y,,,,,,,f,22,
1,9,24,6,6,1,['d'],['k'],N,N,None,Y,,,,,,,f,22,
1,10,25,3,3,1,['k'],['k'],Y,Y,['space'],Y,,,,,,,f,22,
1,11,26,11,11,1,['d'],['d'],Y,N,None,Y,,,,,,,f,22,
1,12,27,0,0,1,['k'],['k'],Y,Y,['space'],Y,,,,,,,f,22,
1,13,28,3,3,1,['d'],['d'],Y,Y,['space'],Y,,,,,,,f,22,
1,14,29,0,0,1,['d'],['d'],Y,Y,['space'],Y,,,,,,,f,22,
2,0,30,13,13,1,['k'],['k'],Y,N,None,Y,,,,,,,f,22,
2,1,31,13,13,1,['k'],['d'],N,Y,['space'],Y,,,,,,,f,22,
2,2,32,4,4,1,['k'],['k'],Y,N,['space'],N,,,,,,,f,22,
2,3,33,0,0,1,['k'],['d'],N,Y,['space'],Y,,,,,,,f,22,
2,4,34,8,8,1,['k'],['d'],N,N,None,Y,,,,,,,f,22,
2,5,35,1,1,1,['d'],['d'],Y,N,None,Y,,,,,,,f,22,
2,6,36,14,14,1,['d'],['d'],Y,N,None,Y,,,,,,,f,22,
2,7,37,5,5,1,['k'],['k'],Y,Y,None,N,,,,,,,f,22,
2,8,38,9,9,1,['d'],['d'],Y,Y,None,N,,,,,,,f,22,
2,9,39,0,0,1,['d'],['d'],Y,N,None,Y,,,,,,,f,22,
2,10,40,11,11,1,['k'],['k'],Y,Y,None,N,,,,,,,f,22,
2,11,41,11,11,1,['k'],['d'],N,N,['space'],N,,,,,,,f,22,
2,12,42,12,12,1,['k'],['k'],Y,Y,None,N,,,,,,,f,22,
2,13,43,8,8,1,['k'],['k'],Y,N,None,Y,,,,,,,f,22,
2,14,44,11,11,1,['k'],['k'],Y,N,['space'],N,,,,,,,f,22,
3,0,45,7,7,1,['d'],['d'],Y,N,['space'],N,,,,,,,f,22,
3,1,46,13,13,1,['k'],['k'],Y,N,None,Y,,,,,,,f,22,
3,2,47,11,11,1,['d'],['d'],Y,N,None,Y,,,,,,,f,22,
3,3,48,14,14,1,['d'],['k'],N,N,None,Y,,,,,,,f,22,
3,4,49,12,12,1,['d'],['d'],Y,N,None,Y,37,30,25,,,,f,22,
3,5,50,0,0,2,['k'],['k'],Y,,,,,,,,,,f,22,
3,6,51,8,8,2,['k'],['k'],Y,,,,,,,,,,f,22,
3,7,52,7,7,2,['d'],['d'],Y,Y,['space'],Y,,,,,,,f,22,
3,8,53,5,5,2,['k'],['d'],N,Y,['space'],Y,,,,,,,f,22,
3,9,54,9,9,2,['d'],['d'],Y,N,None,Y,,,,,,,f,22,
3,10,55,9,9,2,['k'],['d'],N,Y,['d'],N,,,,,,,f,22,
3,11,56,3,3,2,['k'],['k'],Y,Y,None,N,,,,,,,f,22,
3,12,57,6,6,2,['k'],['d'],N,N,None,Y,,,,,,,f,22,
3,13,58,11,11,2,['d'],['d'],Y,N,None,Y,,,,,,,f,22,
3,14,59,9,9,2,['k'],['d'],N,N,None,Y,,,,,,,f,22,
4,0,60,0,0,2,['k'],['k'],Y,N,None,Y,,,,,,,f,22,
4,1,61,2,2,2,['d'],['d'],Y,Y,['space'],Y,,,,,,,f,22,
4,2,62,1,1,2,['d'],['k'],N,N,None,Y,,,,,,,f,22,
4,3,63,4,4,2,['k'],['d'],N,Y,['space'],Y,,,,,,,f,22,
4,4,64,5,5,2,['k'],['k'],Y,Y,None,N,,,,,,,f,22,
4,5,65,8,8,2,['k'],['k'],Y,N,['space'],N,,,,,,,f,22,
4,6,66,0,0,2,['d'],['d'],Y,N,['space'],N,,,,,,,f,22,
4,7,67,4,4,2,['k'],['k'],Y,Y,None,N,,,,,,,f,22,
4,8,68,3,3,2,['k'],['d'],N,Y,None,N,,,,,,,f,22,
4,9,69,0,0,2,['k'],['d'],N,Y,['space'],Y,,,,,,,f,22,
4,10,70,9,9,2,['d'],['d'],Y,Y,None,N,,,,,,,f,22,
4,11,71,10,10,2,['k'],['k'],Y,N,None,Y,,,,,,,f,22,
4,12,72,14,14,2,['k'],['k'],Y,N,None,Y,,,,,,,f,22,
4,13,73,9,9,2,['d'],['d'],Y,Y,['space'],Y,,,,,,,f,22,
4,14,74,14,14,2,['d'],['d'],Y,N,None,Y,,,,,,,f,22,
5,0,75,13,13,2,['k'],['k'],Y,Y,None,N,,,,,,,f,22,
5,1,76,10,10,2,['k'],['k'],Y,Y,None,N,,,,,,,f,22,
5,2,77,14,14,2,['d'],['d'],Y,N,None,Y,,,,,,,f,22,
5,3,78,11,11,2,['k'],['d'],N,Y,['space'],Y,,,,,,,f,22,
5,4,79,1,1,2,['k'],['k'],Y,N,['space'],N,,,,,,,f,22,
5,5,80,5,5,2,['d'],['d'],Y,Y,['space'],Y,,,,,,,f,22,
5,6,81,3,3,2,['k'],['k'],Y,Y,['space'],Y,,,,,,,f,22,
5,7,82,9,9,2,['d'],['d'],Y,Y,['space'],Y,,,,,,,f,22,
5,8,83,10,10,2,['d'],['k'],N,Y,None,N,,,,,,,f,22,
5,9,84,5,5,2,['k'],['d'],N,Y,['space'],Y,,,,,,,f,22,
5,10,85,6,6,2,['d'],['d'],Y,N,None,Y,,,,,,,f,22,
5,11,86,1,1,2,['k'],['k'],Y,N,['space'],N,,,,,,,f,22,
5,12,87,8,8,2,['k'],['d'],N,N,['space'],N,,,,,,,f,22,
5,13,88,7,7,2,['k'],['k'],Y,N,None,Y,,,,,,,f,22,
5,14,89,13,13,2,['d'],['d'],Y,N,None,Y,,,,,,,f,22,
6,0,90,0,0,2,['d'],['d'],Y,Y,None,N,,,,,,,f,22,
6,1,91,1,1,2,['k'],['k'],Y,N,None,Y,,,,,,,f,22,
6,2,92,12,12,2,['k'],['k'],Y,N,None,Y,,,,,,,f,22,
6,3,93,8,8,2,['k'],['k'],Y,Y,None,N,,,,,,,f,22,
6,4,94,1,1,2,['k'],['k'],Y,N,['space'],N,,,,,,,f,22,
6,5,95,9,9,2,['k'],['k'],Y,N,None,Y,,,,,,,f,22,
6,6,96,9,9,2,['k'],['d'],N,Y,None,N,,,,,,,f,22,
6,7,97,8,8,2,['k'],['k'],Y,Y,None,N,,,,,,,f,22,
6,8,98,1,1,2,['d'],['k'],N,Y,['d'],N,,,,,,,f,22,
6,9,99,0,0,2,['d'],['d'],Y,N,None,Y,36,28,25,,,,f,22,
6,10,100,5,5,3,['d'],['d'],Y,,,,,,,,,,f,22,
6,11,101,12,12,3,['k'],['k'],Y,,,,,,,,,,f,22,
6,12,102,9,9,3,['k'],['d'],N,Y,['d'],N,,,,,,,f,22,
6,13,103,8,8,3,['d'],['k'],N,Y,['space'],Y,,,,,,,f,22,
6,14,104,4,4,3,['k'],['k'],Y,N,None,Y,,,,,,,f,22,
7,0,105,12,12,3,['d'],['d'],Y,Y,None,N,,,,,,,f,22,
7,1,106,1,1,3,['k'],['d'],N,Y,['space'],Y,,,,,,,f,22,
7,2,107,5,5,3,['k'],['d'],N,N,None,Y,,,,,,,f,22,
7,3,108,10,10,3,['k'],['d'],N,Y,None,N,,,,,,,f,22,
7,4,109,14,14,3,['k'],['k'],Y,Y,None,N,,,,,,,f,22,
7,5,110,4,4,3,['k'],['k'],Y,Y,['space'],Y,,,,,,,f,22,
7,6,111,2,2,3,['d'],['d'],Y,N,None,Y,,,,,,,f,22,
7,7,112,2,2,3,['d'],['d'],Y,Y,['space'],Y,,,,,,,f,22,
7,8,113,7,7,3,['k'],['d'],N,N,None,Y,,,,,,,f,22,
7,9,114,8,8,3,['d'],['d'],Y,Y,None,N,,,,,,,f,22,
7,10,115,7,7,3,['k'],['k'],Y,N,['space'],N,,,,,,,f,22,
7,11,116,13,13,3,['d'],['d'],Y,Y,['space'],Y,,,,,,,f,22,
7,12,117,12,12,3,['d'],['d'],Y,N,['space'],N,,,,,,,f,22,
7,13,118,3,3,3,['d'],['d'],Y,Y,['space'],Y,,,,,,,f,22,
7,14,119,14,14,3,['d'],['d'],Y,Y,['space'],Y,,,,,,,f,22,
8,0,120,1,1,3,['d'],['d'],Y,N,None,Y,,,,,,,f,22,
8,1,121,12,12,3,['d'],['d'],Y,Y,None,N,,,,,,,f,22,
8,2,122,8,8,3,['k'],['k'],Y,Y,['space'],Y,,,,,,,f,22,
8,3,123,7,7,3,['k'],['k'],Y,Y,['space'],Y,,,,,,,f,22,
8,4,124,13,13,3,['k'],['k'],Y,N,None,Y,,,,,,,f,22,
8,5,125,6,6,3,['k'],['k'],Y,N,None,Y,,,,,,,f,22,
8,6,126,6,6,3,['k'],['k'],Y,N,['space'],N,,,,,,,f,22,
8,7,127,4,4,3,['d'],['d'],Y,Y,['space'],Y,,,,,,,f,22,
8,8,128,1,1,3,['k'],['d'],N,Y,None,N,,,,,,,f,22,
8,9,129,4,4,3,['d'],['d'],Y,Y,['space'],Y,,,,,,,f,22,
8,10,130,5,5,3,['k'],['k'],Y,N,None,Y,,,,,,,f,22,
8,11,131,5,5,3,['k'],['d'],N,N,None,Y,,,,,,,f,22,
8,12,132,9,9,3,['k'],['k'],Y,N,['space'],N,,,,,,,f,22,
8,13,133,5,5,3,['d'],['d'],Y,N,None,Y,,,,,,,f,22,
8,14,134,0,0,3,['d'],['d'],Y,Y,None,N,,,,,,,f,22,
9,0,135,10,10,3,['d'],['d'],Y,N,None,Y,,,,,,,f,22,
9,1,136,11,11,3,['d'],['k'],N,N,None,Y,,,,,,,f,22,
9,2,137,10,10,3,['d'],['d'],Y,N,None,Y,,,,,,,f,22,
9,3,138,9,9,3,['d'],['d'],Y,N,None,Y,,,,,,,f,22,
9,4,139,2,2,3,['d'],['d'],Y,Y,None,N,,,,,,,f,22,
9,5,140,2,2,3,['d'],['d'],Y,Y,None,N,,,,,,,f,22,
9,6,141,5,5,3,['d'],['d'],Y,N,['space'],N,,,,,,,f,22,
9,7,142,5,5,3,['k'],['d'],N,N,['space'],N,,,,,,,f,22,
9,8,143,1,1,3,['k'],['k'],Y,N,None,Y,,,,,,,f,22,
9,9,144,10,10,3,['k'],['k'],Y,N,None,Y,,,,,,,f,22,
9,10,145,14,14,3,['k'],['k'],Y,N,None,Y,,,,,,,f,22,
9,11,146,9,9,3,['d'],['d'],Y,Y,['space'],Y,,,,,,,f,22,
9,12,147,6,6,3,['k'],['k'],Y,N,['space'],N,,,,,,,f,22,
9,13,148,13,13,3,['d'],['d'],Y,N,None,Y,,,,,,,f,22,
9,14,149,7,7,3,['d'],['d'],Y,Y,['space'],Y,40,31,23,,,,f,22,
10,0,150,11,11,4,['d'],['d'],Y,,,,,,,,,,f,22,
10,1,151,5,5,4,['k'],['k'],Y,,,,,,,,,,f,22,
10,2,152,13,13,4,['k'],['d'],N,N,None,Y,,,,,,,f,22,
10,3,153,12,12,4,['k'],['k'],Y,Y,['space'],Y,,,,,,,f,22,
10,4,154,2,2,4,['k'],['d'],N,Y,None,N,,,,,,,f,22,
10,5,155,6,6,4,['d'],['d'],Y,N,None,Y,,,,,,,f,22,
10,6,156,3,3,4,['d'],['k'],N,Y,['space'],Y,,,,,,,f,22,
10,7,157,1,1,4,['d'],['k'],N,Y,None,N,,,,,,,f,22,
10,8,158,10,10,4,['k'],['k'],Y,Y,None,N,,,,,,,f,22,
10,9,159,2,2,4,['k'],['k'],Y,N,None,Y,,,,,,,f,22,
10,10,160,0,0,4,['d'],['d'],Y,Y,['space'],Y,,,,,,,f,22,
10,11,161,12,12,4,['d'],['d'],Y,N,None,Y,,,,,,,f,22,
10,12,162,0,0,4,['k'],['k'],Y,Y,['space'],Y,,,,,,,f,22,
10,13,163,0,0,4,['d'],['d'],Y,Y,['space'],Y,,,,,,,f,22,
10,14,164,0,0,4,['k'],['k'],Y,Y,['space'],Y,,,,,,,f,22,
11,0,165,0,0,4,['k'],['k'],Y,Y,['space'],Y,,,,,,,f,22,
11,1,166,4,4,4,['d'],['k'],N,N,None,Y,,,,,,,f,22,
11,2,167,10,10,4,['k'],['k'],Y,N,None,Y,,,,,,,f,22,
11,3,168,13,13,4,['k'],['k'],Y,N,None,Y,,,,,,,f,22,
11,4,169,7,7,4,['d'],['d'],Y,Y,['space'],Y,,,,,,,f,22,
11,5,170,13,13,4,['k'],['k'],Y,N,None,Y,,,,,,,f,22,
11,6,171,7,7,4,['d'],['d'],Y,Y,['space'],Y,,,,,,,f,22,
11,7,172,8,8,4,['d'],['d'],Y,Y,['space'],Y,,,,,,,f,22,
11,8,173,3,3,4,['d'],['d'],Y,N,None,Y,,,,,,,f,22,
11,9,174,4,4,4,['k'],['k'],Y,Y,None,N,,,,,,,f,22,
11,10,175,9,9,4,['k'],['d'],N,N,None,Y,,,,,,,f,22,
11,11,176,1,1,4,['d'],['d'],Y,N,None,Y,,,,,,,f,22,
11,12,177,13,13,4,['k'],['k'],Y,N,None,Y,,,,,,,f,22,
11,13,178,12,12,4,['d'],['d'],Y,N,None,Y,,,,,,,f,22,
11,14,179,4,4,4,['k'],['k'],Y,Y,['space'],Y,,,,,,,f,22,
12,0,180,14,14,4,['d'],['d'],Y,Y,['space'],Y,,,,,,,f,22,
12,1,181,8,8,4,['k'],['k'],Y,Y,None,N,,,,,,,f,22,
12,2,182,0,0,4,['k'],['k'],Y,Y,['space'],Y,,,,,,,f,22,
12,3,183,0,0,4,['k'],['d'],N,N,None,Y,,,,,,,f,22,
12,4,184,3,3,4,['d'],['d'],Y,Y,['space'],Y,,,,,,,f,22,
12,5,185,1,1,4,['d'],['d'],Y,Y,['k'],N,,,,,,,f,22,
12,6,186,9,9,4,['k'],['k'],Y,N,None,Y,,,,,,,f,22,
12,7,187,12,12,4,['k'],['k'],Y,N,None,Y,,,,,,,f,22,
12,8,188,6,6,4,['d'],['k'],N,Y,['space'],Y,,,,,,,f,22,
12,9,189,7,7,4,['k'],['k'],Y,Y,['space'],Y,,,,,,,f,22,
12,10,190,5,5,4,['k'],['k'],Y,N,['space'],N,,,,,,,f,22,
12,11,191,10,10,4,['d'],['d'],Y,N,None,Y,,,,,,,f,22,
12,12,192,4,4,4,['d'],['d'],Y,Y,['space'],Y,,,,,,,f,22,
12,13,193,10,10,4,['d'],['d'],Y,Y,['space'],Y,,,,,,,f,22,
12,14,194,14,14,4,['k'],['k'],Y,N,None,Y,,,,,,,f,22,
13,0,195,4,4,4,['k'],['k'],Y,N,None,Y,,,,,,,f,22,
13,1,196,14,14,4,['k'],['k'],Y,N,['space'],N,,,,,,,f,22,
13,2,197,12,12,4,['k'],['k'],Y,N,['space'],N,,,,,,,f,22,
13,3,198,11,11,4,['k'],['k'],Y,Y,['space'],Y,,,,,,,f,22,
13,4,199,1,1,4,['d'],['k'],N,N,['space'],N,41,38,25,,,,f,22,
13,5,200,11,11,5,['k'],['k'],Y,,,,,,,,,,f,22,
13,6,201,4,4,5,['d'],['d'],Y,,,,,,,,,,f,22,
13,7,202,2,2,5,['d'],['d'],Y,N,None,Y,,,,,,,f,22,
13,8,203,5,5,5,['d'],['k'],N,N,None,Y,,,,,,,f,22,
13,9,204,10,10,5,['d'],['d'],Y,N,None,Y,,,,,,,f,22,
13,10,205,11,11,5,['k'],['k'],Y,N,None,Y,,,,,,,f,22,
13,11,206,13,13,5,['d'],['d'],Y,N,['space'],N,,,,,,,f,22,
13,12,207,7,7,5,['k'],['d'],N,N,None,Y,,,,,,,f,22,
13,13,208,0,0,5,['k'],['k'],Y,Y,['space'],Y,,,,,,,f,22,
13,14,209,10,10,5,['d'],['d'],Y,Y,None,N,,,,,,,f,22,
14,0,210,10,10,5,['d'],['d'],Y,N,None,Y,,,,,,,f,22,
14,1,211,8,8,5,['k'],['k'],Y,Y,None,N,,,,,,,f,22,
14,2,212,1,1,5,['k'],['k'],Y,N,None,Y,,,,,,,f,22,
14,3,213,6,6,5,['k'],['k'],Y,Y,None,N,,,,,,,f,22,
14,4,214,2,2,5,['k'],['d'],N,N,None,Y,,,,,,,f,22,
14,5,215,2,2,5,['d'],['d'],Y,N,None,Y,,,,,,,f,22,
14,6,216,10,10,5,['k'],['k'],Y,Y,['space'],Y,,,,,,,f,22,
14,7,217,5,5,5,['d'],['k'],N,Y,['space'],Y,,,,,,,f,22,
14,8,218,6,6,5,['k'],['k'],Y,Y,['space'],Y,,,,,,,f,22,
14,9,219,14,14,5,['k'],['k'],Y,Y,None,N,,,,,,,f,22,
14,10,220,9,9,5,['k'],['k'],Y,N,None,Y,,,,,,,f,22,
14,11,221,14,14,5,['d'],['d'],Y,Y,['space'],Y,,,,,,,f,22,
14,12,222,0,0,5,['d'],['d'],Y,Y,['space'],Y,,,,,,,f,22,
14,13,223,2,2,5,['k'],['k'],Y,Y,['space'],Y,,,,,,,f,22,
14,14,224,14,14,5,['k'],['d'],N,N,None,Y,,,,,,,f,22,
15,0,225,0,0,5,['d'],['d'],Y,Y,['space'],Y,,,,,,,f,22,
15,1,226,6,6,5,['k'],['k'],Y,N,None,Y,,,,,,,f,22,
15,2,227,12,12,5,['k'],['k'],Y,N,['space'],N,,,,,,,f,22,
15,3,228,9,9,5,['k'],['k'],Y,Y,None,N,,,,,,,f,22,
15,4,229,6,6,5,['d'],['k'],N,N,None,Y,,,,,,,f,22,
15,5,230,9,9,5,['d'],['d'],Y,N,None,Y,,,,,,,f,22,
15,6,231,7,7,5,['k'],['k'],Y,N,None,Y,,,,,,,f,22,
15,7,232,0,0,5,['k'],['k'],Y,N,['space'],N,,,,,,,f,22,
15,8,233,7,7,5,['k'],['k'],Y,N,['space'],N,,,,,,,f,22,
15,9,234,10,10,5,['d'],['d'],Y,Y,['space'],Y,,,,,,,f,22,
15,10,235,13,13,5,['k'],['k'],Y,Y,['space'],Y,,,,,,,f,22,
15,11,236,10,10,5,['k'],['k'],Y,Y,['space'],Y,,,,,,,f,22,
15,12,237,5,5,5,['k'],['k'],Y,N,None,Y,,,,,,,f,22,
15,13,238,8,8,5,['d'],['d'],Y,N,None,Y,,,,,,,f,22,
15,14,239,4,4,5,['d'],['d'],Y,N,['space'],N,,,,,,,f,22,
16,0,240,12,12,5,['k'],['k'],Y,N,['space'],N,,,,,,,f,22,
16,1,241,13,13,5,['d'],['d'],Y,Y,['space'],Y,,,,,,,f,22,
16,2,242,2,2,5,['k'],['d'],N,N,None,Y,,,,,,,f,22,
16,3,243,12,12,5,['k'],['k'],Y,Y,None,N,,,,,,,f,22,
16,4,244,0,0,5,['k'],['k'],Y,Y,None,N,,,,,,,f,22,
16,5,245,9,9,5,['k'],['k'],Y,N,['space'],N,,,,,,,f,22,
16,6,246,1,1,5,['k'],['k'],Y,Y,['space'],Y,,,,,,,f,22,
16,7,247,4,4,5,['k'],['d'],N,Y,None,N,,,,,,,f,22,
16,8,248,4,4,5,['d'],['k'],N,N,None,Y,,,,,,,f,22,
16,9,249,4,4,5,['d'],['d'],Y,Y,['space'],Y,41,33,22,,,,f,22,
16,10,250,4,4,6,['k'],['k'],Y,,,,,,,,,,f,22,
16,11,251,8,8,6,['d'],['k'],N,,,,,,,,,,f,22,
16,12,252,3,3,6,['k'],['d'],N,N,None,Y,,,,,,,f,22,
16,13,253,9,9,6,['d'],['k'],N,N,['space'],N,,,,,,,f,22,
16,14,254,6,6,6,['d'],['d'],Y,N,None,Y,,,,,,,f,22,
17,0,255,0,0,6,['d'],['d'],Y,N,None,Y,,,,,,,f,22,
17,1,256,6,6,6,['k'],['k'],Y,Y,['space'],Y,,,,,,,f,22,
17,2,257,7,7,6,['k'],['k'],Y,N,None,Y,,,,,,,f,22,
17,3,258,7,7,6,['k'],['k'],Y,N,['space'],N,,,,,,,f,22,
17,4,259,11,11,6,['k'],['k'],Y,Y,['space'],Y,,,,,,,f,22,
17,5,260,12,12,6,['d'],['d'],Y,N,None,Y,,,,,,,f,22,
17,6,261,7,7,6,['k'],['k'],Y,N,None,Y,,,,,,,f,22,
17,7,262,12,12,6,['k'],['k'],Y,N,['d'],N,,,,,,,f,22,
17,8,263,8,8,6,['k'],['k'],Y,N,['space'],N,,,,,,,f,22,
17,9,264,2,2,6,['d'],['d'],Y,N,None,Y,,,,,,,f,22,
17,10,265,11,11,6,['d'],['d'],Y,N,None,Y,,,,,,,f,22,
17,11,266,8,8,6,['k'],['k'],Y,N,['space'],N,,,,,,,f,22,
17,12,267,9,9,6,['d'],['d'],Y,N,['space'],N,,,,,,,f,22,
17,13,268,4,4,6,['k'],['k'],Y,Y,['space'],Y,,,,,,,f,22,
17,14,269,10,10,6,['d'],['d'],Y,Y,['space'],Y,,,,,,,f,22,
18,0,270,0,0,6,['d'],['d'],Y,N,None,Y,,,,,,,f,22,
18,1,271,14,14,6,['d'],['d'],Y,Y,['space'],Y,,,,,,,f,22,
18,2,272,3,3,6,['d'],['d'],Y,N,None,Y,,,,,,,f,22,
18,3,273,0,0,6,['k'],['k'],Y,Y,['space'],Y,,,,,,,f,22,
18,4,274,10,10,6,['d'],['d'],Y,N,None,Y,,,,,,,f,22,
18,5,275,7,7,6,['k'],['d'],N,N,None,Y,,,,,,,f,22,
18,6,276,4,4,6,['k'],['k'],Y,N,None,Y,,,,,,,f,22,
18,7,277,6,6,6,['d'],['d'],Y,Y,None,N,,,,,,,f,22,
18,8,278,11,11,6,['k'],['k'],Y,N,None,Y,,,,,,,f,22,
18,9,279,13,13,6,['k'],['d'],N,Y,['space'],Y,,,,,,,f,22,
18,10,280,1,1,6,['k'],['k'],Y,Y,None,N,,,,,,,f,22,
18,11,281,7,7,6,['k'],['k'],Y,N,None,Y,,,,,,,f,22,
18,12,282,10,10,6,['k'],['k'],Y,Y,['space'],Y,,,,,,,f,22,
18,13,283,5,5,6,['d'],['d'],Y,N,None,Y,,,,,,,f,22,
18,14,284,6,6,6,['d'],['d'],Y,Y,None,N,,,,,,,f,22,
19,0,285,6,6,6,['d'],['d'],Y,Y,['space'],Y,,,,,,,f,22,
19,1,286,13,13,6,['k'],['k'],Y,Y,['space'],Y,,,,,,,f,22,
19,2,287,11,11,6,['k'],['k'],Y,N,None,Y,,,,,,,f,22,
19,3,288,4,4,6,['d'],['k'],N,Y,['space'],Y,,,,,,,f,22,
19,4,289,0,0,6,['k'],['d'],N,N,None,Y,,,,,,,f,22,
19,5,290,4,4,6,['d'],['d'],Y,N,None,Y,,,,,,,f,22,
19,6,291,13,13,6,['k'],['k'],Y,Y,None,N,,,,,,,f,22,
19,7,292,6,6,6,['k'],['k'],Y,Y,None,N,,,,,,,f,22,
19,8,293,5,5,6,['d'],['d'],Y,Y,['space'],Y,,,,,,,f,22,
19,9,294,13,13,6,['k'],['d'],N,N,['space'],N,,,,,,,f,22,
19,10,295,4,4,6,['d'],['d'],Y,Y,['space'],Y,,,,,,,f,22,
19,11,296,4,4,6,['k'],['k'],Y,Y,None,N,,,,,,,f,22,
19,12,297,3,3,6,['k'],['k'],Y,N,None,Y,,,,,,,f,22,
19,13,298,2,2,6,['k'],['k'],Y,Y,None,N,,,,,,,f,22,
19,14,299,14,14,6,['k'],['k'],Y,N,None,Y,42,34,20,,,,f,22,
20,0,300,7,7,7,['d'],['d'],Y,,,,,,,,,,f,22,
20,1,301,4,4,7,['d'],['d'],Y,,,,,,,,,,f,22,
20,2,302,7,7,7,['k'],['k'],Y,Y,None,N,,,,,,,f,22,
20,3,303,3,3,7,['d'],['d'],Y,Y,['space'],Y,,,,,,,f,22,
20,4,304,2,2,7,['k'],['k'],Y,Y,['k'],N,,,,,,,f,22,
20,5,305,7,7,7,['d'],['d'],Y,Y,None,N,,,,,,,f,22,
20,6,306,13,13,7,['k'],['k'],Y,N,['space'],N,,,,,,,f,22,
20,7,307,2,2,7,['d'],['d'],Y,N,None,Y,,,,,,,f,22,
20,8,308,8,8,7,['d'],['d'],Y,N,['space'],N,,,,,,,f,22,
20,9,309,0,0,7,['d'],['d'],Y,N,None,Y,,,,,,,f,22,
20,10,310,14,14,7,['k'],['k'],Y,Y,['space'],Y,,,,,,,f,22,
20,11,311,13,13,7,['k'],['k'],Y,Y,['space'],Y,,,,,,,f,22,
20,12,312,1,1,7,['k'],['k'],Y,N,None,Y,,,,,,,f,22,
20,13,313,4,4,7,['k'],['d'],N,Y,['space'],Y,,,,,,,f,22,
20,14,314,6,6,7,['d'],['d'],Y,N,None,Y,,,,,,,f,22,
21,0,315,7,7,7,['d'],['d'],Y,N,None,Y,,,,,,,f,22,
21,1,316,5,5,7,['k'],['d'],N,N,None,Y,,,,,,,f,22,
21,2,317,14,14,7,['k'],['k'],Y,Y,None,N,,,,,,,f,22,
21,3,318,14,14,7,['k'],['k'],Y,N,None,Y,,,,,,,f,22,
21,4,319,12,12,7,['d'],['d'],Y,N,None,Y,,,,,,,f,22,
21,5,320,14,14,7,['k'],['k'],Y,Y,None,N,,,,,,,f,22,
21,6,321,9,9,7,['d'],['d'],Y,Y,['space'],Y,,,,,,,f,22,
21,7,322,4,4,7,['d'],['d'],Y,Y,None,N,,,,,,,f,22,
21,8,323,4,4,7,['d'],['d'],Y,N,None,Y,,,,,,,f,22,
21,9,324,10,10,7,['k'],['k'],Y,Y,['space'],Y,,,,,,,f,22,
21,10,325,7,7,7,['d'],['d'],Y,N,None,Y,,,,,,,f,22,
21,11,326,7,7,7,['k'],['k'],Y,Y,None,N,,,,,,,f,22,
21,12,327,11,11,7,['k'],['k'],Y,N,None,Y,,,,,,,f,22,
21,13,328,6,6,7,['d'],['d'],Y,N,None,Y,,,,,,,f,22,
21,14,329,4,4,7,['k'],['k'],Y,N,None,Y,,,,,,,f,22,
22,0,330,13,13,7,['k'],['k'],Y,N,None,Y,,,,,,,f,22,
22,1,331,1,1,7,['k'],['k'],Y,N,None,Y,,,,,,,f,22,
22,2,332,7,7,7,['k'],['k'],Y,Y,None,N,,,,,,,f,22,
22,3,333,11,11,7,['d'],['d'],Y,Y,['space'],Y,,,,,,,f,22,
22,4,334,2,2,7,['k'],['d'],N,N,None,Y,,,,,,,f,22,
22,5,335,2,2,7,['k'],['d'],N,Y,['space'],Y,,,,,,,f,22,
22,6,336,13,13,7,['k'],['d'],N,Y,None,N,,,,,,,f,22,
22,7,337,10,10,7,['d'],['d'],Y,Y,['space'],Y,,,,,,,f,22,
22,8,338,5,5,7,['k'],['d'],N,N,None,Y,,,,,,,f,22,
22,9,339,10,10,7,['k'],['k'],Y,Y,None,N,,,,,,,f,22,
22,10,340,1,1,7,['k'],['k'],Y,Y,['space'],Y,,,,,,,f,22,
22,11,341,2,2,7,['k'],['k'],Y,N,None,Y,,,,,,,f,22,
22,12,342,13,13,7,['d'],['d'],Y,N,['space'],N,,,,,,,f,22,
22,13,343,1,1,7,['k'],['k'],Y,N,['space'],N,,,,,,,f,22,
22,14,344,6,6,7,['k'],['k'],Y,Y,None,N,,,,,,,f,22,
23,0,345,3,3,7,['k'],['k'],Y,Y,None,N,,,,,,,f,22,
23,1,346,12,12,7,['k'],['k'],Y,N,None,Y,,,,,,,f,22,
23,2,347,12,12,7,['k'],['d'],N,Y,['space'],Y,,,,,,,f,22,
23,3,348,13,13,7,['k'],['d'],N,Y,None,N,,,,,,,f,22,
23,4,349,12,12,7,['k'],['d'],N,N,None,Y,41,31,24,,,,f,22,
23,5,350,1,1,8,['d'],['d'],Y,,,,,,,,,,f,22,
23,6,351,11,11,8,['k'],['k'],Y,,,,,,,,,,f,22,
23,7,352,12,12,8,['d'],['d'],Y,Y,['space'],Y,,,,,,,f,22,
23,8,353,11,11,8,['k'],['d'],N,N,None,Y,,,,,,,f,22,
23,9,354,9,9,8,['k'],['k'],Y,N,None,Y,,,,,,,f,22,
23,10,355,0,0,8,['d'],['d'],Y,N,None,Y,,,,,,,f,22,
23,11,356,8,8,8,['d'],['d'],Y,Y,None,N,,,,,,,f,22,
23,12,357,8,8,8,['k'],['k'],Y,Y,['space'],Y,,,,,,,f,22,
23,13,358,11,11,8,['d'],['d'],Y,N,None,Y,,,,,,,f,22,
23,14,359,3,3,8,['k'],['k'],Y,N,None,Y,,,,,,,f,22,
24,0,360,7,7,8,['k'],['k'],Y,Y,['space'],Y,,,,,,,f,22,
24,1,361,6,6,8,['d'],['d'],Y,N,['space'],N,,,,,,,f,22,
24,2,362,1,1,8,['k'],['k'],Y,Y,['space'],Y,,,,,,,f,22,
24,3,363,2,2,8,['k'],['k'],Y,Y,['space'],Y,,,,,,,f,22,
24,4,364,3,3,8,['d'],['k'],N,Y,['space'],Y,,,,,,,f,22,
24,5,365,11,11,8,['d'],['d'],Y,Y,['space'],Y,,,,,,,f,22,
24,6,366,6,6,8,['k'],['k'],Y,Y,None,N,,,,,,,f,22,
24,7,367,14,14,8,['k'],['k'],Y,Y,['space'],Y,,,,,,,f,22,
24,8,368,5,5,8,['d'],['d'],Y,Y,['space'],Y,,,,,,,f,22,
24,9,369,8,8,8,['k'],['k'],Y,Y,None,N,,,,,,,f,22,
24,10,370,12,12,8,['k'],['k'],Y,N,None,Y,,,,,,,f,22,
24,11,371,5,5,8,['d'],['d'],Y,N,None,Y,,,,,,,f,22,
24,12,372,7,7,8,['d'],['d'],Y,N,None,Y,,,,,,,f,22,
24,13,373,13,13,8,['k'],['k'],Y,N,['space'],N,,,,,,,f,22,
24,14,374,10,10,8,['d'],['d'],Y,N,['space'],N,,,,,,,f,22,
25,0,375,9,9,8,['k'],['d'],N,Y,None,N,,,,,,,f,22,
25,1,376,3,3,8,['k'],['k'],Y,N,None,Y,,,,,,,f,22,
25,2,377,11,11,8,['k'],['k'],Y,N,None,Y,,,,,,,f,22,
25,3,378,1,1,8,['k'],['d'],N,Y,['space'],Y,,,,,,,f,22,
25,4,379,4,4,8,['k'],['d'],N,N,None,Y,,,,,,,f,22,
25,5,380,14,14,8,['k'],['k'],Y,Y,['space'],Y,,,,,,,f,22,
25,6,381,2,2,8,['d'],['d'],Y,Y,None,N,,,,,,,f,22,
25,7,382,11,11,8,['d'],['d'],Y,Y,['space'],Y,,,,,,,f,22,
25,8,383,8,8,8,['k'],['d'],N,Y,None,N,,,,,,,f,22,
25,9,384,12,12,8,['d'],['d'],Y,N,None,Y,,,,,,,f,22,
25,10,385,11,11,8,['k'],['k'],Y,N,None,Y,,,,,,,f,22,
25,11,386,8,8,8,['k'],['k'],Y,N,None,Y,,,,,,,f,22,
25,12,387,5,5,8,['k'],['k'],Y,N,['space'],N,,,,,,,f,22,
25,13,388,8,8,8,['k'],['k'],Y,N,None,Y,,,,,,,f,22,
25,14,389,13,13,8,['d'],['d'],Y,Y,None,N,,,,,,,f,22,
26,0,390,5,5,8,['d'],['d'],Y,N,None,Y,,,,,,,f,22,
26,1,391,11,11,8,['d'],['d'],Y,Y,None,N,,,,,,,f,22,
26,2,392,1,1,8,['d'],['d'],Y,Y,['space'],Y,,,,,,,f,22,
26,3,393,14,14,8,['d'],['d'],Y,N,None,Y,,,,,,,f,22,
26,4,394,6,6,8,['k'],['k'],Y,Y,None,N,,,,,,,f,22,
26,5,395,13,13,8,['k'],['k'],Y,N,None,Y,,,,,,,f,22,
26,6,396,6,6,8,['d'],['d'],Y,N,None,Y,,,,,,,f,22,
26,7,397,8,8,8,['k'],['k'],Y,Y,['space'],Y,,,,,,,f,22,
26,8,398,6,6,8,['d'],['d'],Y,Y,['space'],Y,,,,,,,f,22,
26,9,399,4,4,8,['d'],['k'],N,N,None,Y,43,35,24,,,,f,22,
26,10,400,1,1,9,['k'],['k'],Y,,,,,,,,,,f,22,
26,11,401,4,4,9,['d'],['d'],Y,,,,,,,,,,f,22,
26,12,402,2,2,9,['d'],['d'],Y,N,None,Y,,,,,,,f,22,
26,13,403,10,10,9,['d'],['k'],N,Y,['space'],Y,,,,,,,f,22,
26,14,404,14,14,9,['k'],['k'],Y,Y,['space'],Y,,,,,,,f,22,
27,0,405,14,14,9,['d'],['k'],N,Y,['space'],Y,,,,,,,f,22,
27,1,406,10,10,9,['d'],['d'],Y,Y,['space'],Y,,,,,,,f,22,
27,2,407,9,9,9,['k'],['d'],N,Y,['space'],Y,,,,,,,f,22,
27,3,408,3,3,9,['k'],['k'],Y,N,None,Y,,,,,,,f,22,
27,4,409,10,10,9,['k'],['k'],Y,Y,['space'],Y,,,,,,,f,22,
27,5,410,6,6,9,['d'],['k'],N,Y,['space'],Y,,,,,,,f,22,
27,6,411,1,1,9,['k'],['k'],Y,Y,None,N,,,,,,,f,22,
27,7,412,3,3,9,['k'],['k'],Y,Y,['k'],N,,,,,,,f,22,
27,8,413,3,3,9,['d'],['d'],Y,N,['space'],N,,,,,,,f,22,
27,9,414,3,3,9,['k'],['k'],Y,N,None,Y,,,,,,,f,22,
27,10,415,11,11,9,['d'],['d'],Y,N,None,Y,,,,,,,f,22,
27,11,416,0,0,9,['k'],['k'],Y,N,None,Y,,,,,,,f,22,
27,12,417,5,5,9,['d'],['d'],Y,N,None,Y,,,,,,,f,22,
27,13,418,12,12,9,['d'],['d'],Y,Y,['space'],Y,,,,,,,f,22,
27,14,419,8,8,9,['d'],['d'],Y,N,['space'],N,,,,,,,f,22,
28,0,420,6,6,9,['k'],['k'],Y,N,None,Y,,,,,,,f,22,
28,1,421,1,1,9,['k'],['k'],Y,N,None,Y,,,,,,,f,22,
28,2,422,6,6,9,['k'],['k'],Y,Y,None,N,,,,,,,f,22,
28,3,423,0,0,9,['d'],['d'],Y,Y,['space'],Y,,,,,,,f,22,
28,4,424,9,9,9,['d'],['d'],Y,Y,['space'],Y,,,,,,,f,22,
28,5,425,3,3,9,['k'],['k'],Y,N,None,Y,,,,,,,f,22,
28,6,426,11,11,9,['d'],['d'],Y,Y,['space'],Y,,,,,,,f,22,
28,7,427,9,9,9,['d'],['d'],Y,Y,['space'],Y,,,,,,,f,22,
28,8,428,4,4,9,['d'],['d'],Y,N,None,Y,,,,,,,f,22,
28,9,429,13,13,9,['k'],['k'],Y,Y,['space'],Y,,,,,,,f,22,
28,10,430,7,7,9,['d'],['d'],Y,Y,['space'],Y,,,,,,,f,22,
28,11,431,3,3,9,['d'],['k'],N,Y,['space'],Y,,,,,,,f,22,
28,12,432,8,8,9,['k'],['k'],Y,N,None,Y,,,,,,,f,22,
28,13,433,14,14,9,['d'],['d'],Y,N,None,Y,,,,,,,f,22,
28,14,434,3,3,9,['d'],['d'],Y,N,None,Y,,,,,,,f,22,
29,0,435,14,14,9,['d'],['d'],Y,N,['space'],N,,,,,,,f,22,
29,1,436,11,11,9,['d'],['d'],Y,N,None,Y,,,,,,,f,22,
29,2,437,5,5,9,['k'],['k'],Y,N,None,Y,,,,,,,f,22,
29,3,438,14,14,9,['d'],['d'],Y,Y,['space'],Y,,,,,,,f,22,
29,4,439,2,2,9,['k'],['k'],Y,Y,None,N,,,,,,,f,22,
29,5,440,0,0,9,['k'],['k'],Y,Y,['space'],Y,,,,,,,f,22,
29,6,441,4,4,9,['k'],['d'],N,N,None,Y,,,,,,,f,22,
29,7,442,0,0,9,['k'],['k'],Y,N,None,Y,,,,,,,f,22,
29,8,443,10,10,9,['k'],['k'],Y,Y,['space'],Y,,,,,,,f,22,
29,9,444,1,1,9,['d'],['d'],Y,Y,['space'],Y,,,,,,,f,22,
29,10,445,1,1,9,['k'],['d'],N,N,None,Y,,,,,,,f,22,
29,11,446,8,8,9,['k'],['k'],Y,Y,['space'],Y,,,,,,,f,22,
29,12,447,5,5,9,['d'],['d'],Y,Y,['space'],Y,,,,,,,f,22,
29,13,448,10,10,9,['k'],['d'],N,N,None,Y,,,,,,,f,22,
29,14,449,3,3,9,['k'],['k'],Y,N,None,Y,42,41,25,,,,f,22,
30,0,450,5,5,10,['k'],['k'],Y,,,,,,,,,,f,22,
30,1,451,7,7,10,['d'],['d'],Y,,,,,,,,,,f,22,
30,2,452,5,5,10,['k'],['d'],N,N,None,Y,,,,,,,f,22,
30,3,453,9,9,10,['k'],['k'],Y,N,None,Y,,,,,,,f,22,
30,4,454,8,8,10,['d'],['d'],Y,Y,['space'],Y,,,,,,,f,22,
30,5,455,5,5,10,['k'],['k'],Y,Y,['space'],Y,,,,,,,f,22,
30,6,456,3,3,10,['d'],['d'],Y,Y,['space'],Y,,,,,,,f,22,
30,7,457,3,3,10,['d'],['k'],N,N,None,Y,,,,,,,f,22,
30,8,458,11,11,10,['k'],['k'],Y,Y,['space'],Y,,,,,,,f,22,
30,9,459,9,9,10,['d'],['d'],Y,N,['space'],N,,,,,,,f,22,
30,10,460,14,14,10,['d'],['d'],Y,Y,['space'],Y,,,,,,,f,22,
30,11,461,0,0,10,['k'],['k'],Y,N,['d'],N,,,,,,,f,22,
30,12,462,12,12,10,['d'],['d'],Y,N,None,Y,,,,,,,f,22,
30,13,463,2,2,10,['d'],['d'],Y,N,None,Y,,,,,,,f,22,
30,14,464,1,1,10,['k'],['k'],Y,Y,['space'],Y,,,,,,,f,22,
31,0,465,7,7,10,['k'],['k'],Y,Y,['space'],Y,,,,,,,f,22,
31,1,466,9,9,10,['k'],['k'],Y,Y,['space'],Y,,,,,,,f,22,
31,2,467,0,0,10,['k'],['k'],Y,N,None,Y,,,,,,,f,22,
31,3,468,8,8,10,['d'],['d'],Y,N,['space'],N,,,,,,,f,22,
31,4,469,8,8,10,['k'],['k'],Y,Y,['space'],Y,,,,,,,f,22,
31,5,470,13,13,10,['k'],['d'],N,N,None,Y,,,,,,,f,22,
31,6,471,11,11,10,['d'],['d'],Y,N,None,Y,,,,,,,f,22,
31,7,472,7,7,10,['k'],['k'],Y,Y,None,N,,,,,,,f,22,
31,8,473,9,9,10,['d'],['d'],Y,N,['space'],N,,,,,,,f,22,
31,9,474,4,4,10,['k'],['d'],N,N,None,Y,,,,,,,f,22,
31,10,475,14,14,10,['d'],['d'],Y,N,None,Y,,,,,,,f,22,
31,11,476,12,12,10,['k'],['k'],Y,Y,['space'],Y,,,,,,,f,22,
31,12,477,7,7,10,['k'],['k'],Y,N,['space'],N,,,,,,,f,22,
31,13,478,10,10,10,['d'],['d'],Y,N,None,Y,,,,,,,f,22,
31,14,479,11,11,10,['k'],['k'],Y,N,None,Y,,,,,,,f,22,
32,0,480,7,7,10,['d'],['k'],N,N,['space'],N,,,,,,,f,22,
32,1,481,14,14,10,['k'],['k'],Y,Y,['space'],Y,,,,,,,f,22,
32,2,482,13,13,10,['d'],['d'],Y,N,None,Y,,,,,,,f,22,
32,3,483,8,8,10,['k'],['k'],Y,Y,['space'],Y,,,,,,,f,22,
32,4,484,14,14,10,['k'],['k'],Y,N,None,Y,,,,,,,f,22,
32,5,485,7,7,10,['k'],['k'],Y,Y,None,N,,,,,,,f,22,
32,6,486,8,8,10,['k'],['k'],Y,N,['space'],N,,,,,,,f,22,
32,7,487,9,9,10,['k'],['k'],Y,Y,['space'],Y,,,,,,,f,22,
32,8,488,13,13,10,['d'],['d'],Y,N,['space'],N,,,,,,,f,22,
32,9,489,9,9,10,['k'],['k'],Y,Y,['space'],Y,,,,,,,f,22,
32,10,490,0,0,10,['d'],['d'],Y,N,None,Y,,,,,,,f,22,
32,11,491,3,3,10,['k'],['k'],Y,Y,['space'],Y,,,,,,,f,22,
32,12,492,8,8,10,['k'],['k'],Y,Y,['space'],Y,,,,,,,f,22,
32,13,493,3,3,10,['d'],['d'],Y,Y,['space'],Y,,,,,,,f,22,
32,14,494,14,14,10,['k'],['k'],Y,N,None,Y,,,,,,,f,22,
33,0,495,3,3,10,['d'],['d'],Y,N,None,Y,,,,,,,f,22,
33,1,496,5,5,10,['d'],['k'],N,Y,None,N,,,,,,,f,22,
33,2,497,11,11,10,['k'],['k'],Y,N,['space'],N,,,,,,,f,22,
33,3,498,2,2,10,['k'],['k'],Y,N,None,Y,,,,,,,f,22,
33,4,499,13,13,10,['d'],['d'],Y,Y,['space'],Y,44,36,21,,,,f,22,
33,5,500,2,2,11,['d'],['d'],N,,,,,,,Y,Y,Y,f,22,
33,6,501,11,11,11,['d'],['k'],Y,,,,,,,,Y,Y,f,22,
33,7,502,11,11,11,['d'],['k'],Y,N,None,Y,,,,,Y,Y,f,22,
33,8,503,2,2,11,['k'],['d'],Y,N,['space'],N,,,,,Y,Y,f,22,
33,9,504,14,14,11,['k'],['d'],Y,N,None,Y,,,,,Y,Y,f,22,
33,10,505,6,6,11,['k'],['k'],N,Y,['space'],Y,,,,,Y,Y,f,22,
33,11,506,11,11,11,['d'],['k'],Y,Y,None,N,,,,,Y,Y,f,22,
33,12,507,3,3,11,['k'],['d'],Y,N,None,Y,,,,,Y,Y,f,22,
33,13,508,3,3,11,['k'],['k'],N,Y,None,N,,,,,Y,Y,f,22,
33,14,509,1,1,11,['k'],['d'],Y,N,None,Y,,,,,Y,Y,f,22,
34,0,510,6,6,11,['k'],['k'],N,N,None,Y,,,,,Y,Y,f,22,
34,1,511,5,5,11,['d'],['d'],N,N,['space'],N,,,,,Y,Y,f,22,
34,2,512,9,9,11,['k'],['k'],N,Y,['space'],Y,,,,,Y,Y,f,22,
34,3,513,12,12,11,['d'],['d'],N,N,None,Y,,,,,Y,Y,f,22,
34,4,514,9,9,11,['d'],['k'],Y,N,None,Y,,,,,Y,Y,f,22,
34,5,515,6,6,11,['d'],['k'],Y,N,['space'],N,,,,,Y,Y,f,22,
34,6,516,3,3,11,['d'],['k'],Y,Y,None,N,,,,,Y,Y,f,22,
34,7,517,7,7,11,['d'],['k'],Y,N,None,Y,,,,,Y,Y,f,22,
34,8,518,1,1,11,['d'],['k'],Y,Y,['space'],Y,,,,,Y,Y,f,22,
34,9,519,12,12,11,['d'],['k'],Y,N,None,Y,,,,,Y,Y,f,22,
34,10,520,2,2,11,['d'],['d'],N,N,None,Y,,,,,Y,Y,f,22,
34,11,521,8,8,11,['k'],['d'],Y,N,None,Y,,,,,Y,Y,f,22,
34,12,522,5,5,11,['k'],['k'],N,Y,['space'],Y,,,,,Y,Y,f,22,
34,13,523,12,12,11,['d'],['d'],N,Y,None,N,,,,,Y,Y,f,22,
34,14,524,5,5,11,['d'],['d'],N,Y,None,N,,,,,Y,Y,f,22,
35,0,525,10,10,11,['d'],['k'],Y,N,None,Y,,,,,Y,Y,f,22,
35,1,526,7,7,11,['d'],['d'],N,N,None,Y,,,,,Y,Y,f,22,
35,2,527,12,12,11,['k'],['d'],Y,Y,['space'],Y,,,,,Y,Y,f,22,
35,3,528,1,1,11,['k'],['k'],N,N,None,Y,,,,,Y,Y,f,22,
35,4,529,10,10,11,['d'],['k'],Y,Y,None,N,,,,,Y,Y,f,22,
35,5,530,6,6,11,['d'],['k'],Y,N,None,Y,,,,,Y,Y,f,22,
35,6,531,13,13,11,['d'],['k'],Y,N,None,Y,,,,,Y,Y,f,22,
35,7,532,9,9,11,['k'],['d'],Y,N,['space'],N,,,,,Y,Y,f,22,
35,8,533,7,7,11,['k'],['k'],N,N,None,Y,,,,,Y,Y,f,22,
35,9,534,8,8,11,['d'],['d'],N,Y,None,N,,,,,Y,Y,f,22,
35,10,535,12,12,11,['k'],['d'],Y,N,['space'],N,,,,,Y,Y,f,22,
35,11,536,1,1,11,['d'],['k'],Y,N,None,Y,,,,,Y,Y,f,22,
35,12,537,7,7,11,['d'],['k'],Y,N,None,Y,,,,,Y,Y,f,22,
35,13,538,0,0,11,['d'],['k'],Y,Y,['space'],Y,,,,,Y,Y,f,22,
35,14,539,11,11,11,['d'],['k'],Y,N,None,Y,,,,,Y,Y,f,22,
36,0,540,9,9,11,['k'],['d'],Y,Y,['space'],Y,,,,,Y,Y,f,22,
36,1,541,14,14,11,['k'],['k'],N,N,None,Y,,,,,Y,Y,f,22,
36,2,542,2,2,11,['d'],['k'],Y,Y,['space'],Y,,,,,Y,Y,f,22,
36,3,543,8,8,11,['d'],['k'],Y,N,None,Y,,,,,Y,Y,f,22,
36,4,544,8,8,11,['d'],['k'],Y,Y,None,N,,,,,Y,Y,f,22,
36,5,545,12,12,11,['k'],['d'],Y,N,['space'],N,,,,,Y,Y,f,22,
36,6,546,10,10,11,['d'],['d'],N,N,None,Y,,,,,Y,Y,f,22,
36,7,547,5,5,11,['k'],['d'],Y,Y,None,N,,,,,Y,Y,f,22,
36,8,548,11,11,11,['d'],['k'],Y,Y,None,N,,,,,Y,Y,f,22,
36,9,549,0,0,11,['d'],['k'],Y,N,None,Y,33,32,18,,Y,Y,f,22,
36,10,550,10,10,12,['d'],['k'],Y,,,,,,,,Y,Y,f,22,
36,11,551,4,4,12,['k'],['d'],Y,,,,,,,,Y,Y,f,22,
36,12,552,4,4,12,['d'],['k'],Y,Y,['space'],Y,,,,,Y,Y,f,22,
36,13,553,6,6,12,['d'],['d'],N,Y,['space'],Y,,,,,Y,Y,f,22,
36,14,554,5,5,12,['d'],['k'],Y,Y,['space'],Y,,,,,Y,Y,f,22,
37,0,555,12,12,12,['k'],['d'],Y,N,None,Y,,,,,Y,Y,f,22,
37,1,556,10,10,12,['k'],['d'],Y,N,None,Y,,,,,Y,Y,f,22,
37,2,557,6,6,12,['k'],['d'],Y,N,None,Y,,,,,Y,Y,f,22,
37,3,558,3,3,12,['d'],['d'],N,Y,['space'],Y,,,,,Y,Y,f,22,
37,4,559,14,14,12,['k'],['d'],Y,Y,['k'],N,,,,,Y,Y,f,22,
37,5,560,7,7,12,['k'],['k'],N,Y,['space'],Y,,,,,Y,Y,f,22,
37,6,561,3,3,12,['d'],['k'],Y,Y,['space'],Y,,,,,Y,Y,f,22,
37,7,562,13,13,12,['k'],['d'],Y,Y,['space'],Y,,,,,Y,Y,f,22,
37,8,563,2,2,12,['k'],['d'],Y,Y,['space'],Y,,,,,Y,Y,f,22,
37,9,564,13,13,12,['d'],['d'],N,N,None,Y,,,,,Y,Y,f,22,
37,10,565,0,0,12,['k'],['d'],Y,Y,None,N,,,,,Y,Y,f,22,
37,11,566,2,2,12,['k'],['d'],Y,Y,None,N,,,,,Y,Y,f,22,
37,12,567,14,14,12,['d'],['d'],N,Y,['space'],Y,,,,,Y,Y,f,22,
37,13,568,6,6,12,['d'],['k'],Y,Y,None,N,,,,,Y,Y,f,22,
37,14,569,6,6,12,['d'],['k'],Y,N,['space'],N,,,,,Y,Y,f,22,
38,0,570,2,2,12,['d'],['k'],Y,N,None,Y,,,,,Y,Y,f,22,
38,1,571,4,4,12,['d'],['k'],Y,Y,['space'],Y,,,,,Y,Y,f,22,
38,2,572,2,2,12,['d'],['d'],N,Y,['space'],Y,,,,,Y,Y,f,22,
38,3,573,13,13,12,['k'],['d'],Y,Y,['space'],Y,,,,,Y,Y,f,22,
38,4,574,12,12,12,['d'],['k'],Y,Y,['space'],Y,,,,,Y,Y,f,22,
38,5,575,2,2,12,['k'],['d'],Y,N,['space'],N,,,,,Y,Y,f,22,
38,6,576,1,1,12,['k'],['d'],Y,Y,['space'],Y,,,,,Y,Y,f,22,
38,7,577,13,13,12,['k'],['d'],Y,Y,['space'],Y,,,,,Y,Y,f,22,
38,8,578,2,2,12,['d'],['d'],N,N,None,Y,,,,,Y,Y,f,22,
38,9,579,2,2,12,['k'],['d'],Y,Y,['space'],Y,,,,,Y,Y,f,22,
38,10,580,1,1,12,['d'],['k'],Y,N,None,Y,,,,,Y,Y,f,22,
38,11,581,5,5,12,['k'],['d'],Y,N,None,Y,,,,,Y,Y,f,22,
38,12,582,12,12,12,['k'],['d'],Y,N,None,Y,,,,,Y,Y,f,22,
38,13,583,2,2,12,['k'],['d'],Y,N,['space'],N,,,,,Y,Y,f,22,
38,14,584,6,6,12,['d'],['k'],Y,N,None,Y,,,,,Y,Y,f,22,
39,0,585,2,2,12,['d'],['k'],Y,Y,None,N,,,,,Y,Y,f,22,
39,1,586,14,14,12,['k'],['d'],Y,Y,None,N,,,,,Y,Y,f,22,
39,2,587,12,12,12,['d'],['k'],Y,Y,['space'],Y,,,,,Y,Y,f,22,
39,3,588,3,3,12,['k'],['k'],N,Y,None,N,,,,,Y,Y,f,22,
39,4,589,13,13,12,['k'],['d'],Y,N,None,Y,,,,,Y,Y,f,22,
39,5,590,11,11,12,['k'],['d'],Y,Y,['space'],Y,,,,,Y,Y,f,22,
39,6,591,10,10,12,['k'],['d'],Y,N,None,Y,,,,,Y,Y,f,22,
39,7,592,14,14,12,['k'],['d'],Y,N,['space'],N,,,,,Y,Y,f,22,
39,8,593,8,8,12,['d'],['k'],Y,N,None,Y,,,,,Y,Y,f,22,
39,9,594,4,4,12,['d'],['d'],N,N,None,Y,,,,,Y,Y,f,22,
39,10,595,3,3,12,['k'],['d'],Y,N,None,Y,,,,,Y,Y,f,22,
39,11,596,13,13,12,['d'],['d'],N,N,None,Y,,,,,Y,Y,f,22,
39,12,597,6,6,12,['d'],['k'],Y,N,None,Y,,,,,Y,Y,f,22,
39,13,598,1,1,12,['k'],['d'],Y,N,None,Y,,,,,Y,Y,f,22,
39,14,599,12,12,12,['k'],['k'],N,N,['space'],N,39,36,25,,Y,Y,f,22,
