.thisRepN,.thisTrialN,.thisN,.thisIndex,.thisTrial,Block Number,Key pressed,Category,Correct?,Int Match?,Int Response,Int Correct?,Line Accuracy,Interference Accuracy,Matching Interferences,New instruction shown?,Buttons switched?,Fast?,gender,age,
0,0,0,14,14,1,['k'],['k'],Y,,,,,,,,,,F,29,
0,1,1,7,7,1,['d'],['d'],Y,,,,,,,,,,F,29,
0,2,2,10,10,1,['k'],['k'],Y,N,None,Y,,,,,,,F,29,
0,3,3,7,7,1,['d'],['k'],N,Y,None,N,,,,,,,F,29,
0,4,4,13,13,1,['k'],['d'],N,N,None,Y,,,,,,,F,29,
0,5,5,7,7,1,['d'],['k'],N,Y,['space'],Y,,,,,,,F,29,
0,6,6,4,4,1,['k'],['d'],N,N,None,Y,,,,,,,F,29,
0,7,7,1,1,1,['d'],['k'],N,Y,None,N,,,,,,,F,29,
0,8,8,0,0,1,['d'],['k'],N,Y,None,N,,,,,,,F,29,
0,9,9,10,10,1,['k'],['d'],N,Y,None,N,,,,,,,F,29,
0,10,10,3,3,1,['k'],['d'],N,N,None,Y,,,,,,,F,29,
0,11,11,3,3,1,['k'],['k'],Y,Y,None,N,,,,,,,F,29,
0,12,12,2,2,1,['k'],['k'],Y,Y,None,N,,,,,,,F,29,
0,13,13,6,6,1,['k'],['k'],Y,Y,['space'],Y,,,,,,,F,29,
0,14,14,2,2,1,['k'],['d'],N,Y,None,N,,,,,,,F,29,
1,0,15,14,14,1,['k'],['k'],Y,N,None,Y,,,,,,,F,29,
1,1,16,0,0,1,['k'],['d'],N,N,None,Y,,,,,,,F,29,
1,2,17,12,12,1,['d'],['k'],N,Y,None,N,,,,,,,F,29,
1,3,18,7,7,1,['k'],['k'],Y,N,None,Y,,,,,,,F,29,
1,4,19,14,14,1,['k'],['k'],Y,N,None,Y,,,,,,,F,29,
1,5,20,2,2,1,['k'],['k'],Y,Y,['space'],Y,,,,,,,F,29,
1,6,21,11,11,1,['k'],['k'],Y,N,None,Y,,,,,,,F,29,
1,7,22,10,10,1,['k'],['d'],N,N,None,Y,,,,,,,F,29,
1,8,23,11,11,1,['d'],['k'],N,Y,None,N,,,,,,,F,29,
1,9,24,6,6,1,['d'],['d'],Y,Y,['d'],N,,,,,,,F,29,
1,10,25,5,5,1,['d'],['d'],Y,N,None,Y,,,,,,,F,29,
1,11,26,10,10,1,['d'],['d'],Y,Y,None,N,,,,,,,F,29,
1,12,27,11,11,1,['k'],['k'],Y,Y,None,N,,,,,,,F,29,
1,13,28,12,12,1,['k'],['d'],N,Y,None,N,,,,,,,F,29,
1,14,29,12,12,1,['k'],['d'],N,N,None,Y,,,,,,,F,29,
2,0,30,13,13,1,['d'],['d'],Y,N,None,Y,,,,,,,F,29,
2,1,31,13,13,1,['d'],['d'],Y,N,None,Y,,,,,,,F,29,
2,2,32,8,8,1,['d'],['k'],N,N,None,Y,,,,,,,F,29,
2,3,33,5,5,1,['k'],['k'],Y,Y,None,N,,,,,,,F,29,
2,4,34,3,3,1,['k'],['d'],N,Y,None,N,,,,,,,F,29,
2,5,35,0,0,1,['d'],['d'],Y,N,['d'],N,,,,,,,F,29,
2,6,36,5,5,1,['k'],['d'],N,Y,['space'],Y,,,,,,,F,29,
2,7,37,0,0,1,['k'],['d'],N,N,None,Y,,,,,,,F,29,
2,8,38,14,14,1,['d'],['k'],N,Y,None,N,,,,,,,F,29,
2,9,39,8,8,1,['d'],['d'],Y,Y,None,N,,,,,,,F,29,
2,10,40,5,5,1,['k'],['k'],Y,Y,None,N,,,,,,,F,29,
2,11,41,1,1,1,['k'],['k'],Y,N,None,Y,,,,,,,F,29,
2,12,42,3,3,1,['k'],['k'],Y,Y,None,N,,,,,,,F,29,
2,13,43,4,4,1,['k'],['k'],Y,N,None,Y,,,,,,,F,29,
2,14,44,4,4,1,['k'],['d'],N,Y,['space'],Y,,,,,,,F,29,
3,0,45,6,6,1,['d'],['k'],N,Y,None,N,,,,,,,F,29,
3,1,46,14,14,1,['k'],['d'],N,N,None,Y,,,,,,,F,29,
3,2,47,13,13,1,['k'],['d'],N,N,None,Y,,,,,,,F,29,
3,3,48,12,12,1,['k'],['d'],N,N,None,Y,,,,,,,F,29,
3,4,49,3,3,1,['k'],['d'],N,N,None,Y,24,27,25,,,,F,29,
3,5,50,8,8,2,['d'],['d'],Y,,,,,,,,,,F,29,
3,6,51,14,14,2,['d'],['d'],Y,,,,,,,,,,F,29,
3,7,52,5,5,2,['k'],['d'],N,Y,['space'],Y,,,,,,,F,29,
3,8,53,14,14,2,['d'],['k'],N,Y,None,N,,,,,,,F,29,
3,9,54,11,11,2,['k'],['d'],N,Y,['space'],Y,,,,,,,F,29,
3,10,55,2,2,2,['d'],['k'],N,N,None,Y,,,,,,,F,29,
3,11,56,12,12,2,['k'],['d'],N,Y,['space'],Y,,,,,,,F,29,
3,12,57,1,1,2,['d'],['k'],N,Y,None,N,,,,,,,F,29,
3,13,58,4,4,2,['k'],['k'],Y,N,None,Y,,,,,,,F,29,
3,14,59,11,11,2,['k'],['k'],Y,Y,None,N,,,,,,,F,29,
4,0,60,2,2,2,['k'],['k'],Y,Y,['space'],Y,,,,,,,F,29,
4,1,61,4,4,2,['k'],['k'],Y,Y,['space'],Y,,,,,,,F,29,
4,2,62,7,7,2,['k'],['k'],Y,N,None,Y,,,,,,,F,29,
4,3,63,2,2,2,['k'],['d'],N,N,['space'],N,,,,,,,F,29,
4,4,64,5,5,2,['d'],['k'],N,Y,None,N,,,,,,,F,29,
4,5,65,1,1,2,['k'],['k'],Y,Y,None,N,,,,,,,F,29,
4,6,66,2,2,2,['k'],['k'],Y,Y,['space'],Y,,,,,,,F,29,
4,7,67,6,6,2,['k'],['d'],N,Y,['space'],Y,,,,,,,F,29,
4,8,68,10,10,2,['d'],['k'],N,N,None,Y,,,,,,,F,29,
4,9,69,7,7,2,['k'],['d'],N,Y,['space'],Y,,,,,,,F,29,
4,10,70,3,3,2,['d'],['d'],Y,Y,['d'],N,,,,,,,F,29,
4,11,71,0,0,2,['d'],['d'],Y,Y,None,N,,,,,,,F,29,
4,12,72,0,0,2,['d'],['d'],Y,N,None,Y,,,,,,,F,29,
4,13,73,10,10,2,['d'],['k'],N,N,None,Y,,,,,,,F,29,
4,14,74,3,3,2,['k'],['k'],Y,N,['k'],N,,,,,,,F,29,
5,0,75,10,10,2,['k'],['k'],Y,Y,None,N,,,,,,,F,29,
5,1,76,7,7,2,['k'],['d'],N,N,None,Y,,,,,,,F,29,
5,2,77,8,8,2,['d'],['d'],Y,N,None,Y,,,,,,,F,29,
5,3,78,2,2,2,['d'],['k'],N,N,None,Y,,,,,,,F,29,
5,4,79,11,11,2,['k'],['k'],Y,Y,None,N,,,,,,,F,29,
5,5,80,4,4,2,['k'],['k'],Y,N,None,Y,,,,,,,F,29,
5,6,81,7,7,2,['k'],['k'],Y,N,None,Y,,,,,,,F,29,
5,7,82,4,4,2,['k'],['k'],Y,N,None,Y,,,,,,,F,29,
5,8,83,10,10,2,['k'],['k'],Y,N,None,Y,,,,,,,F,29,
5,9,84,7,7,2,['k'],['k'],Y,Y,['space'],Y,,,,,,,F,29,
5,10,85,10,10,2,['d'],['k'],N,Y,None,N,,,,,,,F,29,
5,11,86,12,12,2,['k'],['d'],N,N,None,Y,,,,,,,F,29,
5,12,87,6,6,2,['d'],['k'],N,N,None,Y,,,,,,,F,29,
5,13,88,12,12,2,['d'],['k'],N,Y,None,N,,,,,,,F,29,
5,14,89,4,4,2,['d'],['d'],Y,N,None,Y,,,,,,,F,29,
6,0,90,6,6,2,['d'],['d'],Y,Y,['space'],Y,,,,,,,F,29,
6,1,91,9,9,2,['k'],['k'],Y,N,None,Y,,,,,,,F,29,
6,2,92,3,3,2,['k'],['d'],N,N,None,Y,,,,,,,F,29,
6,3,93,12,12,2,['d'],['d'],Y,Y,['space'],Y,,,,,,,F,29,
6,4,94,13,13,2,['k'],['d'],N,Y,None,N,,,,,,,F,29,
6,5,95,7,7,2,['d'],['d'],Y,Y,['space'],Y,,,,,,,F,29,
6,6,96,5,5,2,['d'],['d'],Y,Y,['space'],Y,,,,,,,F,29,
6,7,97,3,3,2,['d'],['d'],Y,N,['space'],N,,,,,,,F,29,
6,8,98,9,9,2,['k'],['k'],Y,N,None,Y,,,,,,,F,29,
6,9,99,13,13,2,['k'],['d'],N,N,None,Y,29,33,25,,,,F,29,
6,10,100,11,11,3,['k'],['k'],Y,,,,,,,,,,F,29,
6,11,101,12,12,3,['k'],['d'],N,,,,,,,,,,F,29,
6,12,102,6,6,3,['k'],['d'],N,Y,['space'],Y,,,,,,,F,29,
6,13,103,12,12,3,['d'],['d'],Y,N,['space'],N,,,,,,,F,29,
6,14,104,11,11,3,['d'],['k'],N,N,['space'],N,,,,,,,F,29,
7,0,105,13,13,3,['k'],['k'],Y,Y,['space'],Y,,,,,,,F,29,
7,1,106,7,7,3,['k'],['k'],Y,N,['k'],N,,,,,,,F,29,
7,2,107,8,8,3,['k'],['k'],Y,N,['space'],N,,,,,,,F,29,
7,3,108,6,6,3,['k'],['d'],N,N,None,Y,,,,,,,F,29,
7,4,109,0,0,3,['d'],['d'],Y,N,['d'],N,,,,,,,F,29,
7,5,110,9,9,3,['d'],['k'],N,Y,None,N,,,,,,,F,29,
7,6,111,2,2,3,['k'],['k'],Y,N,None,Y,,,,,,,F,29,
7,7,112,4,4,3,['d'],['k'],N,N,None,Y,,,,,,,F,29,
7,8,113,12,12,3,['k'],['k'],Y,N,['k'],N,,,,,,,F,29,
7,9,114,2,2,3,['k'],['k'],Y,N,None,Y,,,,,,,F,29,
7,10,115,1,1,3,['k'],['k'],Y,Y,None,N,,,,,,,F,29,
7,11,116,9,9,3,['k'],['k'],Y,N,None,Y,,,,,,,F,29,
7,12,117,11,11,3,['k'],['d'],N,Y,None,N,,,,,,,F,29,
7,13,118,11,11,3,['d'],['d'],Y,Y,None,N,,,,,,,F,29,
7,14,119,13,13,3,['k'],['k'],Y,Y,None,N,,,,,,,F,29,
8,0,120,9,9,3,['k'],['d'],N,N,None,Y,,,,,,,F,29,
8,1,121,7,7,3,['k'],['d'],N,Y,None,N,,,,,,,F,29,
8,2,122,2,2,3,['k'],['k'],Y,N,None,Y,,,,,,,F,29,
8,3,123,10,10,3,['d'],['d'],Y,N,None,Y,,,,,,,F,29,
8,4,124,3,3,3,['d'],['k'],N,N,None,Y,,,,,,,F,29,
8,5,125,2,2,3,['k'],['d'],N,N,['space'],N,,,,,,,F,29,
8,6,126,13,13,3,['d'],['k'],N,N,None,Y,,,,,,,F,29,
8,7,127,0,0,3,['d'],['k'],N,N,None,Y,,,,,,,F,29,
8,8,128,8,8,3,['k'],['k'],Y,N,['k'],N,,,,,,,F,29,
8,9,129,12,12,3,['k'],['k'],Y,Y,None,N,,,,,,,F,29,
8,10,130,6,6,3,['d'],['d'],Y,N,None,Y,,,,,,,F,29,
8,11,131,9,9,3,['d'],['d'],Y,Y,None,N,,,,,,,F,29,
8,12,132,10,10,3,['d'],['d'],Y,Y,['space'],Y,,,,,,,F,29,
8,13,133,4,4,3,['d'],['d'],Y,N,None,Y,,,,,,,F,29,
8,14,134,8,8,3,['k'],['k'],Y,N,None,Y,,,,,,,F,29,
9,0,135,4,4,3,['k'],['k'],Y,Y,['space'],Y,,,,,,,F,29,
9,1,136,2,2,3,['d'],['k'],N,Y,None,N,,,,,,,F,29,
9,2,137,8,8,3,['k'],['d'],N,Y,None,N,,,,,,,F,29,
9,3,138,4,4,3,['k'],['k'],Y,Y,None,N,,,,,,,F,29,
9,4,139,1,1,3,['k'],['k'],Y,N,None,Y,,,,,,,F,29,
9,5,140,11,11,3,['d'],['d'],Y,N,None,Y,,,,,,,F,29,
9,6,141,14,14,3,['k'],['k'],Y,Y,None,N,,,,,,,F,29,
9,7,142,8,8,3,['k'],['d'],N,N,None,Y,,,,,,,F,29,
9,8,143,13,13,3,['d'],['k'],N,N,None,Y,,,,,,,F,29,
9,9,144,9,9,3,['k'],['k'],Y,N,None,Y,,,,,,,F,29,
9,10,145,12,12,3,['k'],['d'],N,N,None,Y,,,,,,,F,29,
9,11,146,10,10,3,['k'],['k'],Y,N,None,Y,,,,,,,F,29,
9,12,147,8,8,3,['k'],['d'],N,N,None,Y,,,,,,,F,29,
9,13,148,13,13,3,['k'],['k'],Y,Y,['space'],Y,,,,,,,F,29,
9,14,149,0,0,3,['k'],['d'],N,N,None,Y,30,28,17,,,,F,29,
10,0,150,5,5,4,['d'],['d'],Y,,,,,,,,,,F,29,
10,1,151,14,14,4,['d'],['k'],N,,,,,,,,,,F,29,
10,2,152,11,11,4,['d'],['k'],N,N,None,Y,,,,,,,F,29,
10,3,153,8,8,4,['d'],['d'],Y,Y,None,N,,,,,,,F,29,
10,4,154,12,12,4,['d'],['k'],N,Y,None,N,,,,,,,F,29,
10,5,155,3,3,4,['d'],['k'],N,Y,None,N,,,,,,,F,29,
10,6,156,12,12,4,['d'],['d'],Y,Y,None,N,,,,,,,F,29,
10,7,157,8,8,4,['d'],['d'],Y,N,None,Y,,,,,,,F,29,
10,8,158,12,12,4,['d'],['d'],Y,N,None,Y,,,,,,,F,29,
10,9,159,0,0,4,['d'],['d'],Y,Y,['space'],Y,,,,,,,F,29,
10,10,160,5,5,4,['d'],['d'],Y,Y,['space'],Y,,,,,,,F,29,
10,11,161,2,2,4,['d'],['k'],N,Y,['space'],Y,,,,,,,F,29,
10,12,162,9,9,4,['d'],['k'],N,Y,['space'],Y,,,,,,,F,29,
10,13,163,9,9,4,['k'],['d'],N,N,['space'],N,,,,,,,F,29,
10,14,164,5,5,4,['k'],['d'],N,Y,['space'],Y,,,,,,,F,29,
11,0,165,6,6,4,['k'],['k'],Y,Y,None,N,,,,,,,F,29,
11,1,166,12,12,4,['d'],['d'],Y,Y,['space'],Y,,,,,,,F,29,
11,2,167,5,5,4,['d'],['d'],Y,Y,None,N,,,,,,,F,29,
11,3,168,4,4,4,['d'],['k'],N,Y,['space'],Y,,,,,,,F,29,
11,4,169,10,10,4,['k'],['d'],N,N,None,Y,,,,,,,F,29,
11,5,170,13,13,4,['d'],['k'],N,N,None,Y,,,,,,,F,29,
11,6,171,9,9,4,['d'],['d'],Y,Y,['space'],Y,,,,,,,F,29,
11,7,172,0,0,4,['d'],['k'],N,N,None,Y,,,,,,,F,29,
11,8,173,0,0,4,['d'],['k'],N,N,None,Y,,,,,,,F,29,
11,9,174,2,2,4,['d'],['k'],N,Y,None,N,,,,,,,F,29,
11,10,175,14,14,4,['k'],['k'],Y,Y,['space'],Y,,,,,,,F,29,
11,11,176,3,3,4,['k'],['d'],N,Y,['space'],Y,,,,,,,F,29,
11,12,177,0,0,4,['k'],['k'],Y,Y,['k'],N,,,,,,,F,29,
11,13,178,8,8,4,['d'],['d'],Y,N,None,Y,,,,,,,F,29,
11,14,179,0,0,4,['k'],['k'],Y,Y,['space'],Y,,,,,,,F,29,
12,0,180,12,12,4,['k'],['d'],N,N,['space'],N,,,,,,,F,29,
12,1,181,6,6,4,['k'],['d'],N,N,None,Y,,,,,,,F,29,
12,2,182,2,2,4,['d'],['d'],Y,N,None,Y,,,,,,,F,29,
12,3,183,0,0,4,['k'],['d'],N,Y,None,N,,,,,,,F,29,
12,4,184,9,9,4,['d'],['k'],N,N,None,Y,,,,,,,F,29,
12,5,185,9,9,4,['d'],['k'],N,N,None,Y,,,,,,,F,29,
12,6,186,1,1,4,['k'],['d'],N,N,None,Y,,,,,,,F,29,
12,7,187,9,9,4,['d'],['k'],N,N,None,Y,,,,,,,F,29,
12,8,188,12,12,4,['k'],['d'],N,N,None,Y,,,,,,,F,29,
12,9,189,1,1,4,['k'],['k'],Y,Y,None,N,,,,,,,F,29,
12,10,190,3,3,4,['k'],['k'],Y,Y,None,N,,,,,,,F,29,
12,11,191,5,5,4,['k'],['k'],Y,N,None,Y,,,,,,,F,29,
12,12,192,1,1,4,['k'],['d'],N,Y,['k'],N,,,,,,,F,29,
12,13,193,3,3,4,['k'],['d'],N,N,None,Y,,,,,,,F,29,
12,14,194,3,3,4,['k'],['d'],N,Y,['space'],Y,,,,,,,F,29,
13,0,195,9,9,4,['k'],['d'],N,N,['k'],N,,,,,,,F,29,
13,1,196,0,0,4,['d'],['d'],Y,N,['space'],N,,,,,,,F,29,
13,2,197,10,10,4,['d'],['d'],Y,Y,None,N,,,,,,,F,29,
13,3,198,12,12,4,['d'],['k'],N,N,['space'],N,,,,,,,F,29,
13,4,199,12,12,4,['k'],['k'],Y,N,None,Y,22,30,25,,,,F,29,
13,5,200,9,9,5,['k'],['k'],Y,,,,,,,,,,F,29,
13,6,201,0,0,5,['k'],['k'],Y,,,,,,,,,,F,29,
13,7,202,11,11,5,['k'],['d'],N,Y,None,N,,,,,,,F,29,
13,8,203,8,8,5,['k'],['d'],N,N,None,Y,,,,,,,F,29,
13,9,204,13,13,5,['k'],['k'],Y,Y,['space'],Y,,,,,,,F,29,
13,10,205,14,14,5,['k'],['k'],Y,Y,['space'],Y,,,,,,,F,29,
13,11,206,7,7,5,['d'],['k'],N,Y,['space'],Y,,,,,,,F,29,
13,12,207,7,7,5,['k'],['k'],Y,Y,['space'],Y,,,,,,,F,29,
13,13,208,3,3,5,['k'],['d'],N,Y,['space'],Y,,,,,,,F,29,
13,14,209,12,12,5,['k'],['d'],N,Y,['space'],Y,,,,,,,F,29,
14,0,210,13,13,5,['d'],['k'],N,N,['space'],N,,,,,,,F,29,
14,1,211,10,10,5,['k'],['d'],N,Y,['space'],Y,,,,,,,F,29,
14,2,212,4,4,5,['k'],['d'],N,N,None,Y,,,,,,,F,29,
14,3,213,12,12,5,['k'],['k'],Y,N,None,Y,,,,,,,F,29,
14,4,214,5,5,5,['k'],['d'],N,N,None,Y,,,,,,,F,29,
14,5,215,4,4,5,['k'],['d'],N,Y,['space'],Y,,,,,,,F,29,
14,6,216,12,12,5,['k'],['k'],Y,N,['k'],N,,,,,,,F,29,
14,7,217,4,4,5,['k'],['k'],Y,N,None,Y,,,,,,,F,29,
14,8,218,11,11,5,['k'],['d'],N,N,['space'],N,,,,,,,F,29,
14,9,219,1,1,5,['d'],['k'],N,N,None,Y,,,,,,,F,29,
14,10,220,1,1,5,['d'],['k'],N,Y,['d'],N,,,,,,,F,29,
14,11,221,11,11,5,['d'],['k'],N,N,None,Y,,,,,,,F,29,
14,12,222,10,10,5,['k'],['d'],N,N,['d'],N,,,,,,,F,29,
14,13,223,10,10,5,['d'],['d'],Y,Y,['d'],N,,,,,,,F,29,
14,14,224,6,6,5,['k'],['d'],N,N,None,Y,,,,,,,F,29,
15,0,225,0,0,5,['d'],['d'],Y,N,None,Y,,,,,,,F,29,
15,1,226,1,1,5,['k'],['k'],Y,Y,None,N,,,,,,,F,29,
15,2,227,10,10,5,['k'],['d'],N,N,None,Y,,,,,,,F,29,
15,3,228,14,14,5,['k'],['k'],Y,Y,None,N,,,,,,,F,29,
15,4,229,5,5,5,['k'],['d'],N,N,['k'],N,,,,,,,F,29,
15,5,230,1,1,5,['k'],['d'],N,Y,None,N,,,,,,,F,29,
15,6,231,10,10,5,['k'],['d'],N,Y,None,N,,,,,,,F,29,
15,7,232,9,9,5,['d'],['k'],N,N,None,Y,,,,,,,F,29,
15,8,233,1,1,5,['d'],['k'],N,N,None,Y,,,,,,,F,29,
15,9,234,1,1,5,['d'],['k'],N,N,['space'],N,,,,,,,F,29,
15,10,235,0,0,5,['d'],['d'],Y,N,None,Y,,,,,,,F,29,
15,11,236,6,6,5,['k'],['d'],N,N,None,Y,,,,,,,F,29,
15,12,237,13,13,5,['d'],['d'],Y,Y,['d'],N,,,,,,,F,29,
15,13,238,5,5,5,None,,Timed out,N,None,Y,,,,,,,F,29,
15,14,239,2,2,5,['d'],['d'],Y,Y,None,N,,,,,,,F,29,
16,0,240,12,12,5,['k'],['k'],Y,N,None,Y,,,,,,,F,29,
16,1,241,11,11,5,['k'],['k'],Y,Y,None,N,,,,,,,F,29,
16,2,242,4,4,5,['k'],['k'],Y,Y,['space'],Y,,,,,,,F,29,
16,3,243,14,14,5,['k'],['k'],Y,Y,None,N,,,,,,,F,29,
16,4,244,4,4,5,['k'],['d'],N,Y,None,N,,,,,,,F,29,
16,5,245,3,3,5,['d'],['k'],N,N,None,Y,,,,,,,F,29,
16,6,246,2,2,5,['d'],['d'],Y,N,None,Y,,,,,,,F,29,
16,7,247,11,11,5,['d'],['d'],Y,N,None,Y,,,,,,,F,29,
16,8,248,4,4,5,['d'],['d'],Y,N,None,Y,,,,,,,F,29,
16,9,249,13,13,5,['k'],['d'],N,N,None,Y,22,30,21,,,,F,29,
16,10,250,6,6,6,['d'],['k'],N,,,,,,,,,,F,29,
16,11,251,0,0,6,['k'],['d'],N,,,,,,,,,,F,29,
16,12,252,7,7,6,['d'],['d'],Y,Y,None,N,,,,,,,F,29,
16,13,253,7,7,6,['d'],['d'],Y,N,None,Y,,,,,,,F,29,
16,14,254,2,2,6,['d'],['k'],N,Y,None,N,,,,,,,F,29,
17,0,255,12,12,6,['d'],['d'],Y,Y,['space'],Y,,,,,,,F,29,
17,1,256,4,4,6,['k'],['k'],Y,Y,['space'],Y,,,,,,,F,29,
17,2,257,9,9,6,['d'],['k'],N,N,None,Y,,,,,,,F,29,
17,3,258,2,2,6,['k'],['d'],N,Y,['space'],Y,,,,,,,F,29,
17,4,259,14,14,6,['k'],['k'],Y,N,None,Y,,,,,,,F,29,
17,5,260,14,14,6,['k'],['k'],Y,N,None,Y,,,,,,,F,29,
17,6,261,1,1,6,['k'],['d'],N,N,None,Y,,,,,,,F,29,
17,7,262,14,14,6,['d'],['d'],Y,N,None,Y,,,,,,,F,29,
17,8,263,4,4,6,['d'],['k'],N,Y,['d'],N,,,,,,,F,29,
17,9,264,10,10,6,['k'],['d'],N,Y,['k'],N,,,,,,,F,29,
17,10,265,7,7,6,['d'],['k'],N,Y,None,N,,,,,,,F,29,
17,11,266,9,9,6,['d'],['k'],N,N,None,Y,,,,,,,F,29,
17,12,267,10,10,6,['d'],['k'],N,Y,None,N,,,,,,,F,29,
17,13,268,14,14,6,['d'],['k'],N,Y,['space'],Y,,,,,,,F,29,
17,14,269,8,8,6,['d'],['d'],Y,N,None,Y,,,,,,,F,29,
18,0,270,1,1,6,['d'],['k'],N,N,None,Y,,,,,,,F,29,
18,1,271,9,9,6,['d'],['d'],Y,Y,['space'],Y,,,,,,,F,29,
18,2,272,13,13,6,['d'],['d'],Y,N,None,Y,,,,,,,F,29,
18,3,273,8,8,6,['d'],['d'],Y,N,None,Y,,,,,,,F,29,
18,4,274,1,1,6,['d'],['d'],Y,N,['k'],N,,,,,,,F,29,
18,5,275,14,14,6,['d'],['d'],Y,N,None,Y,,,,,,,F,29,
18,6,276,10,10,6,['d'],['d'],Y,N,None,Y,,,,,,,F,29,
18,7,277,10,10,6,['d'],['d'],Y,N,None,Y,,,,,,,F,29,
18,8,278,8,8,6,['d'],['k'],N,Y,None,N,,,,,,,F,29,
18,9,279,10,10,6,['k'],['k'],Y,N,None,Y,,,,,,,F,29,
18,10,280,11,11,6,['d'],['k'],N,Y,None,N,,,,,,,F,29,
18,11,281,13,13,6,['d'],['k'],N,Y,None,N,,,,,,,F,29,
18,12,282,14,14,6,['k'],['d'],N,Y,['space'],Y,,,,,,,F,29,
18,13,283,10,10,6,['k'],['d'],N,Y,['k'],N,,,,,,,F,29,
18,14,284,5,5,6,['k'],['d'],N,Y,None,N,,,,,,,F,29,
19,0,285,10,10,6,['k'],['d'],N,N,None,Y,,,,,,,F,29,
19,1,286,1,1,6,['k'],['k'],Y,N,None,Y,,,,,,,F,29,
19,2,287,6,6,6,['d'],['k'],N,N,None,Y,,,,,,,F,29,
19,3,288,11,11,6,['k'],['d'],N,Y,['space'],Y,,,,,,,F,29,
19,4,289,12,12,6,['d'],['k'],N,N,None,Y,,,,,,,F,29,
19,5,290,13,13,6,['d'],['k'],N,N,None,Y,,,,,,,F,29,
19,6,291,1,1,6,['k'],['k'],Y,Y,['space'],Y,,,,,,,F,29,
19,7,292,9,9,6,['d'],['d'],Y,Y,None,N,,,,,,,F,29,
19,8,293,4,4,6,['d'],['k'],N,Y,['space'],Y,,,,,,,F,29,
19,9,294,10,10,6,['d'],['k'],N,N,['d'],N,,,,,,,F,29,
19,10,295,0,0,6,['d'],['k'],N,N,None,Y,,,,,,,F,29,
19,11,296,2,2,6,['k'],['k'],Y,N,None,Y,,,,,,,F,29,
19,12,297,7,7,6,['d'],['d'],Y,Y,None,N,,,,,,,F,29,
19,13,298,6,6,6,['d'],['k'],N,Y,['space'],Y,,,,,,,F,29,
19,14,299,14,14,6,['d'],['k'],N,Y,None,N,21,32,24,,,,F,29,
20,0,300,14,14,7,['d'],['k'],N,,,,,,,,,,F,29,
20,1,301,2,2,7,['k'],['k'],Y,,,,,,,,,,F,29,
20,2,302,1,1,7,['k'],['k'],Y,Y,None,N,,,,,,,F,29,
20,3,303,0,0,7,['d'],['k'],N,N,None,Y,,,,,,,F,29,
20,4,304,7,7,7,['d'],['k'],N,Y,None,N,,,,,,,F,29,
20,5,305,1,1,7,['k'],['k'],Y,Y,None,N,,,,,,,F,29,
20,6,306,3,3,7,['d'],['d'],Y,N,None,Y,,,,,,,F,29,
20,7,307,3,3,7,['d'],['d'],Y,N,None,Y,,,,,,,F,29,
20,8,308,13,13,7,['d'],['d'],Y,N,None,Y,,,,,,,F,29,
20,9,309,8,8,7,['d'],['d'],Y,Y,None,N,,,,,,,F,29,
20,10,310,5,5,7,['d'],['k'],N,N,None,Y,,,,,,,F,29,
20,11,311,8,8,7,['k'],['k'],Y,Y,['space'],Y,,,,,,,F,29,
20,12,312,14,14,7,['k'],['d'],N,N,None,Y,,,,,,,F,29,
20,13,313,6,6,7,['d'],['k'],N,Y,['space'],Y,,,,,,,F,29,
20,14,314,12,12,7,['d'],['d'],Y,N,['d'],N,,,,,,,F,29,
21,0,315,3,3,7,['d'],['k'],N,N,None,Y,,,,,,,F,29,
21,1,316,9,9,7,['k'],['k'],Y,N,None,Y,,,,,,,F,29,
21,2,317,3,3,7,['k'],['d'],N,N,None,Y,,,,,,,F,29,
21,3,318,13,13,7,['d'],['k'],N,N,None,Y,,,,,,,F,29,
21,4,319,11,11,7,['k'],['k'],Y,N,None,Y,,,,,,,F,29,
21,5,320,4,4,7,['d'],['d'],Y,Y,None,N,,,,,,,F,29,
21,6,321,12,12,7,['d'],['k'],N,Y,None,N,,,,,,,F,29,
21,7,322,10,10,7,['d'],['d'],Y,Y,None,N,,,,,,,F,29,
21,8,323,11,11,7,"['d', 'k']",['d'],N,Y,None,N,,,,,,,F,29,
21,9,324,1,1,7,['d'],['d'],Y,N,None,Y,,,,,,,F,29,
21,10,325,8,8,7,['k'],['k'],Y,N,None,Y,,,,,,,F,29,
21,11,326,11,11,7,['k'],['k'],Y,N,None,Y,,,,,,,F,29,
21,12,327,10,10,7,['k'],['k'],Y,Y,['space'],Y,,,,,,,F,29,
21,13,328,0,0,7,['k'],['k'],Y,Y,['space'],Y,,,,,,,F,29,
21,14,329,5,5,7,['k'],['d'],N,N,None,Y,,,,,,,F,29,
22,0,330,9,9,7,['d'],['k'],N,Y,['space'],Y,,,,,,,F,29,
22,1,331,0,0,7,['d'],['k'],N,N,['k'],N,,,,,,,F,29,
22,2,332,14,14,7,['k'],['k'],Y,Y,['space'],Y,,,,,,,F,29,
22,3,333,7,7,7,['d'],['d'],Y,N,None,Y,,,,,,,F,29,
22,4,334,10,10,7,['k'],['d'],N,N,None,Y,,,,,,,F,29,
22,5,335,3,3,7,['k'],['k'],Y,N,None,Y,,,,,,,F,29,
22,6,336,5,5,7,['k'],['d'],N,N,None,Y,,,,,,,F,29,
22,7,337,2,2,7,['d'],['k'],N,N,None,Y,,,,,,,F,29,
22,8,338,7,7,7,['k'],['d'],N,N,None,Y,,,,,,,F,29,
22,9,339,0,0,7,['d'],['d'],Y,N,None,Y,,,,,,,F,29,
22,10,340,8,8,7,['d'],['k'],N,N,None,Y,,,,,,,F,29,
22,11,341,5,5,7,['k'],['d'],N,Y,['space'],Y,,,,,,,F,29,
22,12,342,1,1,7,['d'],['k'],N,N,None,Y,,,,,,,F,29,
22,13,343,0,0,7,['k'],['k'],Y,N,None,Y,,,,,,,F,29,
22,14,344,7,7,7,['d'],['k'],N,N,None,Y,,,,,,,F,29,
23,0,345,11,11,7,['k'],['k'],Y,Y,['space'],Y,,,,,,,F,29,
23,1,346,9,9,7,['k'],['k'],Y,Y,['space'],Y,,,,,,,F,29,
23,2,347,3,3,7,['k'],['k'],Y,Y,['space'],Y,,,,,,,F,29,
23,3,348,3,3,7,['d'],['k'],N,N,None,Y,,,,,,,F,29,
23,4,349,5,5,7,['k'],['k'],Y,N,None,Y,27,38,18,,,,F,29,
23,5,350,12,12,8,['k'],['k'],Y,,,,,,,,,,F,29,
23,6,351,10,10,8,['k'],['d'],N,,,,,,,,,,F,29,
23,7,352,9,9,8,['d'],['k'],N,N,['d'],N,,,,,,,F,29,
23,8,353,0,0,8,['k'],['k'],Y,N,None,Y,,,,,,,F,29,
23,9,354,12,12,8,['k'],['k'],Y,Y,None,N,,,,,,,F,29,
23,10,355,9,9,8,['d'],['d'],Y,Y,None,N,,,,,,,F,29,
23,11,356,9,9,8,['d'],['d'],Y,N,None,Y,,,,,,,F,29,
23,12,357,6,6,8,['d'],['d'],Y,Y,None,N,,,,,,,F,29,
23,13,358,4,4,8,['k'],['d'],N,N,None,Y,,,,,,,F,29,
23,14,359,3,3,8,['d'],['d'],Y,N,None,Y,,,,,,,F,29,
24,0,360,5,5,8,['d'],['d'],Y,N,None,Y,,,,,,,F,29,
24,1,361,8,8,8,['d'],['k'],N,Y,None,N,,,,,,,F,29,
24,2,362,1,1,8,['d'],['k'],N,Y,None,N,,,,,,,F,29,
24,3,363,10,10,8,['d'],['d'],Y,N,None,Y,,,,,,,F,29,
24,4,364,14,14,8,['k'],['k'],Y,N,None,Y,,,,,,,F,29,
24,5,365,14,14,8,['d'],['k'],N,N,None,Y,,,,,,,F,29,
24,6,366,13,13,8,['k'],['k'],Y,Y,None,N,,,,,,,F,29,
24,7,367,8,8,8,['k'],['d'],N,Y,None,N,,,,,,,F,29,
24,8,368,0,0,8,['k'],['k'],Y,N,None,Y,,,,,,,F,29,
24,9,369,6,6,8,['k'],['k'],Y,Y,None,N,,,,,,,F,29,
24,10,370,11,11,8,['k'],['k'],Y,N,None,Y,,,,,,,F,29,
24,11,371,7,7,8,['k'],['d'],N,Y,['space'],Y,,,,,,,F,29,
24,12,372,13,13,8,['k'],['d'],N,N,None,Y,,,,,,,F,29,
24,13,373,12,12,8,['d'],['d'],Y,Y,['space'],Y,,,,,,,F,29,
24,14,374,8,8,8,['k'],['k'],Y,Y,['space'],Y,,,,,,,F,29,
25,0,375,13,13,8,['k'],['d'],N,N,None,Y,,,,,,,F,29,
25,1,376,8,8,8,['k'],['k'],Y,N,['space'],N,,,,,,,F,29,
25,2,377,13,13,8,['k'],['k'],Y,Y,['space'],Y,,,,,,,F,29,
25,3,378,11,11,8,['k'],['k'],Y,Y,None,N,,,,,,,F,29,
25,4,379,3,3,8,['k'],['k'],Y,N,None,Y,,,,,,,F,29,
25,5,380,10,10,8,['k'],['k'],Y,Y,None,N,,,,,,,F,29,
25,6,381,0,0,8,['k'],['d'],N,N,None,Y,,,,,,,F,29,
25,7,382,9,9,8,['k'],['k'],Y,N,None,Y,,,,,,,F,29,
25,8,383,3,3,8,['d'],['k'],N,Y,None,N,,,,,,,F,29,
25,9,384,5,5,8,['d'],['k'],N,Y,None,N,,,,,,,F,29,
25,10,385,4,4,8,['d'],['k'],N,N,None,Y,,,,,,,F,29,
25,11,386,1,1,8,['d'],['d'],Y,Y,['space'],Y,,,,,,,F,29,
25,12,387,10,10,8,['d'],['d'],Y,Y,None,N,,,,,,,F,29,
25,13,388,5,5,8,['d'],['k'],N,Y,['space'],Y,,,,,,,F,29,
25,14,389,8,8,8,['k'],['k'],Y,N,None,Y,,,,,,,F,29,
26,0,390,6,6,8,['k'],['k'],Y,Y,['space'],Y,,,,,,,F,29,
26,1,391,4,4,8,['d'],['d'],Y,Y,None,N,,,,,,,F,29,
26,2,392,3,3,8,['d'],['k'],N,Y,None,N,,,,,,,F,29,
26,3,393,10,10,8,['d'],['k'],N,Y,None,N,,,,,,,F,29,
26,4,394,4,4,8,['k'],['d'],N,Y,['space'],Y,,,,,,,F,29,
26,5,395,1,1,8,['d'],['d'],Y,N,None,Y,,,,,,,F,29,
26,6,396,3,3,8,['d'],['k'],N,N,['space'],N,,,,,,,F,29,
26,7,397,14,14,8,['d'],['k'],N,N,None,Y,,,,,,,F,29,
26,8,398,2,2,8,['k'],['k'],Y,N,None,Y,,,,,,,F,29,
26,9,399,2,2,8,['k'],['d'],N,Y,['space'],Y,29,29,25,,,,F,29,
26,10,400,14,14,9,['d'],['k'],N,,,,,,,,,,F,29,
26,11,401,13,13,9,['d'],['d'],Y,,,,,,,,,,F,29,
26,12,402,1,1,9,['d'],['d'],Y,Y,['space'],Y,,,,,,,F,29,
26,13,403,2,2,9,['k'],['d'],N,N,None,Y,,,,,,,F,29,
26,14,404,2,2,9,['d'],['d'],Y,Y,['space'],Y,,,,,,,F,29,
27,0,405,0,0,9,['d'],['d'],Y,N,None,Y,,,,,,,F,29,
27,1,406,1,1,9,['d'],['d'],Y,Y,None,N,,,,,,,F,29,
27,2,407,4,4,9,['d'],['k'],N,N,None,Y,,,,,,,F,29,
27,3,408,0,0,9,['k'],['d'],N,Y,['space'],Y,,,,,,,F,29,
27,4,409,13,13,9,['d'],['k'],N,Y,['space'],Y,,,,,,,F,29,
27,5,410,7,7,9,['k'],['k'],Y,N,None,Y,,,,,,,F,29,
27,6,411,13,13,9,['k'],['d'],N,N,None,Y,,,,,,,F,29,
27,7,412,4,4,9,['d'],['d'],Y,Y,['space'],Y,,,,,,,F,29,
27,8,413,8,8,9,['d'],['d'],Y,Y,['space'],Y,,,,,,,F,29,
27,9,414,14,14,9,['k'],['d'],N,N,['space'],N,,,,,,,F,29,
27,10,415,6,6,9,['d'],['k'],N,N,None,Y,,,,,,,F,29,
27,11,416,4,4,9,['d'],['d'],Y,N,None,Y,,,,,,,F,29,
27,12,417,6,6,9,['d'],['d'],Y,Y,None,N,,,,,,,F,29,
27,13,418,6,6,9,['d'],['d'],Y,N,None,Y,,,,,,,F,29,
27,14,419,8,8,9,['d'],['k'],N,Y,None,N,,,,,,,F,29,
28,0,420,1,1,9,['d'],['k'],N,N,None,Y,,,,,,,F,29,
28,1,421,11,11,9,['d'],['k'],N,Y,None,N,,,,,,,F,29,
28,2,422,12,12,9,['k'],['d'],N,N,None,Y,,,,,,,F,29,
28,3,423,11,11,9,['d'],['k'],N,Y,None,N,,,,,,,F,29,
28,4,424,9,9,9,['d'],['k'],N,N,None,Y,,,,,,,F,29,
28,5,425,0,0,9,['d'],['d'],Y,Y,None,N,,,,,,,F,29,
28,6,426,2,2,9,['k'],['d'],N,Y,['space'],Y,,,,,,,F,29,
28,7,427,11,11,9,['d'],['k'],N,Y,None,N,,,,,,,F,29,
28,8,428,2,2,9,['d'],['d'],Y,N,None,Y,,,,,,,F,29,
28,9,429,9,9,9,['k'],['d'],N,N,None,Y,,,,,,,F,29,
28,10,430,7,7,9,['d'],['k'],N,N,None,Y,,,,,,,F,29,
28,11,431,6,6,9,['d'],['k'],N,N,None,Y,,,,,,,F,29,
28,12,432,10,10,9,['k'],['d'],N,Y,['space'],Y,,,,,,,F,29,
28,13,433,5,5,9,['d'],['d'],Y,N,['space'],N,,,,,,,F,29,
28,14,434,2,2,9,['k'],['d'],N,N,None,Y,,,,,,,F,29,
29,0,435,8,8,9,['d'],['k'],N,Y,None,N,,,,,,,F,29,
29,1,436,7,7,9,['d'],['k'],N,Y,['space'],Y,,,,,,,F,29,
29,2,437,11,11,9,['k'],['d'],N,Y,['space'],Y,,,,,,,F,29,
29,3,438,5,5,9,['d'],['d'],Y,N,['space'],N,,,,,,,F,29,
29,4,439,2,2,9,['k'],['k'],Y,Y,['space'],Y,,,,,,,F,29,
29,5,440,13,13,9,['d'],['d'],Y,Y,['space'],Y,,,,,,,F,29,
29,6,441,9,9,9,['d'],['k'],N,N,['space'],N,,,,,,,F,29,
29,7,442,14,14,9,['d'],['d'],Y,N,None,Y,,,,,,,F,29,
29,8,443,9,9,9,['d'],['k'],N,N,None,Y,,,,,,,F,29,
29,9,444,1,1,9,['k'],['k'],Y,N,None,Y,,,,,,,F,29,
29,10,445,1,1,9,['k'],['k'],Y,Y,['space'],Y,,,,,,,F,29,
29,11,446,10,10,9,['k'],['k'],Y,Y,['space'],Y,,,,,,,F,29,
29,12,447,0,0,9,['k'],['d'],N,Y,['space'],Y,,,,,,,F,29,
29,13,448,13,13,9,['k'],['k'],Y,Y,['k'],N,,,,,,,F,29,
29,14,449,10,10,9,['k'],['k'],Y,Y,['space'],Y,23,35,25,,,,F,29,
30,0,450,7,7,10,['k'],['k'],Y,,,,,,,,,,F,29,
30,1,451,13,13,10,['k'],['d'],N,,,,,,,,,,F,29,
30,2,452,7,7,10,['d'],['d'],Y,Y,['space'],Y,,,,,,,F,29,
30,3,453,14,14,10,['d'],['d'],Y,Y,['space'],Y,,,,,,,F,29,
30,4,454,11,11,10,['d'],['k'],N,Y,['space'],Y,,,,,,,F,29,
30,5,455,13,13,10,['d'],['d'],Y,N,None,Y,,,,,,,F,29,
30,6,456,12,12,10,['d'],['d'],Y,Y,['space'],Y,,,,,,,F,29,
30,7,457,9,9,10,['d'],['d'],Y,N,None,Y,,,,,,,F,29,
30,8,458,4,4,10,['k'],['k'],Y,Y,['space'],Y,,,,,,,F,29,
30,9,459,10,10,10,['d'],['d'],Y,Y,['space'],Y,,,,,,,F,29,
30,10,460,13,13,10,['k'],['k'],Y,N,None,Y,,,,,,,F,29,
30,11,461,0,0,10,['k'],['k'],Y,Y,['space'],Y,,,,,,,F,29,
30,12,462,1,1,10,['d'],['d'],Y,N,None,Y,,,,,,,F,29,
30,13,463,6,6,10,['d'],['k'],N,N,None,Y,,,,,,,F,29,
30,14,464,9,9,10,['k'],['k'],Y,Y,['space'],Y,,,,,,,F,29,
31,0,465,8,8,10,['k'],['d'],N,Y,['space'],Y,,,,,,,F,29,
31,1,466,5,5,10,['d'],['d'],Y,Y,['d'],N,,,,,,,F,29,
31,2,467,6,6,10,['k'],['d'],N,Y,None,N,,,,,,,F,29,
31,3,468,0,0,10,['d'],['k'],N,Y,['space'],Y,,,,,,,F,29,
31,4,469,8,8,10,['d'],['k'],N,N,['space'],N,,,,,,,F,29,
31,5,470,10,10,10,['k'],['d'],N,Y,None,N,,,,,,,F,29,
31,6,471,5,5,10,['d'],['d'],Y,N,None,Y,,,,,,,F,29,
31,7,472,7,7,10,['d'],['d'],Y,N,None,Y,,,,,,,F,29,
31,8,473,6,6,10,['k'],['d'],N,N,['k'],N,,,,,,,F,29,
31,9,474,7,7,10,['d'],['d'],Y,Y,None,N,,,,,,,F,29,
31,10,475,7,7,10,['d'],['k'],N,N,['space'],N,,,,,,,F,29,
31,11,476,14,14,10,['k'],['k'],Y,Y,['space'],Y,,,,,,,F,29,
31,12,477,7,7,10,['k'],['d'],N,N,None,Y,,,,,,,F,29,
31,13,478,7,7,10,['d'],['d'],Y,N,None,Y,,,,,,,F,29,
31,14,479,5,5,10,['d'],['d'],Y,Y,None,N,,,,,,,F,29,
32,0,480,8,8,10,['d'],['d'],Y,N,None,Y,,,,,,,F,29,
32,1,481,13,13,10,['d'],['k'],N,Y,['space'],Y,,,,,,,F,29,
32,2,482,11,11,10,['d'],['k'],N,N,None,Y,,,,,,,F,29,
32,3,483,7,7,10,['d'],['d'],Y,N,None,Y,,,,,,,F,29,
32,4,484,4,4,10,['k'],['k'],Y,N,None,Y,,,,,,,F,29,
32,5,485,2,2,10,['d'],['d'],Y,Y,None,N,,,,,,,F,29,
32,6,486,8,8,10,['d'],['d'],Y,Y,None,N,,,,,,,F,29,
32,7,487,3,3,10,['d'],['d'],Y,Y,None,N,,,,,,,F,29,
32,8,488,4,4,10,['d'],['k'],N,Y,None,N,,,,,,,F,29,
32,9,489,5,5,10,['d'],['d'],Y,Y,None,N,,,,,,,F,29,
32,10,490,13,13,10,['d'],['k'],N,N,None,Y,,,,,,,F,29,
32,11,491,13,13,10,['k'],['k'],Y,Y,['space'],Y,,,,,,,F,29,
32,12,492,5,5,10,['k'],['k'],Y,Y,['k'],N,,,,,,,F,29,
32,13,493,13,13,10,['k'],['d'],N,N,None,Y,,,,,,,F,29,
32,14,494,6,6,10,['d'],['d'],Y,Y,None,N,,,,,,,F,29,
33,0,495,11,11,10,['d'],['k'],N,N,None,Y,,,,,,,F,29,
33,1,496,13,13,10,['k'],['k'],Y,N,['space'],N,,,,,,,F,29,
33,2,497,11,11,10,['d'],['d'],Y,N,None,Y,,,,,,,F,29,
33,3,498,5,5,10,['d'],['d'],Y,N,['space'],N,,,,,,,F,29,
33,4,499,4,4,10,['d'],['k'],N,N,None,Y,32,31,25,,,,F,29,
33,5,500,2,2,11,['k'],['d'],Y,,,,,,,Y,Y,Y,F,29,
33,6,501,2,2,11,['k'],['d'],Y,,,,,,,,Y,Y,F,29,
33,7,502,12,12,11,['k'],['k'],N,N,None,Y,,,,,Y,Y,F,29,
33,8,503,5,5,11,['d'],['d'],N,Y,['space'],Y,,,,,Y,Y,F,29,
33,9,504,4,4,11,['d'],['k'],Y,N,None,Y,,,,,Y,Y,F,29,
33,10,505,9,9,11,['d'],['k'],Y,N,None,Y,,,,,Y,Y,F,29,
33,11,506,13,13,11,['d'],['k'],Y,N,None,Y,,,,,Y,Y,F,29,
33,12,507,11,11,11,['d'],['k'],Y,N,None,Y,,,,,Y,Y,F,29,
33,13,508,3,3,11,['k'],['k'],N,Y,['space'],Y,,,,,Y,Y,F,29,
33,14,509,11,11,11,['d'],['k'],Y,Y,['space'],Y,,,,,Y,Y,F,29,
34,0,510,5,5,11,['d'],['k'],Y,Y,['space'],Y,,,,,Y,Y,F,29,
34,1,511,3,3,11,['d'],['d'],N,N,None,Y,,,,,Y,Y,F,29,
34,2,512,1,1,11,['k'],['k'],N,Y,['space'],Y,,,,,Y,Y,F,29,
34,3,513,7,7,11,['d'],['d'],N,Y,['space'],Y,,,,,Y,Y,F,29,
34,4,514,7,7,11,['d'],['d'],N,Y,None,N,,,,,Y,Y,F,29,
34,5,515,8,8,11,None,,Timed out,Y,None,N,,,,,Y,Y,F,29,
34,6,516,3,3,11,['d'],['d'],N,N,None,Y,,,,,Y,Y,F,29,
34,7,517,0,0,11,['k'],['k'],N,N,None,Y,,,,,Y,Y,F,29,
34,8,518,5,5,11,['d'],['d'],N,Y,['space'],Y,,,,,Y,Y,F,29,
34,9,519,2,2,11,['k'],['d'],Y,N,None,Y,,,,,Y,Y,F,29,
34,10,520,13,13,11,['k'],['d'],Y,Y,['space'],Y,,,,,Y,Y,F,29,
34,11,521,4,4,11,['k'],['d'],Y,Y,['space'],Y,,,,,Y,Y,F,29,
34,12,522,8,8,11,['k'],['d'],Y,N,None,Y,,,,,Y,Y,F,29,
34,13,523,14,14,11,['k'],['d'],Y,Y,['space'],Y,,,,,Y,Y,F,29,
34,14,524,3,3,11,['k'],['d'],Y,Y,['space'],Y,,,,,Y,Y,F,29,
35,0,525,9,9,11,['k'],['k'],N,N,None,Y,,,,,Y,Y,F,29,
35,1,526,12,12,11,['d'],['k'],Y,N,None,Y,,,,,Y,Y,F,29,
35,2,527,4,4,11,['d'],['k'],Y,N,None,Y,,,,,Y,Y,F,29,
35,3,528,8,8,11,['d'],['d'],N,Y,['space'],Y,,,,,Y,Y,F,29,
35,4,529,5,5,11,['k'],['d'],Y,N,None,Y,,,,,Y,Y,F,29,
35,5,530,11,11,11,['k'],['d'],Y,N,None,Y,,,,,Y,Y,F,29,
35,6,531,11,11,11,['d'],['k'],Y,Y,['space'],Y,,,,,Y,Y,F,29,
35,7,532,0,0,11,['d'],['d'],N,N,None,Y,,,,,Y,Y,F,29,
35,8,533,0,0,11,['d'],['d'],N,N,None,Y,,,,,Y,Y,F,29,
35,9,534,3,3,11,['d'],['k'],Y,N,None,Y,,,,,Y,Y,F,29,
35,10,535,12,12,11,['d'],['d'],N,N,None,Y,,,,,Y,Y,F,29,
35,11,536,2,2,11,['d'],['d'],N,N,None,Y,,,,,Y,Y,F,29,
35,12,537,12,12,11,['k'],['d'],Y,N,['space'],N,,,,,Y,Y,F,29,
35,13,538,9,9,11,None,,Timed out,N,None,Y,,,,,Y,Y,F,29,
35,14,539,1,1,11,['k'],['d'],Y,N,None,Y,,,,,Y,Y,F,29,
36,0,540,14,14,11,['k'],['d'],Y,N,None,Y,,,,,Y,Y,F,29,
36,1,541,6,6,11,['k'],['k'],N,N,None,Y,,,,,Y,Y,F,29,
36,2,542,2,2,11,['d'],['d'],N,N,None,Y,,,,,Y,Y,F,29,
36,3,543,4,4,11,['d'],['d'],N,Y,None,N,,,,,Y,Y,F,29,
36,4,544,6,6,11,['k'],['k'],N,N,['space'],N,,,,,Y,Y,F,29,
36,5,545,1,1,11,['d'],['d'],N,Y,['space'],Y,,,,,Y,Y,F,29,
36,6,546,8,8,11,['k'],['k'],N,Y,['k'],N,,,,,Y,Y,F,29,
36,7,547,8,8,11,['d'],['d'],N,Y,['space'],Y,,,,,Y,Y,F,29,
36,8,548,0,0,11,['d'],['d'],N,Y,['space'],Y,,,,,Y,Y,F,29,
36,9,549,1,1,11,['k'],['k'],N,Y,['space'],Y,23,42,21,,Y,Y,F,29,
36,10,550,9,9,12,['d'],['d'],N,,,,,,,,Y,Y,F,29,
36,11,551,11,11,12,['d'],['d'],N,,,,,,,,Y,Y,F,29,
36,12,552,2,2,12,['d'],['k'],Y,N,None,Y,,,,,Y,Y,F,29,
36,13,553,8,8,12,['d'],['k'],Y,N,None,Y,,,,,Y,Y,F,29,
36,14,554,4,4,12,['d'],['d'],N,Y,['space'],Y,,,,,Y,Y,F,29,
37,0,555,12,12,12,['k'],['d'],Y,N,None,Y,,,,,Y,Y,F,29,
37,1,556,14,14,12,['k'],['k'],N,N,None,Y,,,,,Y,Y,F,29,
37,2,557,6,6,12,['k'],['k'],N,Y,None,N,,,,,Y,Y,F,29,
37,3,558,3,3,12,['d'],['d'],N,N,None,Y,,,,,Y,Y,F,29,
37,4,559,6,6,12,['k'],['d'],Y,Y,['space'],Y,,,,,Y,Y,F,29,
37,5,560,11,11,12,['k'],['k'],N,Y,['space'],Y,,,,,Y,Y,F,29,
37,6,561,11,11,12,['d'],['k'],Y,Y,['k'],N,,,,,Y,Y,F,29,
37,7,562,6,6,12,['k'],['d'],Y,N,None,Y,,,,,Y,Y,F,29,
37,8,563,3,3,12,['k'],['d'],Y,N,None,Y,,,,,Y,Y,F,29,
37,9,564,9,9,12,['k'],['d'],Y,Y,None,N,,,,,Y,Y,F,29,
37,10,565,14,14,12,['k'],['k'],N,N,None,Y,,,,,Y,Y,F,29,
37,11,566,5,5,12,['d'],['d'],N,N,None,Y,,,,,Y,Y,F,29,
37,12,567,3,3,12,['k'],['d'],Y,Y,None,N,,,,,Y,Y,F,29,
37,13,568,14,14,12,['k'],['d'],Y,Y,None,N,,,,,Y,Y,F,29,
37,14,569,6,6,12,['k'],['k'],N,Y,None,N,,,,,Y,Y,F,29,
38,0,570,1,1,12,['d'],['k'],Y,Y,['space'],Y,,,,,Y,Y,F,29,
38,1,571,14,14,12,['d'],['k'],Y,N,None,Y,,,,,Y,Y,F,29,
38,2,572,8,8,12,['k'],['k'],N,N,['space'],N,,,,,Y,Y,F,29,
38,3,573,7,7,12,None,,Timed out,N,None,Y,,,,,Y,Y,F,29,
38,4,574,5,5,12,['d'],['k'],Y,N,None,Y,,,,,Y,Y,F,29,
38,5,575,5,5,12,['k'],['d'],Y,Y,None,N,,,,,Y,Y,F,29,
38,6,576,14,14,12,['k'],['d'],Y,N,None,Y,,,,,Y,Y,F,29,
38,7,577,14,14,12,['d'],['k'],Y,N,None,Y,,,,,Y,Y,F,29,
38,8,578,5,5,12,['k'],['d'],Y,Y,None,N,,,,,Y,Y,F,29,
38,9,579,6,6,12,['k'],['k'],N,N,None,Y,,,,,Y,Y,F,29,
38,10,580,6,6,12,['d'],['k'],Y,Y,['space'],Y,,,,,Y,Y,F,29,
38,11,581,2,2,12,['d'],['d'],N,Y,['space'],Y,,,,,Y,Y,F,29,
38,12,582,9,9,12,['k'],['k'],N,N,None,Y,,,,,Y,Y,F,29,
38,13,583,1,1,12,['d'],['d'],N,N,['d'],N,,,,,Y,Y,F,29,
38,14,584,1,1,12,['k'],['d'],Y,Y,['space'],Y,,,,,Y,Y,F,29,
39,0,585,6,6,12,['k'],['d'],Y,Y,['space'],Y,,,,,Y,Y,F,29,
39,1,586,12,12,12,['k'],['k'],N,Y,None,N,,,,,Y,Y,F,29,
39,2,587,9,9,12,['d'],['d'],N,Y,None,N,,,,,Y,Y,F,29,
39,3,588,3,3,12,['d'],['k'],Y,N,None,Y,,,,,Y,Y,F,29,
39,4,589,6,6,12,['d'],['d'],N,Y,['space'],Y,,,,,Y,Y,F,29,
39,5,590,6,6,12,['k'],['d'],Y,Y,['space'],Y,,,,,Y,Y,F,29,
39,6,591,14,14,12,['k'],['d'],Y,Y,None,N,,,,,Y,Y,F,29,
39,7,592,7,7,12,None,,Timed out,N,['space'],N,,,,,Y,Y,F,29,
39,8,593,7,7,12,['k'],['k'],N,Y,['k'],N,,,,,Y,Y,F,29,
39,9,594,7,7,12,['d'],['k'],Y,Y,None,N,,,,,Y,Y,F,29,
39,10,595,6,6,12,None,,Timed out,N,['k'],N,,,,,Y,Y,F,29,
39,11,596,3,3,12,['k'],['d'],Y,Y,None,N,,,,,Y,Y,F,29,
39,12,597,4,4,12,['k'],['d'],Y,N,None,Y,,,,,Y,Y,F,29,
39,13,598,2,2,12,['k'],['d'],Y,Y,['space'],Y,,,,,Y,Y,F,29,
39,14,599,0,0,12,['k'],['d'],Y,N,None,Y,28,30,25,,Y,Y,F,29,
