.thisRepN,.thisTrialN,.thisN,.thisIndex,.thisTrial,Block Number,Key pressed,Category,Correct?,Int Match?,Int Response,Int Correct?,Line Accuracy,Interference Accuracy,Matching Interferences,New instruction shown?,Buttons switched?,Fast?,gender,age,
0,0,0,2,2,1,['k'],['d'],N,,,,,,,,,,Male,20,
0,1,1,4,4,1,['k'],['d'],N,,,,,,,,,,Male,20,
0,2,2,1,1,1,['d'],['d'],Y,Y,['space'],Y,,,,,,,Male,20,
0,3,3,10,10,1,['k'],['d'],N,N,None,Y,,,,,,,Male,20,
0,4,4,5,5,1,['k'],['k'],Y,N,None,Y,,,,,,,Male,20,
0,5,5,7,7,1,['k'],['d'],N,N,None,Y,,,,,,,Male,20,
0,6,6,6,6,1,['k'],['k'],Y,N,['d'],N,,,,,,,Male,20,
0,7,7,1,1,1,['d'],['d'],Y,Y,['space'],Y,,,,,,,Male,20,
0,8,8,1,1,1,['d'],['d'],Y,N,None,Y,,,,,,,Male,20,
0,9,9,7,7,1,['k'],['d'],N,N,None,Y,,,,,,,Male,20,
0,10,10,1,1,1,['k'],['k'],Y,Y,['space'],Y,,,,,,,Male,20,
1,0,11,1,1,1,['d'],['d'],Y,Y,['space'],Y,,,,,,,Male,20,
1,1,12,10,10,1,['k'],['d'],N,N,None,Y,,,,,,,Male,20,
1,2,13,6,6,1,['k'],['k'],Y,N,None,Y,,,,,,,Male,20,
1,3,14,4,4,1,['d'],['d'],Y,Y,None,N,,,,,,,Male,20,
1,4,15,4,4,1,['d'],['d'],Y,Y,['space'],Y,,,,,,,Male,20,
1,5,16,1,1,1,['k'],['d'],N,N,['space'],N,,,,,,,Male,20,
1,6,17,1,1,1,['d'],['d'],Y,Y,None,N,,,,,,,Male,20,
1,7,18,5,5,1,['k'],['k'],Y,N,None,Y,,,,,,,Male,20,
1,8,19,7,7,1,['k'],['k'],Y,Y,['space'],Y,,,,,,,Male,20,
1,9,20,8,8,1,['d'],['d'],Y,Y,['space'],Y,,,,,,,Male,20,
1,10,21,2,2,1,['d'],['k'],N,N,None,Y,,,,,,,Male,20,
2,0,22,3,3,1,['k'],['k'],Y,Y,['space'],Y,,,,,,,Male,20,
2,1,23,6,6,1,['k'],['k'],Y,N,None,Y,,,,,,,Male,20,
2,2,24,1,1,1,['k'],['k'],Y,Y,['space'],Y,,,,,,,Male,20,
2,3,25,3,3,1,['k'],['k'],Y,Y,['space'],Y,,,,,,,Male,20,
2,4,26,3,3,1,['k'],['k'],Y,N,None,Y,,,,,,,Male,20,
2,5,27,8,8,1,['k'],['k'],Y,N,None,Y,,,,,,,Male,20,
2,6,28,6,6,1,['k'],['d'],N,Y,['space'],Y,,,,,,,Male,20,
2,7,29,2,2,1,['k'],['k'],Y,Y,['space'],Y,,,,,,,Male,20,
2,8,30,2,2,1,['k'],['k'],Y,N,None,Y,,,,,,,Male,20,
2,9,31,10,10,1,['d'],['d'],Y,N,None,Y,,,,,,,Male,20,
2,10,32,7,7,1,['d'],['d'],Y,Y,['space'],Y,,,,,,,Male,20,
3,0,33,3,3,1,['d'],['d'],Y,N,None,Y,,,,,,,Male,20,
3,1,34,4,4,1,['d'],['d'],Y,Y,['space'],Y,,,,,,,Male,20,
3,2,35,9,9,1,['d'],['k'],N,Y,['space'],Y,,,,,,,Male,20,
3,3,36,0,0,1,['d'],['d'],Y,N,None,Y,,,,,,,Male,20,
3,4,37,10,10,1,['k'],['k'],Y,Y,['space'],Y,,,,,,,Male,20,
3,5,38,4,4,1,['k'],['k'],Y,N,None,Y,,,,,,,Male,20,
3,6,39,10,10,1,['k'],['k'],Y,Y,['space'],Y,,,,,,,Male,20,
3,7,40,9,9,1,['d'],['d'],Y,N,None,Y,,,,,,,Male,20,
3,8,41,5,5,1,['k'],['k'],Y,Y,['space'],Y,,,,,,,Male,20,
3,9,42,3,3,1,['d'],['k'],N,N,None,Y,,,,,,,Male,20,
3,10,43,6,6,1,['k'],['k'],Y,Y,['space'],Y,,,,,,,Male,20,
4,0,44,2,2,1,['k'],['k'],Y,Y,None,N,,,,,,,Male,20,
4,1,45,5,5,1,['k'],['k'],Y,N,None,Y,,,,,,,Male,20,
4,2,46,10,10,1,['k'],['k'],Y,Y,['space'],Y,,,,,,,Male,20,
4,3,47,6,6,1,['d'],['d'],Y,Y,['space'],Y,,,,,,,Male,20,
4,4,48,4,4,1,['k'],['k'],Y,Y,['space'],Y,,,,,,,Male,20,
4,5,49,0,0,1,['d'],['d'],Y,N,None,Y,39,43,25,,,,Male,20,
4,6,50,0,0,2,['k'],['d'],N,,,,,,,,,,Male,20,
4,7,51,3,3,2,['d'],['d'],Y,,,,,,,,,,Male,20,
4,8,52,6,6,2,['k'],['k'],Y,Y,['space'],Y,,,,,,,Male,20,
4,9,53,8,8,2,['k'],['k'],Y,Y,None,N,,,,,,,Male,20,
4,10,54,5,5,2,['d'],['d'],Y,N,None,Y,,,,,,,Male,20,
5,0,55,0,0,2,['k'],['k'],Y,Y,['space'],Y,,,,,,,Male,20,
5,1,56,7,7,2,['d'],['d'],Y,Y,None,N,,,,,,,Male,20,
5,2,57,4,4,2,['k'],['k'],Y,N,None,Y,,,,,,,Male,20,
5,3,58,1,1,2,['k'],['k'],Y,Y,['space'],Y,,,,,,,Male,20,
5,4,59,8,8,2,['k'],['k'],Y,N,None,Y,,,,,,,Male,20,
5,5,60,5,5,2,['d'],['d'],Y,N,None,Y,,,,,,,Male,20,
5,6,61,4,4,2,['d'],['d'],Y,Y,['space'],Y,,,,,,,Male,20,
5,7,62,7,7,2,['k'],['d'],N,Y,['space'],Y,,,,,,,Male,20,
5,8,63,6,6,2,['k'],['k'],Y,N,None,Y,,,,,,,Male,20,
5,9,64,1,1,2,['d'],['d'],Y,N,None,Y,,,,,,,Male,20,
5,10,65,2,2,2,['d'],['d'],Y,Y,['space'],Y,,,,,,,Male,20,
6,0,66,6,6,2,['k'],['k'],Y,Y,None,N,,,,,,,Male,20,
6,1,67,8,8,2,['k'],['k'],Y,Y,['space'],Y,,,,,,,Male,20,
6,2,68,1,1,2,['d'],['d'],Y,N,None,Y,,,,,,,Male,20,
6,3,69,7,7,2,['d'],['k'],N,Y,['space'],Y,,,,,,,Male,20,
6,4,70,4,4,2,['d'],['d'],Y,Y,None,N,,,,,,,Male,20,
6,5,71,8,8,2,['k'],['k'],Y,Y,None,N,,,,,,,Male,20,
6,6,72,0,0,2,['d'],['d'],Y,N,None,Y,,,,,,,Male,20,
6,7,73,9,9,2,['d'],['d'],Y,N,None,Y,,,,,,,Male,20,
6,8,74,10,10,2,['d'],['d'],Y,N,None,Y,,,,,,,Male,20,
6,9,75,6,6,2,['k'],['d'],N,N,None,Y,,,,,,,Male,20,
6,10,76,6,6,2,['d'],['d'],Y,Y,['space'],Y,,,,,,,Male,20,
7,0,77,1,1,2,['k'],['k'],Y,N,None,Y,,,,,,,Male,20,
7,1,78,3,3,2,['d'],['d'],Y,Y,['space'],Y,,,,,,,Male,20,
7,2,79,6,6,2,['d'],['d'],Y,N,None,Y,,,,,,,Male,20,
7,3,80,10,10,2,['d'],['d'],Y,Y,['space'],Y,,,,,,,Male,20,
7,4,81,7,7,2,['d'],['d'],Y,Y,['space'],Y,,,,,,,Male,20,
7,5,82,5,5,2,['k'],['k'],Y,Y,['space'],Y,,,,,,,Male,20,
7,6,83,9,9,2,['d'],['d'],Y,N,None,Y,,,,,,,Male,20,
7,7,84,8,8,2,['k'],['d'],N,Y,['space'],Y,,,,,,,Male,20,
7,8,85,8,8,2,['d'],['d'],Y,Y,['space'],Y,,,,,,,Male,20,
7,9,86,4,4,2,['k'],['k'],Y,N,['space'],N,,,,,,,Male,20,
7,10,87,5,5,2,['k'],['k'],Y,N,None,Y,,,,,,,Male,20,
8,0,88,8,8,2,['d'],['k'],N,Y,['space'],Y,,,,,,,Male,20,
8,1,89,8,8,2,['k'],['k'],Y,N,None,Y,,,,,,,Male,20,
8,2,90,5,5,2,['d'],['d'],Y,Y,['space'],Y,,,,,,,Male,20,
8,3,91,10,10,2,['d'],['d'],Y,N,None,Y,,,,,,,Male,20,
8,4,92,5,5,2,['d'],['d'],Y,N,['space'],N,,,,,,,Male,20,
8,5,93,10,10,2,['d'],['d'],Y,Y,['space'],Y,,,,,,,Male,20,
8,6,94,10,10,2,['k'],['k'],Y,Y,['space'],Y,,,,,,,Male,20,
8,7,95,10,10,2,['k'],['k'],Y,Y,['space'],Y,,,,,,,Male,20,
8,8,96,2,2,2,['d'],['d'],Y,N,None,Y,,,,,,,Male,20,
8,9,97,8,8,2,['k'],['k'],Y,N,None,Y,,,,,,,Male,20,
8,10,98,3,3,2,['d'],['d'],Y,N,None,Y,,,,,,,Male,20,
9,0,99,6,6,2,['k'],['d'],N,N,None,Y,43,41,25,,,,Male,20,
9,1,100,1,1,3,['k'],['k'],Y,,,,,,,,,,Male,20,
9,2,101,1,1,3,['k'],['k'],Y,,,,,,,,,,Male,20,
9,3,102,3,3,3,['k'],['k'],Y,Y,['space'],Y,,,,,,,Male,20,
9,4,103,9,9,3,['k'],['k'],Y,N,None,Y,,,,,,,Male,20,
9,5,104,7,7,3,['k'],['k'],Y,N,None,Y,,,,,,,Male,20,
9,6,105,10,10,3,['k'],['k'],Y,N,None,Y,,,,,,,Male,20,
9,7,106,5,5,3,['k'],['k'],Y,Y,['space'],Y,,,,,,,Male,20,
9,8,107,5,5,3,['k'],['k'],Y,Y,['space'],Y,,,,,,,Male,20,
9,9,108,9,9,3,['k'],['k'],Y,N,None,Y,,,,,,,Male,20,
9,10,109,2,2,3,['d'],['d'],Y,Y,['space'],Y,,,,,,,Male,20,
10,0,110,5,5,3,['d'],['d'],Y,Y,['space'],Y,,,,,,,Male,20,
10,1,111,10,10,3,['k'],['k'],Y,N,None,Y,,,,,,,Male,20,
10,2,112,6,6,3,['k'],['k'],Y,N,None,Y,,,,,,,Male,20,
10,3,113,2,2,3,['d'],['d'],Y,Y,['space'],Y,,,,,,,Male,20,
10,4,114,0,0,3,['k'],['k'],Y,N,None,Y,,,,,,,Male,20,
10,5,115,4,4,3,['k'],['d'],N,N,None,Y,,,,,,,Male,20,
10,6,116,8,8,3,['k'],['k'],Y,Y,['space'],Y,,,,,,,Male,20,
10,7,117,10,10,3,['k'],['k'],Y,Y,None,N,,,,,,,Male,20,
10,8,118,4,4,3,['k'],['k'],Y,N,None,Y,,,,,,,Male,20,
10,9,119,1,1,3,['k'],['k'],Y,Y,['space'],Y,,,,,,,Male,20,
10,10,120,0,0,3,['d'],['d'],Y,N,None,Y,,,,,,,Male,20,
11,0,121,10,10,3,['k'],['k'],Y,Y,['space'],Y,,,,,,,Male,20,
11,1,122,0,0,3,['k'],['d'],N,N,None,Y,,,,,,,Male,20,
11,2,123,1,1,3,['k'],['k'],Y,Y,['space'],Y,,,,,,,Male,20,
11,3,124,6,6,3,['k'],['k'],Y,Y,None,N,,,,,,,Male,20,
11,4,125,2,2,3,['k'],['k'],Y,Y,['space'],Y,,,,,,,Male,20,
11,5,126,4,4,3,['d'],['d'],Y,Y,None,N,,,,,,,Male,20,
11,6,127,5,5,3,['d'],['k'],N,Y,['space'],Y,,,,,,,Male,20,
11,7,128,3,3,3,['k'],['k'],Y,Y,None,N,,,,,,,Male,20,
11,8,129,9,9,3,['d'],['d'],Y,N,None,Y,,,,,,,Male,20,
11,9,130,5,5,3,['k'],['d'],N,N,None,Y,,,,,,,Male,20,
11,10,131,6,6,3,['d'],['d'],Y,Y,['space'],Y,,,,,,,Male,20,
12,0,132,10,10,3,['d'],['d'],Y,N,None,Y,,,,,,,Male,20,
12,1,133,8,8,3,['k'],['k'],Y,N,None,Y,,,,,,,Male,20,
12,2,134,8,8,3,['d'],['d'],Y,Y,['space'],Y,,,,,,,Male,20,
12,3,135,4,4,3,['d'],['d'],Y,N,None,Y,,,,,,,Male,20,
12,4,136,1,1,3,['d'],['d'],Y,Y,['space'],Y,,,,,,,Male,20,
12,5,137,0,0,3,['k'],['k'],Y,N,None,Y,,,,,,,Male,20,
12,6,138,8,8,3,['d'],['k'],N,N,None,Y,,,,,,,Male,20,
12,7,139,9,9,3,['k'],['k'],Y,N,None,Y,,,,,,,Male,20,
12,8,140,7,7,3,['d'],['d'],Y,Y,['space'],Y,,,,,,,Male,20,
12,9,141,9,9,3,['k'],['k'],Y,Y,['space'],Y,,,,,,,Male,20,
12,10,142,4,4,3,['d'],['d'],Y,N,None,Y,,,,,,,Male,20,
13,0,143,2,2,3,['k'],['k'],Y,Y,['space'],Y,,,,,,,Male,20,
13,1,144,8,8,3,['k'],['k'],Y,Y,['space'],Y,,,,,,,Male,20,
13,2,145,6,6,3,['k'],['d'],N,N,None,Y,,,,,,,Male,20,
13,3,146,1,1,3,['k'],['k'],Y,Y,['space'],Y,,,,,,,Male,20,
13,4,147,8,8,3,['d'],['d'],Y,Y,['space'],Y,,,,,,,Male,20,
13,5,148,4,4,3,['k'],['d'],N,N,['space'],N,,,,,,,Male,20,
13,6,149,4,4,3,['k'],['k'],Y,N,['space'],N,43,42,25,,,,Male,20,
13,7,150,7,7,4,['d'],['k'],N,,,,,,,,,,Male,20,
13,8,151,8,8,4,['k'],['d'],N,,,,,,,,,,Male,20,
13,9,152,0,0,4,['d'],['d'],Y,N,None,Y,,,,,,,Male,20,
13,10,153,7,7,4,['k'],['k'],Y,N,None,Y,,,,,,,Male,20,
14,0,154,2,2,4,['d'],['k'],N,N,None,Y,,,,,,,Male,20,
14,1,155,8,8,4,['k'],['k'],Y,N,None,Y,,,,,,,Male,20,
14,2,156,3,3,4,['k'],['k'],Y,Y,['space'],Y,,,,,,,Male,20,
14,3,157,5,5,4,['d'],['d'],Y,N,None,Y,,,,,,,Male,20,
14,4,158,9,9,4,['d'],['d'],Y,Y,['space'],Y,,,,,,,Male,20,
14,5,159,0,0,4,['d'],['d'],Y,N,None,Y,,,,,,,Male,20,
14,6,160,5,5,4,['k'],['k'],Y,N,None,Y,,,,,,,Male,20,
14,7,161,8,8,4,['d'],['d'],Y,Y,['space'],Y,,,,,,,Male,20,
14,8,162,5,5,4,['k'],['k'],Y,Y,['space'],Y,,,,,,,Male,20,
14,9,163,5,5,4,['d'],['d'],Y,N,None,Y,,,,,,,Male,20,
14,10,164,3,3,4,['d'],['k'],N,N,None,Y,,,,,,,Male,20,
15,0,165,9,9,4,['k'],['k'],Y,Y,['space'],Y,,,,,,,Male,20,
15,1,166,2,2,4,['k'],['k'],Y,N,None,Y,,,,,,,Male,20,
15,2,167,8,8,4,['d'],['k'],N,N,None,Y,,,,,,,Male,20,
15,3,168,3,3,4,['k'],['k'],Y,N,None,Y,,,,,,,Male,20,
15,4,169,10,10,4,['d'],['k'],N,N,None,Y,,,,,,,Male,20,
15,5,170,4,4,4,['k'],['k'],Y,N,None,Y,,,,,,,Male,20,
15,6,171,0,0,4,['k'],['k'],Y,Y,['space'],Y,,,,,,,Male,20,
15,7,172,6,6,4,['k'],['k'],Y,Y,None,N,,,,,,,Male,20,
15,8,173,9,9,4,['k'],['k'],Y,N,None,Y,,,,,,,Male,20,
15,9,174,8,8,4,['d'],['d'],Y,N,None,Y,,,,,,,Male,20,
15,10,175,5,5,4,['k'],['k'],Y,Y,['space'],Y,,,,,,,Male,20,
16,0,176,6,6,4,['k'],['k'],Y,N,None,Y,,,,,,,Male,20,
16,1,177,9,9,4,['d'],['d'],Y,Y,['space'],Y,,,,,,,Male,20,
16,2,178,5,5,4,['d'],['d'],Y,Y,['space'],Y,,,,,,,Male,20,
16,3,179,4,4,4,['d'],['d'],Y,Y,['space'],Y,,,,,,,Male,20,
16,4,180,10,10,4,['k'],['k'],Y,Y,['space'],Y,,,,,,,Male,20,
16,5,181,3,3,4,['d'],['d'],Y,N,None,Y,,,,,,,Male,20,
16,6,182,9,9,4,['d'],['d'],Y,Y,['space'],Y,,,,,,,Male,20,
16,7,183,1,1,4,['d'],['k'],N,Y,['space'],Y,,,,,,,Male,20,
16,8,184,6,6,4,['k'],['k'],Y,Y,['space'],Y,,,,,,,Male,20,
16,9,185,1,1,4,['k'],['k'],Y,Y,['space'],Y,,,,,,,Male,20,
16,10,186,9,9,4,['d'],['d'],Y,Y,None,N,,,,,,,Male,20,
17,0,187,1,1,4,['k'],['k'],Y,Y,None,N,,,,,,,Male,20,
17,1,188,2,2,4,['d'],['d'],Y,Y,None,N,,,,,,,Male,20,
17,2,189,0,0,4,['d'],['d'],Y,N,None,Y,,,,,,,Male,20,
17,3,190,3,3,4,['k'],['k'],Y,N,None,Y,,,,,,,Male,20,
17,4,191,0,0,4,['k'],['k'],Y,Y,['space'],Y,,,,,,,Male,20,
17,5,192,9,9,4,['d'],['d'],Y,N,None,Y,,,,,,,Male,20,
17,6,193,4,4,4,['k'],['k'],Y,N,None,Y,,,,,,,Male,20,
17,7,194,1,1,4,['k'],['k'],Y,Y,['space'],Y,,,,,,,Male,20,
17,8,195,5,5,4,['d'],['d'],Y,Y,['space'],Y,,,,,,,Male,20,
17,9,196,4,4,4,['d'],['d'],Y,N,None,Y,,,,,,,Male,20,
17,10,197,7,7,4,['k'],['d'],N,Y,['space'],Y,,,,,,,Male,20,
18,0,198,7,7,4,['d'],['d'],Y,N,None,Y,,,,,,,Male,20,
18,1,199,7,7,4,['d'],['k'],N,Y,None,N,41,43,24,,,,Male,20,
18,2,200,7,7,5,['k'],['k'],Y,,,,,,,,,,Male,20,
18,3,201,8,8,5,['d'],['d'],Y,,,,,,,,,,Male,20,
18,4,202,6,6,5,['d'],['d'],Y,Y,['space'],Y,,,,,,,Male,20,
18,5,203,4,4,5,['d'],['d'],Y,Y,['space'],Y,,,,,,,Male,20,
18,6,204,3,3,5,['k'],['k'],Y,Y,['space'],Y,,,,,,,Male,20,
18,7,205,3,3,5,['k'],['d'],N,N,None,Y,,,,,,,Male,20,
18,8,206,0,0,5,['k'],['d'],N,N,None,Y,,,,,,,Male,20,
18,9,207,7,7,5,['d'],['d'],Y,Y,['space'],Y,,,,,,,Male,20,
18,10,208,4,4,5,['d'],['d'],Y,N,None,Y,,,,,,,Male,20,
19,0,209,8,8,5,['k'],['k'],Y,N,None,Y,,,,,,,Male,20,
19,1,210,2,2,5,['k'],['k'],Y,N,None,Y,,,,,,,Male,20,
19,2,211,1,1,5,['k'],['d'],N,Y,['space'],Y,,,,,,,Male,20,
19,3,212,1,1,5,['k'],['k'],Y,N,None,Y,,,,,,,Male,20,
19,4,213,3,3,5,['k'],['k'],Y,N,None,Y,,,,,,,Male,20,
19,5,214,0,0,5,['k'],['d'],N,Y,None,N,,,,,,,Male,20,
19,6,215,4,4,5,['k'],['d'],N,Y,['space'],Y,,,,,,,Male,20,
19,7,216,7,7,5,['k'],['k'],Y,Y,None,N,,,,,,,Male,20,
19,8,217,2,2,5,['k'],['k'],Y,N,None,Y,,,,,,,Male,20,
19,9,218,8,8,5,['k'],['d'],N,N,None,Y,,,,,,,Male,20,
19,10,219,7,7,5,['k'],['k'],Y,N,None,Y,,,,,,,Male,20,
20,0,220,6,6,5,['k'],['k'],Y,Y,['space'],Y,,,,,,,Male,20,
20,1,221,3,3,5,['k'],['k'],Y,Y,['space'],Y,,,,,,,Male,20,
20,2,222,9,9,5,['k'],['k'],Y,Y,['space'],Y,,,,,,,Male,20,
20,3,223,1,1,5,['k'],['k'],Y,N,None,Y,,,,,,,Male,20,
20,4,224,4,4,5,['d'],['d'],Y,N,None,Y,,,,,,,Male,20,
20,5,225,3,3,5,['k'],['d'],N,N,None,Y,,,,,,,Male,20,
20,6,226,3,3,5,['d'],['d'],Y,Y,['space'],Y,,,,,,,Male,20,
20,7,227,4,4,5,['k'],['k'],Y,Y,['space'],Y,,,,,,,Male,20,
20,8,228,8,8,5,['d'],['d'],Y,Y,['space'],Y,,,,,,,Male,20,
20,9,229,1,1,5,['k'],['k'],Y,N,None,Y,,,,,,,Male,20,
20,10,230,0,0,5,['k'],['k'],Y,Y,None,N,,,,,,,Male,20,
21,0,231,5,5,5,['d'],['d'],Y,Y,['space'],Y,,,,,,,Male,20,
21,1,232,8,8,5,['k'],['k'],Y,Y,None,N,,,,,,,Male,20,
21,2,233,9,9,5,['k'],['k'],Y,N,None,Y,,,,,,,Male,20,
21,3,234,7,7,5,['k'],['k'],Y,N,None,Y,,,,,,,Male,20,
21,4,235,10,10,5,['k'],['d'],N,Y,['space'],Y,,,,,,,Male,20,
21,5,236,10,10,5,['k'],['k'],Y,Y,None,N,,,,,,,Male,20,
21,6,237,6,6,5,['d'],['k'],N,N,None,Y,,,,,,,Male,20,
21,7,238,4,4,5,['d'],['d'],Y,N,None,Y,,,,,,,Male,20,
21,8,239,6,6,5,['k'],['k'],Y,N,None,Y,,,,,,,Male,20,
21,9,240,5,5,5,['k'],['k'],Y,N,None,Y,,,,,,,Male,20,
21,10,241,3,3,5,['d'],['d'],Y,N,None,Y,,,,,,,Male,20,
22,0,242,9,9,5,['k'],['k'],Y,N,None,Y,,,,,,,Male,20,
22,1,243,2,2,5,['k'],['k'],Y,Y,['space'],Y,,,,,,,Male,20,
22,2,244,8,8,5,['d'],['d'],Y,Y,['space'],Y,,,,,,,Male,20,
22,3,245,9,9,5,['k'],['k'],Y,Y,['space'],Y,,,,,,,Male,20,
22,4,246,5,5,5,['k'],['k'],Y,Y,['space'],Y,,,,,,,Male,20,
22,5,247,6,6,5,['d'],['d'],Y,N,None,Y,,,,,,,Male,20,
22,6,248,3,3,5,['d'],['d'],Y,N,None,Y,,,,,,,Male,20,
22,7,249,7,7,5,['k'],['k'],Y,N,None,Y,41,43,23,,,,Male,20,
22,8,250,10,10,6,['d'],['d'],Y,,,,,,,,,,Male,20,
22,9,251,3,3,6,['k'],['k'],Y,,,,,,,,,,Male,20,
22,10,252,2,2,6,['k'],['k'],Y,Y,['space'],Y,,,,,,,Male,20,
23,0,253,5,5,6,['k'],['k'],Y,Y,None,N,,,,,,,Male,20,
23,1,254,9,9,6,['k'],['k'],Y,N,None,Y,,,,,,,Male,20,
23,2,255,9,9,6,['k'],['k'],Y,N,None,Y,,,,,,,Male,20,
23,3,256,9,9,6,['k'],['k'],Y,N,None,Y,,,,,,,Male,20,
23,4,257,2,2,6,['k'],['k'],Y,Y,['space'],Y,,,,,,,Male,20,
23,5,258,7,7,6,['d'],['d'],Y,Y,['space'],Y,,,,,,,Male,20,
23,6,259,1,1,6,['k'],['k'],Y,N,None,Y,,,,,,,Male,20,
23,7,260,3,3,6,['k'],['d'],N,Y,['space'],Y,,,,,,,Male,20,
23,8,261,8,8,6,['k'],['k'],Y,N,None,Y,,,,,,,Male,20,
23,9,262,6,6,6,['d'],['d'],Y,Y,['space'],Y,,,,,,,Male,20,
23,10,263,8,8,6,['k'],['k'],Y,N,None,Y,,,,,,,Male,20,
24,0,264,2,2,6,['k'],['k'],Y,Y,['space'],Y,,,,,,,Male,20,
24,1,265,6,6,6,['d'],['d'],Y,Y,['space'],Y,,,,,,,Male,20,
24,2,266,4,4,6,['d'],['d'],Y,N,None,Y,,,,,,,Male,20,
24,3,267,1,1,6,['k'],['k'],Y,Y,['space'],Y,,,,,,,Male,20,
24,4,268,10,10,6,['k'],['k'],Y,Y,['space'],Y,,,,,,,Male,20,
24,5,269,3,3,6,['k'],['k'],Y,Y,['space'],Y,,,,,,,Male,20,
24,6,270,0,0,6,['d'],['k'],N,Y,['space'],Y,,,,,,,Male,20,
24,7,271,10,10,6,['d'],['d'],Y,Y,None,N,,,,,,,Male,20,
24,8,272,7,7,6,['k'],['d'],N,Y,None,N,,,,,,,Male,20,
24,9,273,2,2,6,['k'],['k'],Y,Y,['space'],Y,,,,,,,Male,20,
24,10,274,3,3,6,['d'],['d'],Y,N,None,Y,,,,,,,Male,20,
25,0,275,0,0,6,['k'],['k'],Y,Y,['space'],Y,,,,,,,Male,20,
25,1,276,0,0,6,['d'],['d'],Y,Y,['space'],Y,,,,,,,Male,20,
25,2,277,9,9,6,['k'],['k'],Y,N,None,Y,,,,,,,Male,20,
25,3,278,10,10,6,['k'],['k'],Y,Y,['space'],Y,,,,,,,Male,20,
25,4,279,4,4,6,['k'],['d'],N,Y,['space'],Y,,,,,,,Male,20,
25,5,280,3,3,6,['d'],['d'],Y,Y,['space'],Y,,,,,,,Male,20,
25,6,281,0,0,6,['k'],['d'],N,Y,['space'],Y,,,,,,,Male,20,
25,7,282,8,8,6,['d'],['d'],Y,Y,None,N,,,,,,,Male,20,
25,8,283,7,7,6,['k'],['d'],N,N,None,Y,,,,,,,Male,20,
25,9,284,3,3,6,['d'],['k'],N,Y,['space'],Y,,,,,,,Male,20,
25,10,285,9,9,6,['k'],['k'],Y,Y,['space'],Y,,,,,,,Male,20,
26,0,286,2,2,6,['k'],['k'],Y,N,None,Y,,,,,,,Male,20,
26,1,287,3,3,6,['k'],['k'],Y,Y,['space'],Y,,,,,,,Male,20,
26,2,288,5,5,6,['k'],['k'],Y,N,None,Y,,,,,,,Male,20,
26,3,289,10,10,6,['d'],['d'],Y,N,None,Y,,,,,,,Male,20,
26,4,290,7,7,6,['k'],['k'],Y,N,None,Y,,,,,,,Male,20,
26,5,291,5,5,6,['k'],['k'],Y,N,None,Y,,,,,,,Male,20,
26,6,292,9,9,6,['k'],['k'],Y,N,None,Y,,,,,,,Male,20,
26,7,293,9,9,6,['d'],['d'],Y,N,None,Y,,,,,,,Male,20,
26,8,294,8,8,6,['k'],['k'],Y,N,None,Y,,,,,,,Male,20,
26,9,295,9,9,6,['k'],['k'],Y,N,None,Y,,,,,,,Male,20,
26,10,296,5,5,6,['k'],['d'],N,N,None,Y,,,,,,,Male,20,
27,0,297,3,3,6,['k'],['k'],Y,N,None,Y,,,,,,,Male,20,
27,1,298,10,10,6,['d'],['d'],Y,N,None,Y,,,,,,,Male,20,
27,2,299,10,10,6,['d'],['d'],Y,N,None,Y,42,44,25,,,,Male,20,
27,3,300,1,1,7,['k'],['k'],Y,,,,,,,,,,Male,20,
27,4,301,3,3,7,['d'],['d'],Y,,,,,,,,,,Male,20,
27,5,302,0,0,7,['k'],['k'],Y,Y,['space'],Y,,,,,,,Male,20,
27,6,303,6,6,7,['d'],['d'],Y,Y,['space'],Y,,,,,,,Male,20,
27,7,304,8,8,7,['k'],['k'],Y,Y,['space'],Y,,,,,,,Male,20,
27,8,305,2,2,7,['k'],['k'],Y,N,None,Y,,,,,,,Male,20,
27,9,306,0,0,7,['d'],['k'],N,Y,['space'],Y,,,,,,,Male,20,
27,10,307,3,3,7,['k'],['d'],N,Y,['space'],Y,,,,,,,Male,20,
28,0,308,1,1,7,['d'],['d'],Y,Y,['space'],Y,,,,,,,Male,20,
28,1,309,7,7,7,['k'],['d'],N,N,None,Y,,,,,,,Male,20,
28,2,310,6,6,7,['k'],['d'],N,Y,['space'],Y,,,,,,,Male,20,
28,3,311,6,6,7,['d'],['d'],Y,N,None,Y,,,,,,,Male,20,
28,4,312,4,4,7,['k'],['k'],Y,Y,['space'],Y,,,,,,,Male,20,
28,5,313,9,9,7,['k'],['d'],N,Y,['space'],Y,,,,,,,Male,20,
28,6,314,9,9,7,['k'],['k'],Y,Y,['space'],Y,,,,,,,Male,20,
28,7,315,9,9,7,['d'],['d'],Y,N,None,Y,,,,,,,Male,20,
28,8,316,9,9,7,['k'],['k'],Y,N,None,Y,,,,,,,Male,20,
28,9,317,9,9,7,['d'],['k'],N,N,None,Y,,,,,,,Male,20,
28,10,318,6,6,7,['k'],['k'],Y,N,None,Y,,,,,,,Male,20,
29,0,319,0,0,7,['d'],['d'],Y,N,None,Y,,,,,,,Male,20,
29,1,320,9,9,7,['d'],['d'],Y,Y,['space'],Y,,,,,,,Male,20,
29,2,321,8,8,7,['k'],['k'],Y,Y,['space'],Y,,,,,,,Male,20,
29,3,322,8,8,7,['k'],['k'],Y,Y,['space'],Y,,,,,,,Male,20,
29,4,323,3,3,7,['d'],['k'],N,Y,['space'],Y,,,,,,,Male,20,
29,5,324,2,2,7,['k'],['k'],Y,N,None,Y,,,,,,,Male,20,
29,6,325,2,2,7,['d'],['d'],Y,N,None,Y,,,,,,,Male,20,
29,7,326,0,0,7,['k'],['d'],N,N,None,Y,,,,,,,Male,20,
29,8,327,7,7,7,['k'],['d'],N,N,None,Y,,,,,,,Male,20,
29,9,328,6,6,7,['d'],['k'],N,N,None,Y,,,,,,,Male,20,
29,10,329,3,3,7,['k'],['k'],Y,N,None,Y,,,,,,,Male,20,
30,0,330,1,1,7,['k'],['k'],Y,N,None,Y,,,,,,,Male,20,
30,1,331,0,0,7,['k'],['k'],Y,Y,['space'],Y,,,,,,,Male,20,
30,2,332,6,6,7,['d'],['d'],Y,N,['space'],N,,,,,,,Male,20,
30,3,333,9,9,7,['k'],['d'],N,N,None,Y,,,,,,,Male,20,
30,4,334,8,8,7,['k'],['k'],Y,Y,None,N,,,,,,,Male,20,
30,5,335,10,10,7,['k'],['d'],N,Y,['k'],N,,,,,,,Male,20,
30,6,336,8,8,7,['k'],['k'],Y,Y,None,N,,,,,,,Male,20,
30,7,337,10,10,7,['k'],['k'],Y,N,None,Y,,,,,,,Male,20,
30,8,338,4,4,7,['k'],['k'],Y,Y,['space'],Y,,,,,,,Male,20,
30,9,339,7,7,7,['d'],['d'],Y,N,None,Y,,,,,,,Male,20,
30,10,340,3,3,7,['d'],['d'],Y,Y,['space'],Y,,,,,,,Male,20,
31,0,341,10,10,7,['k'],['k'],Y,Y,['space'],Y,,,,,,,Male,20,
31,1,342,10,10,7,['k'],['k'],Y,Y,['space'],Y,,,,,,,Male,20,
31,2,343,2,2,7,['k'],['d'],N,Y,['space'],Y,,,,,,,Male,20,
31,3,344,2,2,7,['k'],['k'],Y,Y,['space'],Y,,,,,,,Male,20,
31,4,345,5,5,7,['k'],['k'],Y,N,None,Y,,,,,,,Male,20,
31,5,346,10,10,7,['k'],['k'],Y,N,None,Y,,,,,,,Male,20,
31,6,347,2,2,7,['k'],['d'],N,N,None,Y,,,,,,,Male,20,
31,7,348,8,8,7,['k'],['k'],Y,Y,['space'],Y,,,,,,,Male,20,
31,8,349,8,8,7,['k'],['k'],Y,N,None,Y,36,44,25,,,,Male,20,
31,9,350,2,2,8,['k'],['k'],Y,,,,,,,,,,Male,20,
31,10,351,5,5,8,['k'],['k'],Y,,,,,,,,,,Male,20,
32,0,352,7,7,8,['d'],['d'],Y,Y,['space'],Y,,,,,,,Male,20,
32,1,353,9,9,8,['d'],['d'],Y,Y,['space'],Y,,,,,,,Male,20,
32,2,354,10,10,8,['k'],['d'],N,Y,['space'],Y,,,,,,,Male,20,
32,3,355,2,2,8,['d'],['d'],Y,Y,['space'],Y,,,,,,,Male,20,
32,4,356,2,2,8,['k'],['k'],Y,N,None,Y,,,,,,,Male,20,
32,5,357,6,6,8,['d'],['d'],Y,N,None,Y,,,,,,,Male,20,
32,6,358,2,2,8,['k'],['k'],Y,Y,['space'],Y,,,,,,,Male,20,
32,7,359,0,0,8,['k'],['k'],Y,Y,None,N,,,,,,,Male,20,
32,8,360,5,5,8,['k'],['k'],Y,N,None,Y,,,,,,,Male,20,
32,9,361,6,6,8,['d'],['d'],Y,N,None,Y,,,,,,,Male,20,
32,10,362,3,3,8,['k'],['k'],Y,Y,['space'],Y,,,,,,,Male,20,
33,0,363,1,1,8,['k'],['d'],N,Y,['space'],Y,,,,,,,Male,20,
33,1,364,3,3,8,['k'],['k'],Y,N,None,Y,,,,,,,Male,20,
33,2,365,10,10,8,['k'],['k'],Y,N,None,Y,,,,,,,Male,20,
33,3,366,7,7,8,['k'],['d'],N,Y,['space'],Y,,,,,,,Male,20,
33,4,367,7,7,8,['d'],['d'],Y,N,None,Y,,,,,,,Male,20,
33,5,368,9,9,8,['k'],['d'],N,Y,['space'],Y,,,,,,,Male,20,
33,6,369,5,5,8,['d'],['d'],Y,N,None,Y,,,,,,,Male,20,
33,7,370,10,10,8,['d'],['d'],Y,Y,['space'],Y,,,,,,,Male,20,
33,8,371,6,6,8,['d'],['d'],Y,N,None,Y,,,,,,,Male,20,
33,9,372,9,9,8,['d'],['d'],Y,N,None,Y,,,,,,,Male,20,
33,10,373,1,1,8,['d'],['d'],Y,Y,['space'],Y,,,,,,,Male,20,
34,0,374,4,4,8,['d'],['d'],Y,Y,['space'],Y,,,,,,,Male,20,
34,1,375,0,0,8,['d'],['d'],Y,N,None,Y,,,,,,,Male,20,
34,2,376,7,7,8,['d'],['d'],Y,N,None,Y,,,,,,,Male,20,
34,3,377,7,7,8,['d'],['k'],N,N,None,Y,,,,,,,Male,20,
34,4,378,6,6,8,['k'],['d'],N,Y,None,N,,,,,,,Male,20,
34,5,379,9,9,8,['k'],['k'],Y,N,None,Y,,,,,,,Male,20,
34,6,380,4,4,8,['k'],['k'],Y,N,None,Y,,,,,,,Male,20,
34,7,381,2,2,8,['d'],['d'],Y,Y,['space'],Y,,,,,,,Male,20,
34,8,382,9,9,8,['k'],['k'],Y,Y,['space'],Y,,,,,,,Male,20,
34,9,383,5,5,8,['d'],['k'],N,Y,['space'],Y,,,,,,,Male,20,
34,10,384,10,10,8,['d'],['d'],Y,Y,['space'],Y,,,,,,,Male,20,
35,0,385,2,2,8,['d'],['d'],Y,Y,None,N,,,,,,,Male,20,
35,1,386,0,0,8,['d'],['d'],Y,N,None,Y,,,,,,,Male,20,
35,2,387,1,1,8,['k'],['d'],N,Y,None,N,,,,,,,Male,20,
35,3,388,3,3,8,['d'],['k'],N,N,None,Y,,,,,,,Male,20,
35,4,389,2,2,8,['d'],['d'],Y,Y,None,N,,,,,,,Male,20,
35,5,390,1,1,8,['k'],['d'],N,Y,None,N,,,,,,,Male,20,
35,6,391,5,5,8,['k'],['k'],Y,Y,['space'],Y,,,,,,,Male,20,
35,7,392,7,7,8,['d'],['d'],Y,Y,['space'],Y,,,,,,,Male,20,
35,8,393,4,4,8,['k'],['k'],Y,Y,['space'],Y,,,,,,,Male,20,
35,9,394,2,2,8,['d'],['d'],Y,N,None,Y,,,,,,,Male,20,
35,10,395,3,3,8,['k'],['k'],Y,N,None,Y,,,,,,,Male,20,
36,0,396,4,4,8,['k'],['k'],Y,N,None,Y,,,,,,,Male,20,
36,1,397,0,0,8,['d'],['d'],Y,N,None,Y,,,,,,,Male,20,
36,2,398,1,1,8,['d'],['d'],Y,N,None,Y,,,,,,,Male,20,
36,3,399,3,3,8,['k'],['k'],Y,N,None,Y,40,42,25,,,,Male,20,
36,4,400,10,10,9,['d'],['d'],Y,,,,,,,,,,Male,20,
36,5,401,5,5,9,['k'],['k'],Y,,,,,,,,,,Male,20,
36,6,402,1,1,9,['d'],['d'],Y,N,None,Y,,,,,,,Male,20,
36,7,403,3,3,9,['d'],['d'],Y,N,None,Y,,,,,,,Male,20,
36,8,404,2,2,9,['k'],['k'],Y,Y,['space'],Y,,,,,,,Male,20,
36,9,405,2,2,9,['d'],['d'],Y,Y,['space'],Y,,,,,,,Male,20,
36,10,406,6,6,9,['d'],['d'],Y,N,None,Y,,,,,,,Male,20,
37,0,407,10,10,9,['k'],['k'],Y,N,None,Y,,,,,,,Male,20,
37,1,408,6,6,9,['d'],['d'],Y,N,None,Y,,,,,,,Male,20,
37,2,409,2,2,9,['d'],['d'],Y,N,None,Y,,,,,,,Male,20,
37,3,410,3,3,9,['k'],['k'],Y,N,None,Y,,,,,,,Male,20,
37,4,411,10,10,9,['k'],['k'],Y,N,None,Y,,,,,,,Male,20,
37,5,412,3,3,9,['d'],['d'],Y,N,None,Y,,,,,,,Male,20,
37,6,413,2,2,9,['d'],['d'],Y,N,None,Y,,,,,,,Male,20,
37,7,414,7,7,9,['k'],['k'],Y,Y,['space'],Y,,,,,,,Male,20,
37,8,415,5,5,9,['k'],['d'],N,Y,['space'],Y,,,,,,,Male,20,
37,9,416,5,5,9,['d'],['d'],Y,N,None,Y,,,,,,,Male,20,
37,10,417,9,9,9,['d'],['d'],Y,Y,['space'],Y,,,,,,,Male,20,
38,0,418,7,7,9,['k'],['k'],Y,Y,['space'],Y,,,,,,,Male,20,
38,1,419,10,10,9,['k'],['d'],N,N,None,Y,,,,,,,Male,20,
38,2,420,8,8,9,['d'],['d'],Y,Y,['space'],Y,,,,,,,Male,20,
38,3,421,9,9,9,['k'],['k'],Y,Y,['space'],Y,,,,,,,Male,20,
38,4,422,0,0,9,['d'],['d'],Y,Y,['space'],Y,,,,,,,Male,20,
38,5,423,1,1,9,['k'],['d'],N,N,None,Y,,,,,,,Male,20,
38,6,424,1,1,9,['d'],['d'],Y,Y,['space'],Y,,,,,,,Male,20,
38,7,425,0,0,9,['k'],['k'],Y,N,None,Y,,,,,,,Male,20,
38,8,426,4,4,9,['k'],['k'],Y,Y,['space'],Y,,,,,,,Male,20,
38,9,427,10,10,9,['d'],['d'],Y,N,None,Y,,,,,,,Male,20,
38,10,428,0,0,9,['k'],['k'],Y,Y,['space'],Y,,,,,,,Male,20,
39,0,429,1,1,9,['d'],['d'],Y,Y,['space'],Y,,,,,,,Male,20,
39,1,430,9,9,9,['k'],['k'],Y,Y,['space'],Y,,,,,,,Male,20,
39,2,431,4,4,9,['d'],['d'],Y,Y,['space'],Y,,,,,,,Male,20,
39,3,432,10,10,9,['k'],['k'],Y,N,None,Y,,,,,,,Male,20,
39,4,433,5,5,9,['k'],['k'],Y,Y,['space'],Y,,,,,,,Male,20,
39,5,434,7,7,9,['d'],['d'],Y,N,None,Y,,,,,,,Male,20,
39,6,435,7,7,9,['d'],['k'],N,Y,['space'],Y,,,,,,,Male,20,
39,7,436,2,2,9,['d'],['d'],Y,N,None,Y,,,,,,,Male,20,
39,8,437,4,4,9,['d'],['k'],N,Y,['space'],Y,,,,,,,Male,20,
39,9,438,0,0,9,['d'],['d'],Y,N,None,Y,,,,,,,Male,20,
39,10,439,6,6,9,['d'],['k'],N,Y,['space'],Y,,,,,,,Male,20,
40,0,440,4,4,9,['k'],['k'],Y,Y,['space'],Y,,,,,,,Male,20,
40,1,441,1,1,9,['d'],['d'],Y,N,None,Y,,,,,,,Male,20,
40,2,442,5,5,9,['d'],['d'],Y,Y,None,N,,,,,,,Male,20,
40,3,443,7,7,9,['k'],['d'],N,Y,None,N,,,,,,,Male,20,
40,4,444,8,8,9,['k'],['k'],Y,Y,['space'],Y,,,,,,,Male,20,
40,5,445,7,7,9,['d'],['d'],Y,Y,['space'],Y,,,,,,,Male,20,
40,6,446,0,0,9,['d'],['d'],Y,Y,['space'],Y,,,,,,,Male,20,
40,7,447,1,1,9,['d'],['d'],Y,N,None,Y,,,,,,,Male,20,
40,8,448,5,5,9,['d'],['k'],N,N,None,Y,,,,,,,Male,20,
40,9,449,2,2,9,['k'],['k'],Y,N,None,Y,42,46,25,,,,Male,20,
40,10,450,8,8,10,['d'],['d'],Y,,,,,,,,,,Male,20,
41,0,451,9,9,10,['k'],['k'],Y,,,,,,,,,,Male,20,
41,1,452,10,10,10,['k'],['k'],Y,N,None,Y,,,,,,,Male,20,
41,2,453,4,4,10,['k'],['d'],N,N,None,Y,,,,,,,Male,20,
41,3,454,2,2,10,['k'],['k'],Y,Y,['space'],Y,,,,,,,Male,20,
41,4,455,4,4,10,['d'],['d'],Y,N,None,Y,,,,,,,Male,20,
41,5,456,8,8,10,['d'],['d'],Y,N,None,Y,,,,,,,Male,20,
41,6,457,8,8,10,['d'],['d'],Y,Y,['space'],Y,,,,,,,Male,20,
41,7,458,4,4,10,['k'],['k'],Y,Y,['space'],Y,,,,,,,Male,20,
41,8,459,5,5,10,['d'],['d'],Y,Y,['space'],Y,,,,,,,Male,20,
41,9,460,6,6,10,['d'],['d'],Y,Y,['space'],Y,,,,,,,Male,20,
41,10,461,3,3,10,['d'],['d'],Y,Y,['space'],Y,,,,,,,Male,20,
42,0,462,4,4,10,['k'],['d'],N,Y,['space'],Y,,,,,,,Male,20,
42,1,463,10,10,10,['d'],['d'],Y,N,None,Y,,,,,,,Male,20,
42,2,464,4,4,10,['d'],['d'],Y,N,None,Y,,,,,,,Male,20,
42,3,465,8,8,10,['d'],['d'],Y,Y,['space'],Y,,,,,,,Male,20,
42,4,466,1,1,10,['d'],['d'],Y,N,None,Y,,,,,,,Male,20,
42,5,467,7,7,10,['k'],['k'],Y,Y,['space'],Y,,,,,,,Male,20,
42,6,468,0,0,10,['k'],['k'],Y,N,None,Y,,,,,,,Male,20,
42,7,469,1,1,10,['k'],['k'],Y,N,None,Y,,,,,,,Male,20,
42,8,470,0,0,10,['d'],['d'],Y,N,None,Y,,,,,,,Male,20,
42,9,471,1,1,10,['k'],['d'],N,N,None,Y,,,,,,,Male,20,
42,10,472,9,9,10,['k'],['d'],N,Y,['space'],Y,,,,,,,Male,20,
43,0,473,10,10,10,['d'],['k'],N,N,None,Y,,,,,,,Male,20,
43,1,474,3,3,10,['d'],['d'],Y,N,None,Y,,,,,,,Male,20,
43,2,475,4,4,10,['k'],['k'],Y,Y,['space'],Y,,,,,,,Male,20,
43,3,476,5,5,10,['d'],['d'],Y,Y,['space'],Y,,,,,,,Male,20,
43,4,477,1,1,10,['k'],['k'],Y,Y,['space'],Y,,,,,,,Male,20,
43,5,478,1,1,10,['k'],['d'],N,Y,['space'],Y,,,,,,,Male,20,
43,6,479,6,6,10,['d'],['d'],Y,Y,['space'],Y,,,,,,,Male,20,
43,7,480,7,7,10,['d'],['k'],N,Y,['space'],Y,,,,,,,Male,20,
43,8,481,7,7,10,['d'],['d'],Y,N,None,Y,,,,,,,Male,20,
43,9,482,7,7,10,['k'],['d'],N,N,None,Y,,,,,,,Male,20,
43,10,483,0,0,10,['k'],['k'],Y,Y,['space'],Y,,,,,,,Male,20,
44,0,484,2,2,10,['k'],['d'],N,N,None,Y,,,,,,,Male,20,
44,1,485,3,3,10,['d'],['k'],N,N,None,Y,,,,,,,Male,20,
44,2,486,1,1,10,['k'],['k'],Y,N,None,Y,,,,,,,Male,20,
44,3,487,3,3,10,['k'],['k'],Y,Y,['space'],Y,,,,,,,Male,20,
44,4,488,8,8,10,['d'],['d'],Y,Y,['space'],Y,,,,,,,Male,20,
44,5,489,9,9,10,['k'],['d'],N,N,None,Y,,,,,,,Male,20,
44,6,490,3,3,10,['k'],['k'],Y,Y,['space'],Y,,,,,,,Male,20,
44,7,491,10,10,10,['d'],['k'],N,N,None,Y,,,,,,,Male,20,
44,8,492,2,2,10,['d'],['d'],Y,N,None,Y,,,,,,,Male,20,
44,9,493,7,7,10,['k'],['k'],Y,Y,['space'],Y,,,,,,,Male,20,
44,10,494,1,1,10,['k'],['d'],N,Y,['space'],Y,,,,,,,Male,20,
45,0,495,1,1,10,['d'],['d'],Y,N,['space'],N,,,,,,,Male,20,
45,1,496,3,3,10,['d'],['d'],Y,N,None,Y,,,,,,,Male,20,
45,2,497,8,8,10,['d'],['k'],N,Y,None,N,,,,,,,Male,20,
45,3,498,2,2,10,['d'],['d'],Y,N,None,Y,,,,,,,Male,20,
45,4,499,5,5,10,['k'],['k'],Y,N,None,Y,36,46,23,,,,Male,20,
45,5,500,6,6,11,['d'],['d'],N,,,,,,,Y,Y,Y,Male,20,
45,6,501,8,8,11,['k'],['d'],Y,,,,,,,,Y,Y,Male,20,
45,7,502,8,8,11,['d'],['k'],Y,N,None,Y,,,,,Y,Y,Male,20,
45,8,503,10,10,11,['d'],['k'],Y,N,None,Y,,,,,Y,Y,Male,20,
45,9,504,2,2,11,['k'],['d'],Y,N,None,Y,,,,,Y,Y,Male,20,
45,10,505,9,9,11,['d'],['k'],Y,Y,['space'],Y,,,,,Y,Y,Male,20,
46,0,506,8,8,11,['k'],['d'],Y,N,None,Y,,,,,Y,Y,Male,20,
46,1,507,0,0,11,['k'],['d'],Y,N,None,Y,,,,,Y,Y,Male,20,
46,2,508,8,8,11,['d'],['k'],Y,N,None,Y,,,,,Y,Y,Male,20,
46,3,509,0,0,11,['k'],['d'],Y,Y,['space'],Y,,,,,Y,Y,Male,20,
46,4,510,9,9,11,['d'],['k'],Y,Y,['space'],Y,,,,,Y,Y,Male,20,
46,5,511,2,2,11,['d'],['d'],N,Y,['space'],Y,,,,,Y,Y,Male,20,
46,6,512,10,10,11,['k'],['d'],Y,Y,['space'],Y,,,,,Y,Y,Male,20,
46,7,513,6,6,11,['k'],['d'],Y,Y,['space'],Y,,,,,Y,Y,Male,20,
46,8,514,5,5,11,['d'],['k'],Y,N,None,Y,,,,,Y,Y,Male,20,
46,9,515,2,2,11,['d'],['k'],Y,N,None,Y,,,,,Y,Y,Male,20,
46,10,516,0,0,11,['d'],['k'],Y,Y,['space'],Y,,,,,Y,Y,Male,20,
47,0,517,9,9,11,['k'],['d'],Y,Y,['space'],Y,,,,,Y,Y,Male,20,
47,1,518,6,6,11,['d'],['k'],Y,Y,['space'],Y,,,,,Y,Y,Male,20,
47,2,519,2,2,11,['d'],['k'],Y,N,None,Y,,,,,Y,Y,Male,20,
47,3,520,5,5,11,['d'],['d'],N,N,None,Y,,,,,Y,Y,Male,20,
47,4,521,1,1,11,['d'],['k'],Y,N,None,Y,,,,,Y,Y,Male,20,
47,5,522,2,2,11,['k'],['d'],Y,N,None,Y,,,,,Y,Y,Male,20,
47,6,523,9,9,11,['d'],['k'],Y,N,None,Y,,,,,Y,Y,Male,20,
47,7,524,7,7,11,['d'],['k'],Y,Y,['space'],Y,,,,,Y,Y,Male,20,
47,8,525,6,6,11,['d'],['k'],Y,Y,['space'],Y,,,,,Y,Y,Male,20,
47,9,526,0,0,11,['k'],['d'],Y,N,None,Y,,,,,Y,Y,Male,20,
47,10,527,0,0,11,['k'],['d'],Y,N,None,Y,,,,,Y,Y,Male,20,
48,0,528,1,1,11,['d'],['k'],Y,Y,['space'],Y,,,,,Y,Y,Male,20,
48,1,529,4,4,11,['d'],['k'],Y,Y,['space'],Y,,,,,Y,Y,Male,20,
48,2,530,2,2,11,['k'],['k'],N,N,None,Y,,,,,Y,Y,Male,20,
48,3,531,4,4,11,['d'],['k'],Y,Y,['space'],Y,,,,,Y,Y,Male,20,
48,4,532,6,6,11,['d'],['k'],Y,N,None,Y,,,,,Y,Y,Male,20,
48,5,533,7,7,11,['d'],['k'],Y,Y,['space'],Y,,,,,Y,Y,Male,20,
48,6,534,1,1,11,['k'],['d'],Y,Y,['space'],Y,,,,,Y,Y,Male,20,
48,7,535,6,6,11,['d'],['k'],Y,N,None,Y,,,,,Y,Y,Male,20,
48,8,536,5,5,11,['k'],['d'],Y,N,None,Y,,,,,Y,Y,Male,20,
48,9,537,4,4,11,['d'],['k'],Y,Y,['space'],Y,,,,,Y,Y,Male,20,
48,10,538,0,0,11,['d'],['k'],Y,N,None,Y,,,,,Y,Y,Male,20,
49,0,539,7,7,11,['d'],['k'],Y,N,None,Y,,,,,Y,Y,Male,20,
49,1,540,4,4,11,['k'],['d'],Y,N,None,Y,,,,,Y,Y,Male,20,
49,2,541,2,2,11,['k'],['d'],Y,N,None,Y,,,,,Y,Y,Male,20,
49,3,542,3,3,11,['k'],['d'],Y,N,None,Y,,,,,Y,Y,Male,20,
49,4,543,6,6,11,['k'],['d'],Y,Y,['space'],Y,,,,,Y,Y,Male,20,
49,5,544,6,6,11,['d'],['k'],Y,N,None,Y,,,,,Y,Y,Male,20,
49,6,545,7,7,11,['k'],['d'],Y,N,None,Y,,,,,Y,Y,Male,20,
49,7,546,0,0,11,['d'],['d'],N,N,None,Y,,,,,Y,Y,Male,20,
49,8,547,6,6,11,['d'],['k'],Y,N,None,Y,,,,,Y,Y,Male,20,
49,9,548,3,3,11,['d'],['k'],Y,Y,['space'],Y,,,,,Y,Y,Male,20,
49,10,549,3,3,11,['k'],['d'],Y,Y,['space'],Y,45,48,20,,Y,Y,Male,20,
50,0,550,4,4,12,['d'],['k'],Y,,,,,,,,Y,Y,Male,20,
50,1,551,5,5,12,['k'],['d'],Y,,,,,,,,Y,Y,Male,20,
50,2,552,0,0,12,['k'],['d'],Y,N,None,Y,,,,,Y,Y,Male,20,
50,3,553,0,0,12,['d'],['k'],Y,Y,None,N,,,,,Y,Y,Male,20,
50,4,554,0,0,12,['k'],['d'],Y,N,None,Y,,,,,Y,Y,Male,20,
50,5,555,5,5,12,['d'],['k'],Y,N,None,Y,,,,,Y,Y,Male,20,
50,6,556,6,6,12,['d'],['k'],Y,N,None,Y,,,,,Y,Y,Male,20,
50,7,557,5,5,12,['d'],['k'],Y,N,None,Y,,,,,Y,Y,Male,20,
50,8,558,5,5,12,['d'],['k'],Y,Y,['space'],Y,,,,,Y,Y,Male,20,
50,9,559,8,8,12,['d'],['k'],Y,Y,['space'],Y,,,,,Y,Y,Male,20,
50,10,560,8,8,12,['k'],['d'],Y,Y,['space'],Y,,,,,Y,Y,Male,20,
51,0,561,0,0,12,['k'],['d'],Y,N,None,Y,,,,,Y,Y,Male,20,
51,1,562,7,7,12,['k'],['d'],Y,N,None,Y,,,,,Y,Y,Male,20,
51,2,563,4,4,12,['k'],['d'],Y,N,None,Y,,,,,Y,Y,Male,20,
51,3,564,2,2,12,['d'],['d'],N,N,None,Y,,,,,Y,Y,Male,20,
51,4,565,1,1,12,['d'],['d'],N,Y,['space'],Y,,,,,Y,Y,Male,20,
51,5,566,4,4,12,['k'],['d'],Y,N,None,Y,,,,,Y,Y,Male,20,
51,6,567,4,4,12,['k'],['k'],N,N,None,Y,,,,,Y,Y,Male,20,
51,7,568,10,10,12,['d'],['d'],N,N,None,Y,,,,,Y,Y,Male,20,
51,8,569,6,6,12,['k'],['d'],Y,Y,['space'],Y,,,,,Y,Y,Male,20,
51,9,570,0,0,12,['d'],['d'],N,N,None,Y,,,,,Y,Y,Male,20,
51,10,571,0,0,12,['k'],['d'],Y,Y,['space'],Y,,,,,Y,Y,Male,20,
52,0,572,10,10,12,['k'],['d'],Y,N,None,Y,,,,,Y,Y,Male,20,
52,1,573,10,10,12,['d'],['k'],Y,Y,['space'],Y,,,,,Y,Y,Male,20,
52,2,574,0,0,12,['d'],['k'],Y,Y,['space'],Y,,,,,Y,Y,Male,20,
52,3,575,9,9,12,['d'],['k'],Y,N,None,Y,,,,,Y,Y,Male,20,
52,4,576,9,9,12,['k'],['d'],Y,N,None,Y,,,,,Y,Y,Male,20,
52,5,577,5,5,12,['d'],['k'],Y,N,None,Y,,,,,Y,Y,Male,20,
52,6,578,6,6,12,['d'],['d'],N,Y,['space'],Y,,,,,Y,Y,Male,20,
52,7,579,9,9,12,['k'],['d'],Y,Y,['space'],Y,,,,,Y,Y,Male,20,
52,8,580,10,10,12,['d'],['k'],Y,Y,['space'],Y,,,,,Y,Y,Male,20,
52,9,581,7,7,12,['k'],['d'],Y,N,None,Y,,,,,Y,Y,Male,20,
52,10,582,7,7,12,['k'],['d'],Y,Y,['space'],Y,,,,,Y,Y,Male,20,
53,0,583,6,6,12,['d'],['k'],Y,Y,['space'],Y,,,,,Y,Y,Male,20,
53,1,584,8,8,12,['k'],['d'],Y,Y,['space'],Y,,,,,Y,Y,Male,20,
53,2,585,4,4,12,['k'],['d'],Y,N,None,Y,,,,,Y,Y,Male,20,
53,3,586,5,5,12,['k'],['d'],Y,Y,['space'],Y,,,,,Y,Y,Male,20,
53,4,587,9,9,12,['k'],['d'],Y,N,None,Y,,,,,Y,Y,Male,20,
53,5,588,10,10,12,['k'],['d'],Y,N,None,Y,,,,,Y,Y,Male,20,
53,6,589,5,5,12,['d'],['k'],Y,Y,['space'],Y,,,,,Y,Y,Male,20,
53,7,590,10,10,12,['k'],['d'],Y,Y,None,N,,,,,Y,Y,Male,20,
53,8,591,9,9,12,['d'],['k'],Y,Y,None,N,,,,,Y,Y,Male,20,
53,9,592,4,4,12,['d'],['d'],N,Y,['space'],Y,,,,,Y,Y,Male,20,
53,10,593,0,0,12,['k'],['d'],Y,N,None,Y,,,,,Y,Y,Male,20,
54,0,594,3,3,12,['d'],['k'],Y,N,None,Y,,,,,Y,Y,Male,20,
54,1,595,3,3,12,['k'],['d'],Y,Y,['space'],Y,,,,,Y,Y,Male,20,
54,2,596,7,7,12,['k'],['d'],Y,N,None,Y,,,,,Y,Y,Male,20,
54,3,597,8,8,12,['k'],['d'],Y,N,None,Y,,,,,Y,Y,Male,20,
54,4,598,7,7,12,['d'],['k'],Y,N,None,Y,,,,,Y,Y,Male,20,
54,5,599,2,2,12,['d'],['k'],Y,N,None,Y,43,45,21,,Y,Y,Male,20,
