.thisRepN,.thisTrialN,.thisN,.thisIndex,.thisTrial,Block Number,Key pressed,Category,Correct?,Int Match?,Int Response,Int Correct?,Line Accuracy,Interference Accuracy,Matching Interferences,New instruction shown?,Buttons switched?,Fast?,gender,age,
0,0,0,7,7,1,['k'],['d'],N,,,,,,,,,,M,21,
0,1,1,13,13,1,['k'],['k'],Y,,,,,,,,,,M,21,
0,2,2,9,9,1,['d'],['d'],Y,Y,['d'],N,,,,,,,M,21,
0,3,3,5,5,1,['k'],['k'],Y,N,None,Y,,,,,,,M,21,
0,4,4,0,0,1,None,,Timed out,Y,['space'],Y,,,,,,,M,21,
0,5,5,11,11,1,['k'],['k'],Y,N,None,Y,,,,,,,M,21,
0,6,6,6,6,1,['d'],['k'],N,Y,None,N,,,,,,,M,21,
0,7,7,0,0,1,['k'],['k'],Y,N,None,Y,,,,,,,M,21,
0,8,8,4,4,1,['k'],['k'],Y,N,None,Y,,,,,,,M,21,
0,9,9,1,1,1,['d'],['d'],Y,Y,['space'],Y,,,,,,,M,21,
0,10,10,13,13,1,['d'],['d'],Y,N,None,Y,,,,,,,M,21,
0,11,11,1,1,1,['k'],['k'],Y,N,['space'],N,,,,,,,M,21,
0,12,12,8,8,1,['d'],['d'],Y,N,None,Y,,,,,,,M,21,
0,13,13,13,13,1,['k'],['k'],Y,N,None,Y,,,,,,,M,21,
0,14,14,2,2,1,['k'],['d'],N,N,None,Y,,,,,,,M,21,
1,0,15,12,12,1,['d'],['d'],Y,Y,None,N,,,,,,,M,21,
1,1,16,5,5,1,['d'],['d'],Y,Y,['space'],Y,,,,,,,M,21,
1,2,17,2,2,1,['k'],['d'],N,Y,None,N,,,,,,,M,21,
1,3,18,0,0,1,['d'],['d'],Y,Y,['space'],Y,,,,,,,M,21,
1,4,19,5,5,1,['k'],['k'],Y,N,None,Y,,,,,,,M,21,
1,5,20,0,0,1,['d'],['d'],Y,N,None,Y,,,,,,,M,21,
1,6,21,7,7,1,['k'],['d'],N,N,None,Y,,,,,,,M,21,
1,7,22,8,8,1,['k'],['k'],Y,N,None,Y,,,,,,,M,21,
1,8,23,7,7,1,['k'],['k'],Y,N,None,Y,,,,,,,M,21,
1,9,24,1,1,1,['d'],['d'],Y,N,None,Y,,,,,,,M,21,
1,10,25,1,1,1,['d'],['d'],Y,Y,['space'],Y,,,,,,,M,21,
1,11,26,10,10,1,['d'],['d'],Y,Y,['space'],Y,,,,,,,M,21,
1,12,27,7,7,1,['d'],['d'],Y,N,['space'],N,,,,,,,M,21,
1,13,28,13,13,1,['d'],['k'],N,N,['space'],N,,,,,,,M,21,
1,14,29,14,14,1,['d'],['d'],Y,N,None,Y,,,,,,,M,21,
2,0,30,7,7,1,['d'],['d'],Y,Y,['space'],Y,,,,,,,M,21,
2,1,31,14,14,1,"['d', 'k']",['d'],N,Y,['space'],Y,,,,,,,M,21,
2,2,32,11,11,1,['k'],['k'],Y,Y,['space'],Y,,,,,,,M,21,
2,3,33,5,5,1,['k'],['k'],Y,Y,['space'],Y,,,,,,,M,21,
2,4,34,7,7,1,['k'],['k'],Y,N,['space'],N,,,,,,,M,21,
2,5,35,1,1,1,['k'],['k'],Y,N,None,Y,,,,,,,M,21,
2,6,36,12,12,1,['d'],['d'],Y,N,None,Y,,,,,,,M,21,
2,7,37,3,3,1,['d'],['d'],Y,Y,['space'],Y,,,,,,,M,21,
2,8,38,12,12,1,['k'],['k'],Y,N,None,Y,,,,,,,M,21,
2,9,39,7,7,1,['k'],['k'],Y,Y,['space'],Y,,,,,,,M,21,
2,10,40,1,1,1,['d'],['d'],Y,N,None,Y,,,,,,,M,21,
2,11,41,13,13,1,['d'],['d'],Y,Y,['space'],Y,,,,,,,M,21,
2,12,42,9,9,1,['k'],['k'],Y,Y,['space'],Y,,,,,,,M,21,
2,13,43,1,1,1,['k'],['k'],Y,N,None,Y,,,,,,,M,21,
2,14,44,5,5,1,['k'],['d'],N,N,None,Y,,,,,,,M,21,
3,0,45,12,12,1,['k'],['k'],Y,Y,['space'],Y,,,,,,,M,21,
3,1,46,10,10,1,['k'],['k'],Y,Y,['space'],Y,,,,,,,M,21,
3,2,47,14,14,1,['k'],['k'],Y,N,None,Y,,,,,,,M,21,
3,3,48,12,12,1,"['d', 'k']",['d'],N,Y,None,N,,,,,,,M,21,
3,4,49,0,0,1,['d'],['k'],N,N,None,Y,39,39,21,,,,M,21,
3,5,50,4,4,2,['d'],['d'],Y,,,,,,,,,,M,21,
3,6,51,7,7,2,['k'],['k'],Y,,,,,,,,,,M,21,
3,7,52,14,14,2,['k'],['k'],Y,N,None,Y,,,,,,,M,21,
3,8,53,4,4,2,['k'],['k'],Y,Y,['space'],Y,,,,,,,M,21,
3,9,54,13,13,2,['k'],['d'],N,N,None,Y,,,,,,,M,21,
3,10,55,1,1,2,['d'],['d'],Y,Y,['k'],N,,,,,,,M,21,
3,11,56,6,6,2,['d'],['d'],Y,N,None,Y,,,,,,,M,21,
3,12,57,13,13,2,['d'],['d'],Y,Y,['space'],Y,,,,,,,M,21,
3,13,58,2,2,2,['k'],['k'],Y,Y,None,N,,,,,,,M,21,
3,14,59,13,13,2,['k'],['k'],Y,Y,['space'],Y,,,,,,,M,21,
4,0,60,9,9,2,['k'],['d'],N,N,None,Y,,,,,,,M,21,
4,1,61,11,11,2,['d'],['d'],Y,N,None,Y,,,,,,,M,21,
4,2,62,5,5,2,['d'],['d'],Y,N,None,Y,,,,,,,M,21,
4,3,63,11,11,2,['k'],['k'],Y,N,None,Y,,,,,,,M,21,
4,4,64,5,5,2,['k'],['k'],Y,Y,['space'],Y,,,,,,,M,21,
4,5,65,5,5,2,['d'],['k'],N,Y,['space'],Y,,,,,,,M,21,
4,6,66,4,4,2,['k'],['k'],Y,N,None,Y,,,,,,,M,21,
4,7,67,11,11,2,['d'],['d'],Y,N,None,Y,,,,,,,M,21,
4,8,68,3,3,2,['d'],['d'],Y,Y,['space'],Y,,,,,,,M,21,
4,9,69,14,14,2,['d'],['d'],Y,Y,['space'],Y,,,,,,,M,21,
4,10,70,4,4,2,['d'],['d'],Y,Y,['space'],Y,,,,,,,M,21,
4,11,71,13,13,2,['d'],['d'],Y,Y,['space'],Y,,,,,,,M,21,
4,12,72,0,0,2,['k'],['k'],Y,Y,['space'],Y,,,,,,,M,21,
4,13,73,14,14,2,['k'],['k'],Y,N,None,Y,,,,,,,M,21,
4,14,74,3,3,2,['d'],['d'],Y,Y,None,N,,,,,,,M,21,
5,0,75,0,0,2,['d'],['d'],Y,N,None,Y,,,,,,,M,21,
5,1,76,12,12,2,['d'],['d'],Y,Y,['space'],Y,,,,,,,M,21,
5,2,77,3,3,2,['d'],['k'],N,Y,['space'],Y,,,,,,,M,21,
5,3,78,12,12,2,['k'],['k'],Y,Y,['space'],Y,,,,,,,M,21,
5,4,79,12,12,2,['d'],['d'],Y,N,None,Y,,,,,,,M,21,
5,5,80,4,4,2,['k'],['k'],Y,Y,['space'],Y,,,,,,,M,21,
5,6,81,11,11,2,['k'],['k'],Y,Y,['space'],Y,,,,,,,M,21,
5,7,82,6,6,2,['k'],['k'],Y,N,None,Y,,,,,,,M,21,
5,8,83,11,11,2,['k'],['k'],Y,Y,['space'],Y,,,,,,,M,21,
5,9,84,4,4,2,['d'],['d'],Y,Y,['space'],Y,,,,,,,M,21,
5,10,85,8,8,2,['k'],['d'],N,N,None,Y,,,,,,,M,21,
5,11,86,8,8,2,['k'],['k'],Y,N,None,Y,,,,,,,M,21,
5,12,87,11,11,2,['d'],['d'],Y,Y,['space'],Y,,,,,,,M,21,
5,13,88,12,12,2,['d'],['k'],N,N,None,Y,,,,,,,M,21,
5,14,89,2,2,2,['k'],['k'],Y,Y,['space'],Y,,,,,,,M,21,
6,0,90,8,8,2,['k'],['d'],N,Y,['space'],Y,,,,,,,M,21,
6,1,91,9,9,2,['d'],['d'],Y,Y,['space'],Y,,,,,,,M,21,
6,2,92,12,12,2,['k'],['k'],Y,Y,['space'],Y,,,,,,,M,21,
6,3,93,11,11,2,['d'],['k'],N,N,None,Y,,,,,,,M,21,
6,4,94,0,0,2,['k'],['k'],Y,N,None,Y,,,,,,,M,21,
6,5,95,4,4,2,['d'],['k'],N,N,None,Y,,,,,,,M,21,
6,6,96,2,2,2,['k'],['k'],Y,N,None,Y,,,,,,,M,21,
6,7,97,0,0,2,['d'],['d'],Y,N,None,Y,,,,,,,M,21,
6,8,98,0,0,2,['d'],['d'],Y,N,None,Y,,,,,,,M,21,
6,9,99,2,2,2,['k'],['k'],Y,N,None,Y,41,45,25,,,,M,21,
6,10,100,3,3,3,['k'],['k'],Y,,,,,,,,,,M,21,
6,11,101,9,9,3,['d'],['d'],Y,,,,,,,,,,M,21,
6,12,102,13,13,3,['k'],['k'],Y,Y,['space'],Y,,,,,,,M,21,
6,13,103,13,13,3,['k'],['k'],Y,N,None,Y,,,,,,,M,21,
6,14,104,10,10,3,['k'],['d'],N,N,None,Y,,,,,,,M,21,
7,0,105,3,3,3,['k'],['d'],N,N,['space'],N,,,,,,,M,21,
7,1,106,1,1,3,['d'],['d'],Y,N,None,Y,,,,,,,M,21,
7,2,107,1,1,3,['k'],['k'],Y,N,None,Y,,,,,,,M,21,
7,3,108,14,14,3,['k'],['k'],Y,N,None,Y,,,,,,,M,21,
7,4,109,3,3,3,['d'],['d'],Y,Y,['space'],Y,,,,,,,M,21,
7,5,110,3,3,3,['d'],['d'],Y,N,None,Y,,,,,,,M,21,
7,6,111,1,1,3,"['d', 'k']",['d'],N,Y,['space'],Y,,,,,,,M,21,
7,7,112,8,8,3,['k'],['d'],N,Y,['space'],Y,,,,,,,M,21,
7,8,113,6,6,3,['k'],['k'],Y,N,None,Y,,,,,,,M,21,
7,9,114,5,5,3,['k'],['k'],Y,N,None,Y,,,,,,,M,21,
7,10,115,0,0,3,['k'],['k'],Y,N,None,Y,,,,,,,M,21,
7,11,116,11,11,3,['k'],['k'],Y,Y,['space'],Y,,,,,,,M,21,
7,12,117,1,1,3,['k'],['d'],N,N,None,Y,,,,,,,M,21,
7,13,118,1,1,3,['k'],['k'],Y,Y,['space'],Y,,,,,,,M,21,
7,14,119,5,5,3,['d'],['d'],Y,N,['space'],N,,,,,,,M,21,
8,0,120,6,6,3,['d'],['d'],Y,N,None,Y,,,,,,,M,21,
8,1,121,14,14,3,['k'],['k'],Y,N,None,Y,,,,,,,M,21,
8,2,122,10,10,3,['d'],['k'],N,N,None,Y,,,,,,,M,21,
8,3,123,8,8,3,['k'],['k'],Y,N,None,Y,,,,,,,M,21,
8,4,124,6,6,3,['d'],['d'],Y,Y,['space'],Y,,,,,,,M,21,
8,5,125,2,2,3,['d'],['d'],Y,Y,['space'],Y,,,,,,,M,21,
8,6,126,10,10,3,['k'],['k'],Y,N,['space'],N,,,,,,,M,21,
8,7,127,8,8,3,['k'],['k'],Y,Y,['space'],Y,,,,,,,M,21,
8,8,128,9,9,3,['d'],['d'],Y,N,None,Y,,,,,,,M,21,
8,9,129,9,9,3,['d'],['d'],Y,N,['space'],N,,,,,,,M,21,
8,10,130,1,1,3,['d'],['d'],Y,Y,['space'],Y,,,,,,,M,21,
8,11,131,3,3,3,"['d', 'k']",['d'],N,Y,['space'],Y,,,,,,,M,21,
8,12,132,6,6,3,['k'],['k'],Y,Y,['space'],Y,,,,,,,M,21,
8,13,133,9,9,3,['d'],['d'],Y,Y,['space'],Y,,,,,,,M,21,
8,14,134,4,4,3,['d'],['d'],Y,Y,None,N,,,,,,,M,21,
9,0,135,9,9,3,['d'],['d'],Y,Y,['space'],Y,,,,,,,M,21,
9,1,136,1,1,3,['d'],['d'],Y,N,None,Y,,,,,,,M,21,
9,2,137,14,14,3,['d'],['d'],Y,Y,['space'],Y,,,,,,,M,21,
9,3,138,0,0,3,['k'],['k'],Y,Y,['space'],Y,,,,,,,M,21,
9,4,139,4,4,3,['k'],['k'],Y,N,None,Y,,,,,,,M,21,
9,5,140,3,3,3,['d'],['d'],Y,N,None,Y,,,,,,,M,21,
9,6,141,10,10,3,['d'],['d'],Y,N,None,Y,,,,,,,M,21,
9,7,142,9,9,3,['k'],['d'],N,Y,['space'],Y,,,,,,,M,21,
9,8,143,12,12,3,['k'],['k'],Y,N,None,Y,,,,,,,M,21,
9,9,144,0,0,3,['k'],['k'],Y,Y,['space'],Y,,,,,,,M,21,
9,10,145,13,13,3,['d'],['d'],Y,N,None,Y,,,,,,,M,21,
9,11,146,12,12,3,['k'],['k'],Y,N,None,Y,,,,,,,M,21,
9,12,147,7,7,3,['k'],['k'],Y,Y,['space'],Y,,,,,,,M,21,
9,13,148,6,6,3,['d'],['d'],Y,Y,['space'],Y,,,,,,,M,21,
9,14,149,2,2,3,['k'],['k'],Y,Y,['space'],Y,42,43,22,,,,M,21,
10,0,150,14,14,4,['k'],['k'],Y,,,,,,,,,,M,21,
10,1,151,6,6,4,['d'],['d'],Y,,,,,,,,,,M,21,
10,2,152,5,5,4,['d'],['d'],Y,N,None,Y,,,,,,,M,21,
10,3,153,10,10,4,['d'],['d'],Y,Y,['space'],Y,,,,,,,M,21,
10,4,154,8,8,4,['k'],['d'],N,Y,['space'],Y,,,,,,,M,21,
10,5,155,3,3,4,['k'],['k'],Y,Y,['space'],Y,,,,,,,M,21,
10,6,156,6,6,4,['k'],['k'],Y,Y,['space'],Y,,,,,,,M,21,
10,7,157,13,13,4,['k'],['k'],Y,Y,['space'],Y,,,,,,,M,21,
10,8,158,4,4,4,['k'],['d'],N,N,None,Y,,,,,,,M,21,
10,9,159,2,2,4,['d'],['d'],Y,Y,['space'],Y,,,,,,,M,21,
10,10,160,5,5,4,['d'],['k'],N,N,['space'],N,,,,,,,M,21,
10,11,161,2,2,4,['k'],['k'],Y,Y,['space'],Y,,,,,,,M,21,
10,12,162,14,14,4,['k'],['k'],Y,Y,['space'],Y,,,,,,,M,21,
10,13,163,14,14,4,['k'],['k'],Y,N,None,Y,,,,,,,M,21,
10,14,164,2,2,4,['k'],['k'],Y,N,None,Y,,,,,,,M,21,
11,0,165,0,0,4,['k'],['k'],Y,N,None,Y,,,,,,,M,21,
11,1,166,2,2,4,['k'],['k'],Y,Y,['space'],Y,,,,,,,M,21,
11,2,167,5,5,4,['k'],['k'],Y,N,None,Y,,,,,,,M,21,
11,3,168,12,12,4,['d'],['d'],Y,Y,['space'],Y,,,,,,,M,21,
11,4,169,9,9,4,['k'],['k'],Y,Y,['space'],Y,,,,,,,M,21,
11,5,170,10,10,4,['d'],['d'],Y,N,None,Y,,,,,,,M,21,
11,6,171,11,11,4,['d'],['d'],Y,N,None,Y,,,,,,,M,21,
11,7,172,9,9,4,['k'],['k'],Y,N,None,Y,,,,,,,M,21,
11,8,173,14,14,4,['k'],['k'],Y,N,None,Y,,,,,,,M,21,
11,9,174,9,9,4,['d'],['d'],Y,Y,['space'],Y,,,,,,,M,21,
11,10,175,11,11,4,['d'],['d'],Y,Y,None,N,,,,,,,M,21,
11,11,176,1,1,4,['d'],['d'],Y,N,None,Y,,,,,,,M,21,
11,12,177,3,3,4,['d'],['d'],Y,N,None,Y,,,,,,,M,21,
11,13,178,8,8,4,['k'],['k'],Y,Y,['space'],Y,,,,,,,M,21,
11,14,179,0,0,4,['d'],['k'],N,N,None,Y,,,,,,,M,21,
12,0,180,10,10,4,['k'],['d'],N,N,None,Y,,,,,,,M,21,
12,1,181,1,1,4,['d'],['d'],Y,Y,None,N,,,,,,,M,21,
12,2,182,14,14,4,['d'],['d'],Y,N,['space'],N,,,,,,,M,21,
12,3,183,1,1,4,['d'],['k'],N,Y,['space'],Y,,,,,,,M,21,
12,4,184,7,7,4,['k'],['k'],Y,N,None,Y,,,,,,,M,21,
12,5,185,0,0,4,['k'],['k'],Y,Y,['space'],Y,,,,,,,M,21,
12,6,186,12,12,4,['k'],['k'],Y,N,None,Y,,,,,,,M,21,
12,7,187,10,10,4,['k'],['d'],N,Y,['space'],Y,,,,,,,M,21,
12,8,188,8,8,4,['k'],['k'],Y,Y,['space'],Y,,,,,,,M,21,
12,9,189,11,11,4,['d'],['d'],Y,N,None,Y,,,,,,,M,21,
12,10,190,4,4,4,['d'],['d'],Y,Y,None,N,,,,,,,M,21,
12,11,191,11,11,4,['d'],['d'],Y,N,None,Y,,,,,,,M,21,
12,12,192,10,10,4,['d'],['d'],Y,Y,['space'],Y,,,,,,,M,21,
12,13,193,5,5,4,['d'],['d'],Y,N,None,Y,,,,,,,M,21,
12,14,194,6,6,4,['k'],['k'],Y,N,None,Y,,,,,,,M,21,
13,0,195,1,1,4,['d'],['d'],Y,Y,['space'],Y,,,,,,,M,21,
13,1,196,6,6,4,['k'],['d'],N,N,None,Y,,,,,,,M,21,
13,2,197,14,14,4,['k'],['k'],Y,Y,['space'],Y,,,,,,,M,21,
13,3,198,1,1,4,['k'],['k'],Y,Y,['space'],Y,,,,,,,M,21,
13,4,199,2,2,4,['k'],['k'],Y,N,None,Y,42,43,24,,,,M,21,
13,5,200,10,10,5,['k'],['k'],Y,,,,,,,,,,M,21,
13,6,201,5,5,5,['k'],['k'],Y,,,,,,,,,,M,21,
13,7,202,13,13,5,['d'],['d'],Y,Y,['space'],Y,,,,,,,M,21,
13,8,203,8,8,5,['k'],['k'],Y,N,None,Y,,,,,,,M,21,
13,9,204,12,12,5,['k'],['k'],Y,Y,['space'],Y,,,,,,,M,21,
13,10,205,12,12,5,['k'],['k'],Y,N,None,Y,,,,,,,M,21,
13,11,206,11,11,5,['k'],['k'],Y,Y,['space'],Y,,,,,,,M,21,
13,12,207,10,10,5,['d'],['d'],Y,N,['space'],N,,,,,,,M,21,
13,13,208,9,9,5,['k'],['d'],N,Y,None,N,,,,,,,M,21,
13,14,209,5,5,5,['k'],['k'],Y,Y,None,N,,,,,,,M,21,
14,0,210,14,14,5,['k'],['k'],Y,Y,['space'],Y,,,,,,,M,21,
14,1,211,14,14,5,['d'],['k'],N,N,None,Y,,,,,,,M,21,
14,2,212,4,4,5,['k'],['k'],Y,N,None,Y,,,,,,,M,21,
14,3,213,12,12,5,['d'],['d'],Y,N,None,Y,,,,,,,M,21,
14,4,214,14,14,5,['d'],['d'],Y,N,None,Y,,,,,,,M,21,
14,5,215,12,12,5,['d'],['d'],Y,Y,['space'],Y,,,,,,,M,21,
14,6,216,9,9,5,['k'],['d'],N,Y,['space'],Y,,,,,,,M,21,
14,7,217,10,10,5,['k'],['k'],Y,Y,['space'],Y,,,,,,,M,21,
14,8,218,2,2,5,['k'],['k'],Y,N,None,Y,,,,,,,M,21,
14,9,219,1,1,5,['d'],['d'],Y,N,None,Y,,,,,,,M,21,
14,10,220,6,6,5,['k'],['k'],Y,N,None,Y,,,,,,,M,21,
14,11,221,7,7,5,['d'],['d'],Y,N,None,Y,,,,,,,M,21,
14,12,222,8,8,5,['k'],['k'],Y,N,None,Y,,,,,,,M,21,
14,13,223,8,8,5,['k'],['k'],Y,Y,['space'],Y,,,,,,,M,21,
14,14,224,0,0,5,['k'],['k'],Y,Y,['space'],Y,,,,,,,M,21,
15,0,225,3,3,5,['k'],['k'],Y,N,None,Y,,,,,,,M,21,
15,1,226,7,7,5,['k'],['k'],Y,Y,['space'],Y,,,,,,,M,21,
15,2,227,6,6,5,['d'],['d'],Y,Y,['space'],Y,,,,,,,M,21,
15,3,228,0,0,5,['k'],['d'],N,Y,['space'],Y,,,,,,,M,21,
15,4,229,5,5,5,['k'],['k'],Y,Y,['space'],Y,,,,,,,M,21,
15,5,230,9,9,5,['d'],['d'],Y,Y,['space'],Y,,,,,,,M,21,
15,6,231,11,11,5,['d'],['k'],N,N,None,Y,,,,,,,M,21,
15,7,232,14,14,5,['k'],['k'],Y,N,None,Y,,,,,,,M,21,
15,8,233,9,9,5,['d'],['d'],Y,N,None,Y,,,,,,,M,21,
15,9,234,6,6,5,['d'],['d'],Y,Y,['space'],Y,,,,,,,M,21,
15,10,235,3,3,5,['k'],['k'],Y,N,None,Y,,,,,,,M,21,
15,11,236,2,2,5,['k'],['k'],Y,N,None,Y,,,,,,,M,21,
15,12,237,6,6,5,['d'],['k'],N,N,None,Y,,,,,,,M,21,
15,13,238,4,4,5,['k'],['k'],Y,Y,['space'],Y,,,,,,,M,21,
15,14,239,10,10,5,['d'],['d'],Y,Y,['space'],Y,,,,,,,M,21,
16,0,240,1,1,5,['k'],['k'],Y,N,None,Y,,,,,,,M,21,
16,1,241,11,11,5,['k'],['k'],Y,N,None,Y,,,,,,,M,21,
16,2,242,13,13,5,['k'],['k'],Y,N,None,Y,,,,,,,M,21,
16,3,243,7,7,5,['k'],['k'],Y,Y,['space'],Y,,,,,,,M,21,
16,4,244,8,8,5,['d'],['d'],Y,Y,None,N,,,,,,,M,21,
16,5,245,0,0,5,['k'],['k'],Y,Y,['space'],Y,,,,,,,M,21,
16,6,246,13,13,5,['k'],['k'],Y,Y,['space'],Y,,,,,,,M,21,
16,7,247,6,6,5,['d'],['d'],Y,Y,['space'],Y,,,,,,,M,21,
16,8,248,9,9,5,['k'],['k'],Y,N,None,Y,,,,,,,M,21,
16,9,249,8,8,5,['k'],['d'],N,N,None,Y,43,44,24,,,,M,21,
16,10,250,13,13,6,['k'],['k'],Y,,,,,,,,,,M,21,
16,11,251,13,13,6,['d'],['d'],Y,,,,,,,,,,M,21,
16,12,252,9,9,6,['k'],['k'],Y,N,None,Y,,,,,,,M,21,
16,13,253,4,4,6,['d'],['k'],N,N,None,Y,,,,,,,M,21,
16,14,254,14,14,6,['k'],['k'],Y,N,None,Y,,,,,,,M,21,
17,0,255,10,10,6,['k'],['k'],Y,N,None,Y,,,,,,,M,21,
17,1,256,10,10,6,['k'],['k'],Y,N,None,Y,,,,,,,M,21,
17,2,257,6,6,6,['d'],['d'],Y,Y,['space'],Y,,,,,,,M,21,
17,3,258,11,11,6,['k'],['k'],Y,Y,['space'],Y,,,,,,,M,21,
17,4,259,4,4,6,['k'],['k'],Y,Y,['space'],Y,,,,,,,M,21,
17,5,260,4,4,6,['k'],['k'],Y,Y,['space'],Y,,,,,,,M,21,
17,6,261,4,4,6,['k'],['k'],Y,N,None,Y,,,,,,,M,21,
17,7,262,8,8,6,['d'],['d'],Y,N,None,Y,,,,,,,M,21,
17,8,263,3,3,6,['d'],['d'],Y,N,None,Y,,,,,,,M,21,
17,9,264,12,12,6,['k'],['k'],Y,N,None,Y,,,,,,,M,21,
17,10,265,2,2,6,['k'],['k'],Y,Y,['space'],Y,,,,,,,M,21,
17,11,266,10,10,6,['k'],['d'],N,Y,['space'],Y,,,,,,,M,21,
17,12,267,11,11,6,['k'],['k'],Y,Y,['space'],Y,,,,,,,M,21,
17,13,268,2,2,6,['d'],['d'],Y,N,None,Y,,,,,,,M,21,
17,14,269,13,13,6,['d'],['d'],Y,Y,['space'],Y,,,,,,,M,21,
18,0,270,3,3,6,['k'],['k'],Y,Y,['space'],Y,,,,,,,M,21,
18,1,271,13,13,6,['k'],['k'],Y,N,None,Y,,,,,,,M,21,
18,2,272,6,6,6,['d'],['d'],Y,N,None,Y,,,,,,,M,21,
18,3,273,8,8,6,['k'],['k'],Y,Y,['space'],Y,,,,,,,M,21,
18,4,274,8,8,6,['d'],['k'],N,Y,['space'],Y,,,,,,,M,21,
18,5,275,1,1,6,['d'],['d'],Y,N,None,Y,,,,,,,M,21,
18,6,276,9,9,6,['d'],['d'],Y,N,None,Y,,,,,,,M,21,
18,7,277,8,8,6,['k'],['k'],Y,Y,['space'],Y,,,,,,,M,21,
18,8,278,8,8,6,['k'],['d'],N,Y,['space'],Y,,,,,,,M,21,
18,9,279,3,3,6,['d'],['k'],N,N,None,Y,,,,,,,M,21,
18,10,280,5,5,6,['k'],['k'],Y,N,None,Y,,,,,,,M,21,
18,11,281,4,4,6,['d'],['k'],N,N,None,Y,,,,,,,M,21,
18,12,282,5,5,6,['d'],['d'],Y,Y,['space'],Y,,,,,,,M,21,
18,13,283,6,6,6,['d'],['k'],N,N,None,Y,,,,,,,M,21,
18,14,284,9,9,6,['d'],['d'],Y,Y,['space'],Y,,,,,,,M,21,
19,0,285,7,7,6,['d'],['d'],Y,Y,['space'],Y,,,,,,,M,21,
19,1,286,3,3,6,['k'],['k'],Y,Y,['space'],Y,,,,,,,M,21,
19,2,287,9,9,6,['k'],['d'],N,N,None,Y,,,,,,,M,21,
19,3,288,13,13,6,['d'],['d'],Y,Y,None,N,,,,,,,M,21,
19,4,289,5,5,6,['k'],['k'],Y,Y,['space'],Y,,,,,,,M,21,
19,5,290,9,9,6,['k'],['d'],N,N,None,Y,,,,,,,M,21,
19,6,291,12,12,6,['k'],['k'],Y,Y,['space'],Y,,,,,,,M,21,
19,7,292,2,2,6,['d'],['k'],N,Y,['space'],Y,,,,,,,M,21,
19,8,293,9,9,6,['k'],['d'],N,Y,['space'],Y,,,,,,,M,21,
19,9,294,10,10,6,['k'],['k'],Y,Y,['space'],Y,,,,,,,M,21,
19,10,295,14,14,6,['d'],['d'],Y,Y,['space'],Y,,,,,,,M,21,
19,11,296,12,12,6,['k'],['k'],Y,Y,['space'],Y,,,,,,,M,21,
19,12,297,12,12,6,['k'],['k'],Y,N,None,Y,,,,,,,M,21,
19,13,298,10,10,6,['k'],['k'],Y,N,None,Y,,,,,,,M,21,
19,14,299,13,13,6,"['d', 'k']",['d'],N,N,None,Y,38,47,25,,,,M,21,
20,0,300,5,5,7,['k'],['k'],Y,,,,,,,,,,M,21,
20,1,301,11,11,7,['d'],['d'],Y,,,,,,,,,,M,21,
20,2,302,3,3,7,['d'],['d'],Y,Y,['space'],Y,,,,,,,M,21,
20,3,303,0,0,7,['d'],['d'],Y,Y,['space'],Y,,,,,,,M,21,
20,4,304,9,9,7,['d'],['d'],Y,Y,['space'],Y,,,,,,,M,21,
20,5,305,6,6,7,['d'],['d'],Y,Y,['space'],Y,,,,,,,M,21,
20,6,306,1,1,7,['d'],['d'],Y,N,None,Y,,,,,,,M,21,
20,7,307,6,6,7,['k'],['k'],Y,N,None,Y,,,,,,,M,21,
20,8,308,10,10,7,['d'],['d'],Y,N,None,Y,,,,,,,M,21,
20,9,309,5,5,7,['d'],['k'],N,N,None,Y,,,,,,,M,21,
20,10,310,0,0,7,['d'],['d'],Y,Y,['space'],Y,,,,,,,M,21,
20,11,311,13,13,7,['d'],['k'],N,Y,['space'],Y,,,,,,,M,21,
20,12,312,5,5,7,['d'],['d'],Y,N,None,Y,,,,,,,M,21,
20,13,313,1,1,7,['d'],['d'],Y,Y,None,N,,,,,,,M,21,
20,14,314,8,8,7,['k'],['k'],Y,N,None,Y,,,,,,,M,21,
21,0,315,8,8,7,['k'],['k'],Y,Y,['space'],Y,,,,,,,M,21,
21,1,316,6,6,7,['k'],['k'],Y,Y,['space'],Y,,,,,,,M,21,
21,2,317,7,7,7,['d'],['d'],Y,N,None,Y,,,,,,,M,21,
21,3,318,8,8,7,['d'],['d'],Y,Y,['space'],Y,,,,,,,M,21,
21,4,319,12,12,7,['d'],['d'],Y,Y,['space'],Y,,,,,,,M,21,
21,5,320,3,3,7,['k'],['k'],Y,N,None,Y,,,,,,,M,21,
21,6,321,13,13,7,['k'],['k'],Y,Y,['space'],Y,,,,,,,M,21,
21,7,322,9,9,7,['d'],['d'],Y,N,None,Y,,,,,,,M,21,
21,8,323,14,14,7,['d'],['d'],Y,Y,['space'],Y,,,,,,,M,21,
21,9,324,13,13,7,['d'],['d'],Y,N,None,Y,,,,,,,M,21,
21,10,325,6,6,7,['d'],['d'],Y,Y,['space'],Y,,,,,,,M,21,
21,11,326,10,10,7,['k'],['k'],Y,Y,['space'],Y,,,,,,,M,21,
21,12,327,12,12,7,['k'],['d'],N,N,None,Y,,,,,,,M,21,
21,13,328,1,1,7,['d'],['d'],Y,Y,None,N,,,,,,,M,21,
21,14,329,4,4,7,['k'],['k'],Y,N,None,Y,,,,,,,M,21,
22,0,330,3,3,7,['k'],['k'],Y,Y,['space'],Y,,,,,,,M,21,
22,1,331,6,6,7,['k'],['k'],Y,Y,['space'],Y,,,,,,,M,21,
22,2,332,7,7,7,['d'],['d'],Y,N,None,Y,,,,,,,M,21,
22,3,333,7,7,7,['k'],['d'],N,N,None,Y,,,,,,,M,21,
22,4,334,13,13,7,['d'],['d'],Y,N,None,Y,,,,,,,M,21,
22,5,335,7,7,7,['k'],['k'],Y,Y,['space'],Y,,,,,,,M,21,
22,6,336,11,11,7,['d'],['d'],Y,Y,['space'],Y,,,,,,,M,21,
22,7,337,7,7,7,['d'],['k'],N,Y,['space'],Y,,,,,,,M,21,
22,8,338,4,4,7,['k'],['k'],Y,Y,['space'],Y,,,,,,,M,21,
22,9,339,9,9,7,['k'],['k'],Y,Y,['space'],Y,,,,,,,M,21,
22,10,340,9,9,7,['k'],['k'],Y,Y,['space'],Y,,,,,,,M,21,
22,11,341,4,4,7,['d'],['d'],Y,Y,['space'],Y,,,,,,,M,21,
22,12,342,13,13,7,['k'],['k'],Y,N,None,Y,,,,,,,M,21,
22,13,343,12,12,7,['d'],['d'],Y,N,None,Y,,,,,,,M,21,
22,14,344,12,12,7,['k'],['d'],N,N,None,Y,,,,,,,M,21,
23,0,345,6,6,7,['k'],['k'],Y,N,None,Y,,,,,,,M,21,
23,1,346,11,11,7,['k'],['k'],Y,N,None,Y,,,,,,,M,21,
23,2,347,0,0,7,['k'],['k'],Y,N,None,Y,,,,,,,M,21,
23,3,348,12,12,7,['k'],['k'],Y,N,None,Y,,,,,,,M,21,
23,4,349,0,0,7,['k'],['k'],Y,N,None,Y,44,46,25,,,,M,21,
23,5,350,11,11,8,['k'],['k'],Y,,,,,,,,,,M,21,
23,6,351,7,7,8,['k'],['k'],Y,,,,,,,,,,M,21,
23,7,352,8,8,8,['k'],['d'],N,N,None,Y,,,,,,,M,21,
23,8,353,11,11,8,['d'],['d'],Y,Y,['space'],Y,,,,,,,M,21,
23,9,354,4,4,8,['d'],['d'],Y,Y,['space'],Y,,,,,,,M,21,
23,10,355,0,0,8,['d'],['d'],Y,Y,['space'],Y,,,,,,,M,21,
23,11,356,1,1,8,['d'],['d'],Y,N,None,Y,,,,,,,M,21,
23,12,357,1,1,8,['k'],['k'],Y,Y,['space'],Y,,,,,,,M,21,
23,13,358,4,4,8,['k'],['k'],Y,Y,['space'],Y,,,,,,,M,21,
23,14,359,14,14,8,['k'],['k'],Y,Y,['space'],Y,,,,,,,M,21,
24,0,360,0,0,8,['k'],['d'],N,Y,['space'],Y,,,,,,,M,21,
24,1,361,3,3,8,['k'],['k'],Y,Y,['space'],Y,,,,,,,M,21,
24,2,362,7,7,8,['k'],['k'],Y,Y,['space'],Y,,,,,,,M,21,
24,3,363,5,5,8,['k'],['k'],Y,N,None,Y,,,,,,,M,21,
24,4,364,13,13,8,['d'],['d'],Y,Y,['space'],Y,,,,,,,M,21,
24,5,365,11,11,8,['d'],['d'],Y,Y,['space'],Y,,,,,,,M,21,
24,6,366,4,4,8,['d'],['k'],N,N,None,Y,,,,,,,M,21,
24,7,367,5,5,8,['k'],['k'],Y,Y,['space'],Y,,,,,,,M,21,
24,8,368,6,6,8,['d'],['k'],N,N,None,Y,,,,,,,M,21,
24,9,369,13,13,8,['d'],['d'],Y,Y,['space'],Y,,,,,,,M,21,
24,10,370,2,2,8,['d'],['d'],Y,Y,['space'],Y,,,,,,,M,21,
24,11,371,2,2,8,['k'],['d'],N,Y,None,N,,,,,,,M,21,
24,12,372,12,12,8,['k'],['k'],Y,N,None,Y,,,,,,,M,21,
24,13,373,7,7,8,['d'],['d'],Y,Y,['space'],Y,,,,,,,M,21,
24,14,374,4,4,8,['d'],['d'],Y,N,None,Y,,,,,,,M,21,
25,0,375,7,7,8,['d'],['d'],Y,Y,['space'],Y,,,,,,,M,21,
25,1,376,2,2,8,['k'],['k'],Y,Y,['space'],Y,,,,,,,M,21,
25,2,377,8,8,8,['k'],['k'],Y,Y,['space'],Y,,,,,,,M,21,
25,3,378,5,5,8,['d'],['d'],Y,Y,['space'],Y,,,,,,,M,21,
25,4,379,10,10,8,['d'],['d'],Y,N,None,Y,,,,,,,M,21,
25,5,380,2,2,8,['k'],['d'],N,Y,['space'],Y,,,,,,,M,21,
25,6,381,2,2,8,['k'],['k'],Y,N,None,Y,,,,,,,M,21,
25,7,382,0,0,8,['k'],['d'],N,N,None,Y,,,,,,,M,21,
25,8,383,0,0,8,['d'],['d'],Y,N,None,Y,,,,,,,M,21,
25,9,384,0,0,8,['d'],['d'],Y,N,None,Y,,,,,,,M,21,
25,10,385,4,4,8,"['d', 'k']",['k'],N,N,None,Y,,,,,,,M,21,
25,11,386,12,12,8,['k'],['k'],Y,Y,None,N,,,,,,,M,21,
25,12,387,5,5,8,['d'],['d'],Y,N,None,Y,,,,,,,M,21,
25,13,388,1,1,8,['d'],['d'],Y,Y,['space'],Y,,,,,,,M,21,
25,14,389,8,8,8,"['d', 'k']",['d'],N,N,None,Y,,,,,,,M,21,
26,0,390,2,2,8,['d'],['d'],Y,Y,['space'],Y,,,,,,,M,21,
26,1,391,13,13,8,['k'],['k'],Y,N,None,Y,,,,,,,M,21,
26,2,392,6,6,8,['d'],['d'],Y,Y,['space'],Y,,,,,,,M,21,
26,3,393,10,10,8,"['d', 'k']",['d'],N,N,None,Y,,,,,,,M,21,
26,4,394,11,11,8,['k'],['k'],Y,N,None,Y,,,,,,,M,21,
26,5,395,11,11,8,['d'],['d'],Y,N,None,Y,,,,,,,M,21,
26,6,396,13,13,8,['k'],['k'],Y,N,None,Y,,,,,,,M,21,
26,7,397,10,10,8,['d'],['d'],Y,N,None,Y,,,,,,,M,21,
26,8,398,11,11,8,['d'],['d'],Y,N,None,Y,,,,,,,M,21,
26,9,399,2,2,8,['k'],['k'],Y,N,None,Y,40,46,25,,,,M,21,
26,10,400,0,0,9,['k'],['k'],Y,,,,,,,,,,M,21,
26,11,401,14,14,9,['k'],['k'],Y,,,,,,,,,,M,21,
26,12,402,7,7,9,['k'],['k'],Y,N,None,Y,,,,,,,M,21,
26,13,403,0,0,9,['d'],['k'],N,N,None,Y,,,,,,,M,21,
26,14,404,10,10,9,['k'],['k'],Y,N,None,Y,,,,,,,M,21,
27,0,405,4,4,9,['k'],['d'],N,N,None,Y,,,,,,,M,21,
27,1,406,12,12,9,['k'],['k'],Y,Y,None,N,,,,,,,M,21,
27,2,407,4,4,9,['d'],['d'],Y,N,None,Y,,,,,,,M,21,
27,3,408,12,12,9,['k'],['d'],N,Y,['space'],Y,,,,,,,M,21,
27,4,409,14,14,9,['k'],['k'],Y,Y,['space'],Y,,,,,,,M,21,
27,5,410,10,10,9,['d'],['d'],Y,N,['space'],N,,,,,,,M,21,
27,6,411,0,0,9,['d'],['d'],Y,N,None,Y,,,,,,,M,21,
27,7,412,11,11,9,['k'],['k'],Y,Y,['space'],Y,,,,,,,M,21,
27,8,413,14,14,9,['k'],['k'],Y,N,None,Y,,,,,,,M,21,
27,9,414,4,4,9,['k'],['k'],Y,Y,['space'],Y,,,,,,,M,21,
27,10,415,6,6,9,['k'],['d'],N,N,None,Y,,,,,,,M,21,
27,11,416,9,9,9,['k'],['d'],N,N,None,Y,,,,,,,M,21,
27,12,417,4,4,9,['k'],['k'],Y,Y,['space'],Y,,,,,,,M,21,
27,13,418,11,11,9,['k'],['k'],Y,N,None,Y,,,,,,,M,21,
27,14,419,4,4,9,['k'],['d'],N,N,None,Y,,,,,,,M,21,
28,0,420,7,7,9,['d'],['k'],N,Y,['space'],Y,,,,,,,M,21,
28,1,421,4,4,9,['k'],['k'],Y,N,None,Y,,,,,,,M,21,
28,2,422,0,0,9,['d'],['d'],Y,Y,['space'],Y,,,,,,,M,21,
28,3,423,14,14,9,['k'],['k'],Y,Y,['space'],Y,,,,,,,M,21,
28,4,424,0,0,9,['k'],['d'],N,N,None,Y,,,,,,,M,21,
28,5,425,13,13,9,['k'],['k'],Y,Y,['space'],Y,,,,,,,M,21,
28,6,426,2,2,9,['d'],['d'],Y,Y,['space'],Y,,,,,,,M,21,
28,7,427,12,12,9,['d'],['d'],Y,N,None,Y,,,,,,,M,21,
28,8,428,3,3,9,['d'],['k'],N,Y,['space'],Y,,,,,,,M,21,
28,9,429,3,3,9,['d'],['d'],Y,N,None,Y,,,,,,,M,21,
28,10,430,8,8,9,['k'],['k'],Y,Y,['space'],Y,,,,,,,M,21,
28,11,431,7,7,9,['k'],['k'],Y,N,None,Y,,,,,,,M,21,
28,12,432,3,3,9,['k'],['k'],Y,Y,['space'],Y,,,,,,,M,21,
28,13,433,5,5,9,['d'],['d'],Y,N,None,Y,,,,,,,M,21,
28,14,434,1,1,9,['k'],['k'],Y,Y,['space'],Y,,,,,,,M,21,
29,0,435,7,7,9,['d'],['d'],Y,Y,['space'],Y,,,,,,,M,21,
29,1,436,8,8,9,['k'],['k'],Y,N,None,Y,,,,,,,M,21,
29,2,437,10,10,9,['d'],['d'],Y,Y,['space'],Y,,,,,,,M,21,
29,3,438,5,5,9,"['d', 'k']",['d'],N,Y,['space'],Y,,,,,,,M,21,
29,4,439,3,3,9,"['d', 'k']",['d'],N,Y,['space'],Y,,,,,,,M,21,
29,5,440,1,1,9,['d'],['d'],Y,N,None,Y,,,,,,,M,21,
29,6,441,5,5,9,"['d', 'k']",['d'],N,Y,['space'],Y,,,,,,,M,21,
29,7,442,7,7,9,['k'],['k'],Y,Y,['space'],Y,,,,,,,M,21,
29,8,443,13,13,9,['d'],['d'],Y,N,None,Y,,,,,,,M,21,
29,9,444,12,12,9,['k'],['k'],Y,Y,['space'],Y,,,,,,,M,21,
29,10,445,2,2,9,['k'],['k'],Y,N,None,Y,,,,,,,M,21,
29,11,446,10,10,9,['k'],['d'],N,Y,None,N,,,,,,,M,21,
29,12,447,7,7,9,['d'],['d'],Y,N,None,Y,,,,,,,M,21,
29,13,448,12,12,9,['k'],['k'],Y,N,None,Y,,,,,,,M,21,
29,14,449,11,11,9,['k'],['k'],Y,Y,['space'],Y,37,45,24,,,,M,21,
30,0,450,1,1,10,['d'],['d'],Y,,,,,,,,,,M,21,
30,1,451,11,11,10,['d'],['d'],Y,,,,,,,,,,M,21,
30,2,452,9,9,10,['d'],['k'],N,N,None,Y,,,,,,,M,21,
30,3,453,11,11,10,['k'],['k'],Y,Y,['space'],Y,,,,,,,M,21,
30,4,454,5,5,10,['d'],['d'],Y,Y,['space'],Y,,,,,,,M,21,
30,5,455,13,13,10,['k'],['d'],N,Y,['space'],Y,,,,,,,M,21,
30,6,456,9,9,10,['k'],['d'],N,Y,['space'],Y,,,,,,,M,21,
30,7,457,9,9,10,['k'],['d'],N,Y,['space'],Y,,,,,,,M,21,
30,8,458,8,8,10,"['d', 'k']",['k'],N,N,None,Y,,,,,,,M,21,
30,9,459,5,5,10,['d'],['d'],Y,N,None,Y,,,,,,,M,21,
30,10,460,1,1,10,['k'],['k'],Y,N,None,Y,,,,,,,M,21,
30,11,461,8,8,10,['d'],['k'],N,Y,['space'],Y,,,,,,,M,21,
30,12,462,14,14,10,['d'],['d'],Y,Y,['space'],Y,,,,,,,M,21,
30,13,463,5,5,10,['k'],['k'],Y,N,['space'],N,,,,,,,M,21,
30,14,464,6,6,10,['k'],['k'],Y,N,None,Y,,,,,,,M,21,
31,0,465,3,3,10,['k'],['k'],Y,Y,['space'],Y,,,,,,,M,21,
31,1,466,3,3,10,['d'],['d'],Y,Y,['space'],Y,,,,,,,M,21,
31,2,467,14,14,10,['k'],['k'],Y,N,None,Y,,,,,,,M,21,
31,3,468,12,12,10,['d'],['d'],Y,N,None,Y,,,,,,,M,21,
31,4,469,14,14,10,['k'],['d'],N,N,None,Y,,,,,,,M,21,
31,5,470,14,14,10,['k'],['k'],Y,Y,['space'],Y,,,,,,,M,21,
31,6,471,14,14,10,['d'],['k'],N,N,None,Y,,,,,,,M,21,
31,7,472,0,0,10,['k'],['k'],Y,Y,['space'],Y,,,,,,,M,21,
31,8,473,6,6,10,['d'],['d'],Y,Y,None,N,,,,,,,M,21,
31,9,474,13,13,10,['d'],['d'],Y,N,None,Y,,,,,,,M,21,
31,10,475,14,14,10,['k'],['k'],Y,N,None,Y,,,,,,,M,21,
31,11,476,4,4,10,['d'],['k'],N,Y,['space'],Y,,,,,,,M,21,
31,12,477,3,3,10,['d'],['d'],Y,Y,['space'],Y,,,,,,,M,21,
31,13,478,14,14,10,"['d', 'k']",['d'],N,N,None,Y,,,,,,,M,21,
31,14,479,10,10,10,['d'],['d'],Y,Y,['space'],Y,,,,,,,M,21,
32,0,480,2,2,10,['k'],['k'],Y,N,None,Y,,,,,,,M,21,
32,1,481,10,10,10,['k'],['k'],Y,N,None,Y,,,,,,,M,21,
32,2,482,3,3,10,['d'],['d'],Y,N,None,Y,,,,,,,M,21,
32,3,483,9,9,10,['d'],['d'],Y,Y,['space'],Y,,,,,,,M,21,
32,4,484,7,7,10,['k'],['k'],Y,Y,['space'],Y,,,,,,,M,21,
32,5,485,3,3,10,['d'],['d'],Y,Y,['space'],Y,,,,,,,M,21,
32,6,486,2,2,10,['k'],['k'],Y,Y,['space'],Y,,,,,,,M,21,
32,7,487,9,9,10,['k'],['k'],Y,N,None,Y,,,,,,,M,21,
32,8,488,10,10,10,['d'],['d'],Y,Y,['space'],Y,,,,,,,M,21,
32,9,489,7,7,10,['d'],['d'],Y,Y,['space'],Y,,,,,,,M,21,
32,10,490,7,7,10,['k'],['k'],Y,Y,['space'],Y,,,,,,,M,21,
32,11,491,8,8,10,['d'],['d'],Y,Y,['space'],Y,,,,,,,M,21,
32,12,492,7,7,10,['d'],['d'],Y,Y,['space'],Y,,,,,,,M,21,
32,13,493,11,11,10,['k'],['k'],Y,N,None,Y,,,,,,,M,21,
32,14,494,0,0,10,['k'],['k'],Y,Y,['space'],Y,,,,,,,M,21,
33,0,495,1,1,10,['k'],['k'],Y,N,None,Y,,,,,,,M,21,
33,1,496,5,5,10,['d'],['d'],Y,N,None,Y,,,,,,,M,21,
33,2,497,7,7,10,['k'],['k'],Y,N,None,Y,,,,,,,M,21,
33,3,498,13,13,10,['d'],['d'],Y,N,None,Y,,,,,,,M,21,
33,4,499,1,1,10,['d'],['k'],N,N,None,Y,39,46,25,,,,M,21,
33,5,500,2,2,11,['d'],['d'],N,,,,,,,Y,Y,Y,M,21,
33,6,501,8,8,11,['k'],['d'],Y,,,,,,,,Y,Y,M,21,
33,7,502,10,10,11,['d'],['k'],Y,Y,['space'],Y,,,,,Y,Y,M,21,
33,8,503,10,10,11,['d'],['k'],Y,N,None,Y,,,,,Y,Y,M,21,
33,9,504,2,2,11,['d'],['k'],Y,Y,['space'],Y,,,,,Y,Y,M,21,
33,10,505,3,3,11,['k'],['d'],Y,N,None,Y,,,,,Y,Y,M,21,
33,11,506,1,1,11,['k'],['d'],Y,N,None,Y,,,,,Y,Y,M,21,
33,12,507,11,11,11,['d'],['d'],N,N,None,Y,,,,,Y,Y,M,21,
33,13,508,2,2,11,None,,Timed out,N,None,Y,,,,,Y,Y,M,21,
33,14,509,1,1,11,['k'],['d'],Y,N,['space'],N,,,,,Y,Y,M,21,
34,0,510,4,4,11,['k'],['d'],Y,Y,['space'],Y,,,,,Y,Y,M,21,
34,1,511,8,8,11,['k'],['d'],Y,Y,['space'],Y,,,,,Y,Y,M,21,
34,2,512,12,12,11,['k'],['d'],Y,Y,['space'],Y,,,,,Y,Y,M,21,
34,3,513,5,5,11,['d'],['k'],Y,Y,['space'],Y,,,,,Y,Y,M,21,
34,4,514,14,14,11,['k'],['d'],Y,Y,['space'],Y,,,,,Y,Y,M,21,
34,5,515,7,7,11,['d'],['k'],Y,Y,['space'],Y,,,,,Y,Y,M,21,
34,6,516,6,6,11,['k'],['d'],Y,Y,['space'],Y,,,,,Y,Y,M,21,
34,7,517,9,9,11,['k'],['d'],Y,N,None,Y,,,,,Y,Y,M,21,
34,8,518,10,10,11,['k'],['d'],Y,Y,['space'],Y,,,,,Y,Y,M,21,
34,9,519,14,14,11,['d'],['k'],Y,N,None,Y,,,,,Y,Y,M,21,
34,10,520,6,6,11,['k'],['k'],N,N,None,Y,,,,,Y,Y,M,21,
34,11,521,11,11,11,['k'],['d'],Y,Y,['space'],Y,,,,,Y,Y,M,21,
34,12,522,8,8,11,"['d', 'k']",['k'],Y,Y,['space'],Y,,,,,Y,Y,M,21,
34,13,523,14,14,11,['d'],['k'],Y,Y,None,N,,,,,Y,Y,M,21,
34,14,524,12,12,11,['d'],['d'],N,N,None,Y,,,,,Y,Y,M,21,
35,0,525,8,8,11,['d'],['k'],Y,Y,['space'],Y,,,,,Y,Y,M,21,
35,1,526,7,7,11,['k'],['d'],Y,N,None,Y,,,,,Y,Y,M,21,
35,2,527,1,1,11,['d'],['k'],Y,Y,['space'],Y,,,,,Y,Y,M,21,
35,3,528,6,6,11,['k'],['d'],Y,N,None,Y,,,,,Y,Y,M,21,
35,4,529,5,5,11,['d'],['k'],Y,N,None,Y,,,,,Y,Y,M,21,
35,5,530,3,3,11,['d'],['k'],Y,N,None,Y,,,,,Y,Y,M,21,
35,6,531,0,0,11,['k'],['d'],Y,Y,['space'],Y,,,,,Y,Y,M,21,
35,7,532,4,4,11,['d'],['k'],Y,Y,['space'],Y,,,,,Y,Y,M,21,
35,8,533,11,11,11,['d'],['d'],N,Y,['space'],Y,,,,,Y,Y,M,21,
35,9,534,7,7,11,['k'],['k'],N,N,None,Y,,,,,Y,Y,M,21,
35,10,535,0,0,11,['d'],['k'],Y,Y,['space'],Y,,,,,Y,Y,M,21,
35,11,536,14,14,11,['k'],['d'],Y,N,None,Y,,,,,Y,Y,M,21,
35,12,537,7,7,11,['k'],['d'],Y,N,None,Y,,,,,Y,Y,M,21,
35,13,538,6,6,11,['d'],['k'],Y,N,None,Y,,,,,Y,Y,M,21,
35,14,539,12,12,11,['d'],['d'],N,Y,['space'],Y,,,,,Y,Y,M,21,
36,0,540,7,7,11,['d'],['k'],Y,N,None,Y,,,,,Y,Y,M,21,
36,1,541,2,2,11,['d'],['k'],Y,N,None,Y,,,,,Y,Y,M,21,
36,2,542,4,4,11,['k'],['d'],Y,N,None,Y,,,,,Y,Y,M,21,
36,3,543,11,11,11,['d'],['d'],N,N,None,Y,,,,,Y,Y,M,21,
36,4,544,13,13,11,['d'],['k'],Y,N,None,Y,,,,,Y,Y,M,21,
36,5,545,5,5,11,['k'],['d'],Y,N,None,Y,,,,,Y,Y,M,21,
36,6,546,3,3,11,['k'],['k'],N,N,None,Y,,,,,Y,Y,M,21,
36,7,547,10,10,11,['d'],['d'],N,Y,['space'],Y,,,,,Y,Y,M,21,
36,8,548,8,8,11,['k'],['d'],Y,Y,['space'],Y,,,,,Y,Y,M,21,
36,9,549,14,14,11,['d'],['d'],N,Y,None,N,38,45,23,,Y,Y,M,21,
36,10,550,6,6,12,None,,Timed out,,,,,,,,Y,Y,M,21,
36,11,551,14,14,12,['k'],['k'],N,,,,,,,,Y,Y,M,21,
36,12,552,12,12,12,['d'],['k'],Y,Y,['space'],Y,,,,,Y,Y,M,21,
36,13,553,1,1,12,['k'],['d'],Y,Y,['space'],Y,,,,,Y,Y,M,21,
36,14,554,9,9,12,['k'],['d'],Y,Y,['space'],Y,,,,,Y,Y,M,21,
37,0,555,13,13,12,['k'],['d'],Y,Y,None,N,,,,,Y,Y,M,21,
37,1,556,11,11,12,['d'],['k'],Y,N,None,Y,,,,,Y,Y,M,21,
37,2,557,3,3,12,['k'],['d'],Y,Y,['space'],Y,,,,,Y,Y,M,21,
37,3,558,6,6,12,['k'],['d'],Y,N,None,Y,,,,,Y,Y,M,21,
37,4,559,7,7,12,['d'],['d'],N,N,None,Y,,,,,Y,Y,M,21,
37,5,560,1,1,12,['d'],['k'],Y,N,None,Y,,,,,Y,Y,M,21,
37,6,561,11,11,12,['k'],['d'],Y,Y,['space'],Y,,,,,Y,Y,M,21,
37,7,562,8,8,12,['k'],['d'],Y,N,None,Y,,,,,Y,Y,M,21,
37,8,563,2,2,12,['d'],['d'],N,Y,['space'],Y,,,,,Y,Y,M,21,
37,9,564,9,9,12,['k'],['d'],Y,N,None,Y,,,,,Y,Y,M,21,
37,10,565,12,12,12,['k'],['k'],N,N,None,Y,,,,,Y,Y,M,21,
37,11,566,0,0,12,['k'],['d'],Y,Y,['space'],Y,,,,,Y,Y,M,21,
37,12,567,5,5,12,['k'],['d'],Y,Y,['space'],Y,,,,,Y,Y,M,21,
37,13,568,10,10,12,['d'],['k'],Y,Y,['space'],Y,,,,,Y,Y,M,21,
37,14,569,8,8,12,['d'],['k'],Y,N,None,Y,,,,,Y,Y,M,21,
38,0,570,4,4,12,['d'],['k'],Y,N,None,Y,,,,,Y,Y,M,21,
38,1,571,8,8,12,['d'],['k'],Y,N,None,Y,,,,,Y,Y,M,21,
38,2,572,9,9,12,['d'],['k'],Y,Y,['space'],Y,,,,,Y,Y,M,21,
38,3,573,3,3,12,['d'],['k'],Y,Y,['space'],Y,,,,,Y,Y,M,21,
38,4,574,10,10,12,['k'],['d'],Y,N,['space'],N,,,,,Y,Y,M,21,
38,5,575,9,9,12,['k'],['k'],N,Y,None,N,,,,,Y,Y,M,21,
38,6,576,3,3,12,['k'],['d'],Y,N,None,Y,,,,,Y,Y,M,21,
38,7,577,2,2,12,['k'],['d'],Y,Y,['space'],Y,,,,,Y,Y,M,21,
38,8,578,4,4,12,['d'],['k'],Y,Y,['space'],Y,,,,,Y,Y,M,21,
38,9,579,2,2,12,['d'],['d'],N,N,None,Y,,,,,Y,Y,M,21,
38,10,580,0,0,12,['k'],['d'],Y,N,None,Y,,,,,Y,Y,M,21,
38,11,581,2,2,12,['d'],['d'],N,Y,['space'],Y,,,,,Y,Y,M,21,
38,12,582,3,3,12,['k'],['d'],Y,N,None,Y,,,,,Y,Y,M,21,
38,13,583,2,2,12,['d'],['k'],Y,N,None,Y,,,,,Y,Y,M,21,
38,14,584,3,3,12,['k'],['d'],Y,Y,['space'],Y,,,,,Y,Y,M,21,
39,0,585,2,2,12,['k'],['d'],Y,Y,['space'],Y,,,,,Y,Y,M,21,
39,1,586,9,9,12,None,,Timed out,N,None,Y,,,,,Y,Y,M,21,
39,2,587,6,6,12,['d'],['d'],N,Y,['space'],Y,,,,,Y,Y,M,21,
39,3,588,4,4,12,['k'],['d'],Y,Y,None,N,,,,,Y,Y,M,21,
39,4,589,6,6,12,['k'],['d'],Y,N,None,Y,,,,,Y,Y,M,21,
39,5,590,5,5,12,['k'],['k'],N,Y,['space'],Y,,,,,Y,Y,M,21,
39,6,591,3,3,12,['d'],['k'],Y,N,None,Y,,,,,Y,Y,M,21,
39,7,592,2,2,12,['k'],['d'],Y,Y,['space'],Y,,,,,Y,Y,M,21,
39,8,593,6,6,12,['d'],['k'],Y,Y,['space'],Y,,,,,Y,Y,M,21,
39,9,594,10,10,12,['k'],['d'],Y,Y,['space'],Y,,,,,Y,Y,M,21,
39,10,595,0,0,12,['k'],['d'],Y,Y,['space'],Y,,,,,Y,Y,M,21,
39,11,596,13,13,12,['k'],['d'],Y,N,None,Y,,,,,Y,Y,M,21,
39,12,597,10,10,12,['d'],['k'],Y,N,None,Y,,,,,Y,Y,M,21,
39,13,598,13,13,12,['d'],['k'],Y,N,None,Y,,,,,Y,Y,M,21,
39,14,599,5,5,12,"['d', 'k']",['d'],Y,N,None,Y,39,44,25,,Y,Y,M,21,
