.thisRepN,.thisTrialN,.thisN,.thisIndex,.thisTrial,Block Number,Key pressed,Category,Correct?,Int Match?,Int Response,Int Correct?,Line Accuracy,Interference Accuracy,Matching Interferences,New instruction shown?,Buttons switched?,Fast?,gender,age,
0,0,0,6,6,1,['k'],['d'],N,,,,,,,,,,f,19,
0,1,1,9,9,1,['k'],['k'],Y,,,,,,,,,,f,19,
0,2,2,4,4,1,['d'],['d'],Y,N,None,Y,,,,,,,f,19,
0,3,3,8,8,1,['k'],['d'],N,N,['space'],N,,,,,,,f,19,
0,4,4,7,7,1,['k'],['k'],Y,N,None,Y,,,,,,,f,19,
0,5,5,0,0,1,['d'],['d'],Y,N,None,Y,,,,,,,f,19,
0,6,6,9,9,1,['k'],['k'],Y,Y,['space'],Y,,,,,,,f,19,
0,7,7,3,3,1,['k'],['k'],Y,N,None,Y,,,,,,,f,19,
0,8,8,10,10,1,['d'],['d'],Y,N,None,Y,,,,,,,f,19,
0,9,9,8,8,1,['k'],['d'],N,N,None,Y,,,,,,,f,19,
0,10,10,3,3,1,['d'],['d'],Y,N,None,Y,,,,,,,f,19,
1,0,11,9,9,1,['k'],['k'],Y,Y,None,N,,,,,,,f,19,
1,1,12,8,8,1,['k'],['k'],Y,N,None,Y,,,,,,,f,19,
1,2,13,10,10,1,['k'],['k'],Y,Y,None,N,,,,,,,f,19,
1,3,14,1,1,1,['k'],['k'],Y,Y,['space'],Y,,,,,,,f,19,
1,4,15,2,2,1,['k'],['k'],Y,Y,['space'],Y,,,,,,,f,19,
1,5,16,5,5,1,['d'],['d'],Y,Y,['space'],Y,,,,,,,f,19,
1,6,17,2,2,1,['k'],['k'],Y,Y,['space'],Y,,,,,,,f,19,
1,7,18,3,3,1,['d'],['d'],Y,N,None,Y,,,,,,,f,19,
1,8,19,4,4,1,['k'],['k'],Y,Y,['space'],Y,,,,,,,f,19,
1,9,20,10,10,1,['k'],['k'],Y,N,None,Y,,,,,,,f,19,
1,10,21,10,10,1,['k'],['d'],N,N,None,Y,,,,,,,f,19,
2,0,22,2,2,1,['d'],['d'],Y,Y,None,N,,,,,,,f,19,
2,1,23,3,3,1,['d'],['d'],Y,N,None,Y,,,,,,,f,19,
2,2,24,6,6,1,['d'],['d'],Y,N,None,Y,,,,,,,f,19,
2,3,25,2,2,1,['d'],['d'],Y,Y,None,N,,,,,,,f,19,
2,4,26,8,8,1,['d'],['k'],N,N,None,Y,,,,,,,f,19,
2,5,27,9,9,1,['d'],['d'],Y,Y,['space'],Y,,,,,,,f,19,
2,6,28,3,3,1,['d'],['d'],Y,N,None,Y,,,,,,,f,19,
2,7,29,1,1,1,['k'],['k'],Y,Y,['space'],Y,,,,,,,f,19,
2,8,30,6,6,1,['k'],['k'],Y,Y,['space'],Y,,,,,,,f,19,
2,9,31,9,9,1,['d'],['d'],Y,N,None,Y,,,,,,,f,19,
2,10,32,10,10,1,['d'],['d'],Y,Y,['space'],Y,,,,,,,f,19,
3,0,33,0,0,1,['k'],['k'],Y,N,None,Y,,,,,,,f,19,
3,1,34,1,1,1,['k'],['d'],N,Y,['space'],Y,,,,,,,f,19,
3,2,35,3,3,1,['d'],['d'],Y,N,None,Y,,,,,,,f,19,
3,3,36,5,5,1,['d'],['k'],N,Y,['space'],Y,,,,,,,f,19,
3,4,37,5,5,1,['d'],['k'],N,N,None,Y,,,,,,,f,19,
3,5,38,2,2,1,['k'],['d'],N,N,None,Y,,,,,,,f,19,
3,6,39,4,4,1,['k'],['d'],N,N,None,Y,,,,,,,f,19,
3,7,40,9,9,1,['d'],['d'],Y,N,None,Y,,,,,,,f,19,
3,8,41,6,6,1,['k'],['d'],N,N,None,Y,,,,,,,f,19,
3,9,42,7,7,1,['k'],['k'],Y,N,None,Y,,,,,,,f,19,
3,10,43,9,9,1,['d'],['d'],Y,Y,['space'],Y,,,,,,,f,19,
4,0,44,5,5,1,['d'],['d'],Y,Y,None,N,,,,,,,f,19,
4,1,45,9,9,1,['k'],['k'],Y,N,None,Y,,,,,,,f,19,
4,2,46,10,10,1,['k'],['k'],Y,Y,['space'],Y,,,,,,,f,19,
4,3,47,4,4,1,['d'],['d'],Y,N,None,Y,,,,,,,f,19,
4,4,48,5,5,1,['d'],['d'],Y,N,None,Y,,,,,,,f,19,
4,5,49,7,7,1,['k'],['k'],Y,N,None,Y,39,42,19,,,,f,19,
4,6,50,1,1,2,['k'],['d'],N,,,,,,,,,,f,19,
4,7,51,0,0,2,['k'],['k'],Y,,,,,,,,,,f,19,
4,8,52,1,1,2,['d'],['d'],Y,N,None,Y,,,,,,,f,19,
4,9,53,8,8,2,['d'],['d'],Y,Y,None,N,,,,,,,f,19,
4,10,54,4,4,2,['d'],['d'],Y,Y,['space'],Y,,,,,,,f,19,
5,0,55,10,10,2,['k'],['k'],Y,Y,['space'],Y,,,,,,,f,19,
5,1,56,6,6,2,['d'],['d'],Y,N,None,Y,,,,,,,f,19,
5,2,57,6,6,2,['k'],['k'],Y,N,['space'],N,,,,,,,f,19,
5,3,58,2,2,2,['k'],['k'],Y,N,None,Y,,,,,,,f,19,
5,4,59,1,1,2,['k'],['k'],Y,Y,['space'],Y,,,,,,,f,19,
5,5,60,3,3,2,['k'],['d'],N,N,None,Y,,,,,,,f,19,
5,6,61,9,9,2,['d'],['k'],N,Y,['space'],Y,,,,,,,f,19,
5,7,62,10,10,2,['k'],['k'],Y,N,None,Y,,,,,,,f,19,
5,8,63,10,10,2,['k'],['k'],Y,N,None,Y,,,,,,,f,19,
5,9,64,5,5,2,['d'],['d'],Y,N,None,Y,,,,,,,f,19,
5,10,65,10,10,2,['k'],['k'],Y,N,None,Y,,,,,,,f,19,
6,0,66,5,5,2,['k'],['k'],Y,N,None,Y,,,,,,,f,19,
6,1,67,0,0,2,['k'],['k'],Y,N,None,Y,,,,,,,f,19,
6,2,68,7,7,2,['d'],['k'],N,N,None,Y,,,,,,,f,19,
6,3,69,7,7,2,['k'],['d'],N,N,None,Y,,,,,,,f,19,
6,4,70,8,8,2,['d'],['d'],Y,N,None,Y,,,,,,,f,19,
6,5,71,0,0,2,['d'],['d'],Y,N,None,Y,,,,,,,f,19,
6,6,72,9,9,2,['k'],['k'],Y,Y,['space'],Y,,,,,,,f,19,
6,7,73,1,1,2,['k'],['k'],Y,Y,['space'],Y,,,,,,,f,19,
6,8,74,5,5,2,['k'],['k'],Y,Y,['space'],Y,,,,,,,f,19,
6,9,75,2,2,2,['d'],['d'],Y,N,None,Y,,,,,,,f,19,
6,10,76,5,5,2,['d'],['k'],N,N,None,Y,,,,,,,f,19,
7,0,77,1,1,2,['d'],['d'],Y,Y,None,N,,,,,,,f,19,
7,1,78,1,1,2,['d'],['k'],N,Y,['space'],Y,,,,,,,f,19,
7,2,79,8,8,2,['k'],['k'],Y,N,['space'],N,,,,,,,f,19,
7,3,80,10,10,2,['k'],['d'],N,Y,['space'],Y,,,,,,,f,19,
7,4,81,5,5,2,['k'],['k'],Y,N,None,Y,,,,,,,f,19,
7,5,82,6,6,2,['k'],['k'],Y,N,None,Y,,,,,,,f,19,
7,6,83,2,2,2,['d'],['d'],Y,N,None,Y,,,,,,,f,19,
7,7,84,4,4,2,['k'],['d'],N,N,None,Y,,,,,,,f,19,
7,8,85,8,8,2,['k'],['k'],Y,Y,None,N,,,,,,,f,19,
7,9,86,2,2,2,['d'],['d'],Y,N,None,Y,,,,,,,f,19,
7,10,87,8,8,2,['d'],['d'],Y,Y,['space'],Y,,,,,,,f,19,
8,0,88,5,5,2,['k'],['k'],Y,Y,['space'],Y,,,,,,,f,19,
8,1,89,2,2,2,['k'],['k'],Y,N,None,Y,,,,,,,f,19,
8,2,90,9,9,2,['k'],['k'],Y,N,None,Y,,,,,,,f,19,
8,3,91,2,2,2,['k'],['k'],Y,N,None,Y,,,,,,,f,19,
8,4,92,0,0,2,['d'],['d'],Y,Y,['space'],Y,,,,,,,f,19,
8,5,93,8,8,2,['d'],['d'],Y,Y,['space'],Y,,,,,,,f,19,
8,6,94,3,3,2,['k'],['k'],Y,Y,['space'],Y,,,,,,,f,19,
8,7,95,2,2,2,['k'],['k'],Y,Y,['space'],Y,,,,,,,f,19,
8,8,96,3,3,2,['k'],['k'],Y,N,None,Y,,,,,,,f,19,
8,9,97,1,1,2,['k'],['k'],Y,N,None,Y,,,,,,,f,19,
8,10,98,5,5,2,['d'],['d'],Y,N,None,Y,,,,,,,f,19,
9,0,99,2,2,2,['k'],['k'],Y,N,None,Y,41,43,18,,,,f,19,
9,1,100,0,0,3,['d'],['d'],Y,,,,,,,,,,f,19,
9,2,101,8,8,3,['k'],['k'],Y,,,,,,,,,,f,19,
9,3,102,3,3,3,['d'],['d'],Y,N,None,Y,,,,,,,f,19,
9,4,103,0,0,3,['k'],['k'],Y,N,None,Y,,,,,,,f,19,
9,5,104,4,4,3,['k'],['k'],Y,N,None,Y,,,,,,,f,19,
9,6,105,7,7,3,['d'],['d'],Y,N,None,Y,,,,,,,f,19,
9,7,106,7,7,3,['d'],['d'],Y,Y,['space'],Y,,,,,,,f,19,
9,8,107,6,6,3,['k'],['k'],Y,Y,['space'],Y,,,,,,,f,19,
9,9,108,8,8,3,['k'],['d'],N,Y,['space'],Y,,,,,,,f,19,
9,10,109,1,1,3,['d'],['k'],N,Y,['space'],Y,,,,,,,f,19,
10,0,110,10,10,3,['d'],['k'],N,Y,['space'],Y,,,,,,,f,19,
10,1,111,0,0,3,['k'],['k'],Y,N,None,Y,,,,,,,f,19,
10,2,112,0,0,3,['d'],['k'],N,N,['space'],N,,,,,,,f,19,
10,3,113,8,8,3,['k'],['k'],Y,N,None,Y,,,,,,,f,19,
10,4,114,6,6,3,['k'],['k'],Y,Y,['space'],Y,,,,,,,f,19,
10,5,115,1,1,3,['d'],['d'],Y,N,None,Y,,,,,,,f,19,
10,6,116,7,7,3,['k'],['k'],Y,N,None,Y,,,,,,,f,19,
10,7,117,9,9,3,['d'],['d'],Y,Y,['space'],Y,,,,,,,f,19,
10,8,118,10,10,3,['k'],['k'],Y,Y,['space'],Y,,,,,,,f,19,
10,9,119,3,3,3,['k'],['k'],Y,N,None,Y,,,,,,,f,19,
10,10,120,4,4,3,['k'],['k'],Y,N,None,Y,,,,,,,f,19,
11,0,121,1,1,3,['d'],['d'],Y,Y,['space'],Y,,,,,,,f,19,
11,1,122,6,6,3,['k'],['d'],N,N,None,Y,,,,,,,f,19,
11,2,123,7,7,3,['k'],['d'],N,N,None,Y,,,,,,,f,19,
11,3,124,5,5,3,['k'],['k'],Y,Y,None,N,,,,,,,f,19,
11,4,125,7,7,3,['k'],['k'],Y,Y,None,N,,,,,,,f,19,
11,5,126,6,6,3,['k'],['k'],Y,N,None,Y,,,,,,,f,19,
11,6,127,7,7,3,['k'],['k'],Y,Y,['space'],Y,,,,,,,f,19,
11,7,128,10,10,3,['d'],['d'],Y,Y,None,N,,,,,,,f,19,
11,8,129,0,0,3,['k'],['k'],Y,Y,['space'],Y,,,,,,,f,19,
11,9,130,0,0,3,['k'],['k'],Y,N,None,Y,,,,,,,f,19,
11,10,131,1,1,3,['k'],['k'],Y,Y,['space'],Y,,,,,,,f,19,
12,0,132,0,0,3,['k'],['k'],Y,Y,['space'],Y,,,,,,,f,19,
12,1,133,1,1,3,['d'],['d'],Y,Y,['space'],Y,,,,,,,f,19,
12,2,134,3,3,3,['k'],['k'],Y,Y,None,N,,,,,,,f,19,
12,3,135,8,8,3,['k'],['k'],Y,Y,None,N,,,,,,,f,19,
12,4,136,6,6,3,['d'],['d'],Y,N,None,Y,,,,,,,f,19,
12,5,137,9,9,3,['k'],['k'],Y,N,None,Y,,,,,,,f,19,
12,6,138,7,7,3,['k'],['k'],Y,N,None,Y,,,,,,,f,19,
12,7,139,9,9,3,['k'],['k'],Y,N,None,Y,,,,,,,f,19,
12,8,140,10,10,3,['k'],['k'],Y,Y,['space'],Y,,,,,,,f,19,
12,9,141,8,8,3,['d'],['d'],Y,Y,['space'],Y,,,,,,,f,19,
12,10,142,2,2,3,['d'],['d'],Y,N,None,Y,,,,,,,f,19,
13,0,143,4,4,3,['d'],['d'],Y,Y,['space'],Y,,,,,,,f,19,
13,1,144,7,7,3,['d'],['d'],Y,N,None,Y,,,,,,,f,19,
13,2,145,3,3,3,['d'],['d'],Y,Y,['space'],Y,,,,,,,f,19,
13,3,146,2,2,3,['k'],['k'],Y,Y,['space'],Y,,,,,,,f,19,
13,4,147,8,8,3,['k'],['k'],Y,Y,['space'],Y,,,,,,,f,19,
13,5,148,1,1,3,['k'],['k'],Y,N,None,Y,,,,,,,f,19,
13,6,149,7,7,3,['k'],['d'],N,N,None,Y,43,42,25,,,,f,19,
13,7,150,7,7,4,['k'],['k'],Y,,,,,,,,,,f,19,
13,8,151,2,2,4,['k'],['k'],Y,,,,,,,,,,f,19,
13,9,152,2,2,4,['k'],['k'],Y,Y,['space'],Y,,,,,,,f,19,
13,10,153,7,7,4,['k'],['k'],Y,N,['space'],N,,,,,,,f,19,
14,0,154,1,1,4,['d'],['k'],N,Y,['space'],Y,,,,,,,f,19,
14,1,155,4,4,4,['k'],['k'],Y,Y,['space'],Y,,,,,,,f,19,
14,2,156,2,2,4,['d'],['d'],Y,N,None,Y,,,,,,,f,19,
14,3,157,0,0,4,['d'],['d'],Y,N,None,Y,,,,,,,f,19,
14,4,158,1,1,4,['d'],['d'],Y,N,None,Y,,,,,,,f,19,
14,5,159,0,0,4,['d'],['d'],Y,N,None,Y,,,,,,,f,19,
14,6,160,1,1,4,['k'],['k'],Y,Y,['space'],Y,,,,,,,f,19,
14,7,161,7,7,4,['k'],['k'],Y,N,None,Y,,,,,,,f,19,
14,8,162,8,8,4,['k'],['k'],Y,N,None,Y,,,,,,,f,19,
14,9,163,4,4,4,['k'],['k'],Y,Y,['space'],Y,,,,,,,f,19,
14,10,164,10,10,4,['k'],['k'],Y,Y,['space'],Y,,,,,,,f,19,
15,0,165,3,3,4,['d'],['d'],Y,Y,['space'],Y,,,,,,,f,19,
15,1,166,5,5,4,['k'],['d'],N,N,None,Y,,,,,,,f,19,
15,2,167,0,0,4,['k'],['k'],Y,N,None,Y,,,,,,,f,19,
15,3,168,4,4,4,['d'],['d'],Y,Y,['space'],Y,,,,,,,f,19,
15,4,169,1,1,4,['d'],['d'],Y,N,None,Y,,,,,,,f,19,
15,5,170,1,1,4,['k'],['k'],Y,Y,['space'],Y,,,,,,,f,19,
15,6,171,9,9,4,['k'],['d'],N,Y,['space'],Y,,,,,,,f,19,
15,7,172,3,3,4,['k'],['k'],Y,N,None,Y,,,,,,,f,19,
15,8,173,3,3,4,['k'],['d'],N,Y,['space'],Y,,,,,,,f,19,
15,9,174,9,9,4,['k'],['k'],Y,Y,['space'],Y,,,,,,,f,19,
15,10,175,4,4,4,['k'],['d'],N,Y,['space'],Y,,,,,,,f,19,
16,0,176,9,9,4,['d'],['d'],Y,N,None,Y,,,,,,,f,19,
16,1,177,3,3,4,['d'],['d'],Y,Y,['space'],Y,,,,,,,f,19,
16,2,178,10,10,4,['d'],['d'],Y,N,None,Y,,,,,,,f,19,
16,3,179,3,3,4,['d'],['d'],Y,Y,['space'],Y,,,,,,,f,19,
16,4,180,2,2,4,['d'],['k'],N,N,None,Y,,,,,,,f,19,
16,5,181,3,3,4,['d'],['d'],Y,N,None,Y,,,,,,,f,19,
16,6,182,0,0,4,['d'],['d'],Y,Y,['space'],Y,,,,,,,f,19,
16,7,183,9,9,4,['d'],['d'],Y,N,None,Y,,,,,,,f,19,
16,8,184,5,5,4,['k'],['k'],Y,N,None,Y,,,,,,,f,19,
16,9,185,7,7,4,['k'],['d'],N,Y,None,N,,,,,,,f,19,
16,10,186,1,1,4,['d'],['d'],Y,Y,['space'],Y,,,,,,,f,19,
17,0,187,5,5,4,['k'],['d'],N,Y,['space'],Y,,,,,,,f,19,
17,1,188,5,5,4,['d'],['d'],Y,N,None,Y,,,,,,,f,19,
17,2,189,1,1,4,['k'],['k'],Y,Y,None,N,,,,,,,f,19,
17,3,190,2,2,4,['d'],['d'],Y,Y,['space'],Y,,,,,,,f,19,
17,4,191,8,8,4,['d'],['d'],Y,N,None,Y,,,,,,,f,19,
17,5,192,6,6,4,['d'],['d'],Y,N,None,Y,,,,,,,f,19,
17,6,193,7,7,4,['k'],['k'],Y,Y,['space'],Y,,,,,,,f,19,
17,7,194,8,8,4,['d'],['d'],Y,Y,['space'],Y,,,,,,,f,19,
17,8,195,0,0,4,['d'],['d'],Y,N,None,Y,,,,,,,f,19,
17,9,196,7,7,4,['d'],['d'],Y,Y,['space'],Y,,,,,,,f,19,
17,10,197,8,8,4,['d'],['k'],N,Y,['space'],Y,,,,,,,f,19,
18,0,198,2,2,4,['k'],['k'],Y,N,None,Y,,,,,,,f,19,
18,1,199,7,7,4,['d'],['d'],Y,N,None,Y,41,45,25,,,,f,19,
18,2,200,7,7,5,['k'],['k'],Y,,,,,,,,,,f,19,
18,3,201,8,8,5,['d'],['d'],Y,,,,,,,,,,f,19,
18,4,202,8,8,5,['k'],['k'],Y,N,None,Y,,,,,,,f,19,
18,5,203,5,5,5,['k'],['k'],Y,N,None,Y,,,,,,,f,19,
18,6,204,1,1,5,['d'],['d'],Y,Y,['space'],Y,,,,,,,f,19,
18,7,205,6,6,5,['k'],['k'],Y,Y,['space'],Y,,,,,,,f,19,
18,8,206,3,3,5,['d'],['k'],N,N,None,Y,,,,,,,f,19,
18,9,207,5,5,5,['d'],['d'],Y,Y,['space'],Y,,,,,,,f,19,
18,10,208,4,4,5,['d'],['d'],Y,N,None,Y,,,,,,,f,19,
19,0,209,5,5,5,['d'],['d'],Y,N,None,Y,,,,,,,f,19,
19,1,210,2,2,5,['d'],['d'],Y,Y,['space'],Y,,,,,,,f,19,
19,2,211,4,4,5,['k'],['k'],Y,N,None,Y,,,,,,,f,19,
19,3,212,0,0,5,['d'],['d'],Y,N,None,Y,,,,,,,f,19,
19,4,213,0,0,5,['k'],['k'],Y,Y,['space'],Y,,,,,,,f,19,
19,5,214,4,4,5,['d'],['d'],Y,N,None,Y,,,,,,,f,19,
19,6,215,7,7,5,['k'],['k'],Y,Y,['space'],Y,,,,,,,f,19,
19,7,216,5,5,5,['k'],['k'],Y,Y,['space'],Y,,,,,,,f,19,
19,8,217,5,5,5,['d'],['k'],N,Y,['space'],Y,,,,,,,f,19,
19,9,218,0,0,5,['d'],['d'],Y,Y,['space'],Y,,,,,,,f,19,
19,10,219,8,8,5,['d'],['d'],Y,Y,['space'],Y,,,,,,,f,19,
20,0,220,9,9,5,['d'],['d'],Y,N,None,Y,,,,,,,f,19,
20,1,221,10,10,5,['k'],['k'],Y,N,None,Y,,,,,,,f,19,
20,2,222,10,10,5,['k'],['k'],Y,Y,['space'],Y,,,,,,,f,19,
20,3,223,4,4,5,['k'],['k'],Y,N,None,Y,,,,,,,f,19,
20,4,224,6,6,5,['d'],['d'],Y,N,None,Y,,,,,,,f,19,
20,5,225,9,9,5,['d'],['d'],Y,Y,['space'],Y,,,,,,,f,19,
20,6,226,8,8,5,['k'],['k'],Y,N,None,Y,,,,,,,f,19,
20,7,227,8,8,5,['d'],['d'],Y,Y,['space'],Y,,,,,,,f,19,
20,8,228,4,4,5,['k'],['k'],Y,Y,['space'],Y,,,,,,,f,19,
20,9,229,5,5,5,['d'],['d'],Y,Y,['space'],Y,,,,,,,f,19,
20,10,230,0,0,5,['k'],['k'],Y,N,None,Y,,,,,,,f,19,
21,0,231,6,6,5,['k'],['d'],N,N,None,Y,,,,,,,f,19,
21,1,232,8,8,5,['k'],['k'],Y,N,None,Y,,,,,,,f,19,
21,2,233,1,1,5,['d'],['d'],Y,N,None,Y,,,,,,,f,19,
21,3,234,7,7,5,['k'],['k'],Y,N,None,Y,,,,,,,f,19,
21,4,235,2,2,5,['k'],['k'],Y,N,None,Y,,,,,,,f,19,
21,5,236,9,9,5,['d'],['d'],Y,N,None,Y,,,,,,,f,19,
21,6,237,1,1,5,['k'],['k'],Y,Y,['space'],Y,,,,,,,f,19,
21,7,238,5,5,5,['k'],['k'],Y,Y,['space'],Y,,,,,,,f,19,
21,8,239,4,4,5,['d'],['d'],Y,N,None,Y,,,,,,,f,19,
21,9,240,10,10,5,['d'],['d'],Y,Y,['space'],Y,,,,,,,f,19,
21,10,241,2,2,5,['k'],['d'],N,N,None,Y,,,,,,,f,19,
22,0,242,3,3,5,['k'],['k'],Y,Y,['space'],Y,,,,,,,f,19,
22,1,243,1,1,5,['k'],['k'],Y,Y,None,N,,,,,,,f,19,
22,2,244,9,9,5,['d'],['d'],Y,Y,['space'],Y,,,,,,,f,19,
22,3,245,8,8,5,['k'],['k'],Y,Y,['space'],Y,,,,,,,f,19,
22,4,246,5,5,5,['k'],['k'],Y,Y,['space'],Y,,,,,,,f,19,
22,5,247,0,0,5,['k'],['d'],N,N,None,Y,,,,,,,f,19,
22,6,248,4,4,5,['d'],['k'],N,N,None,Y,,,,,,,f,19,
22,7,249,8,8,5,['d'],['d'],Y,Y,['space'],Y,44,47,24,,,,f,19,
22,8,250,6,6,6,['k'],['k'],Y,,,,,,,,,,f,19,
22,9,251,3,3,6,['k'],['k'],Y,,,,,,,,,,f,19,
22,10,252,5,5,6,['k'],['k'],Y,Y,['space'],Y,,,,,,,f,19,
23,0,253,0,0,6,['d'],['d'],Y,N,None,Y,,,,,,,f,19,
23,1,254,9,9,6,['k'],['k'],Y,N,None,Y,,,,,,,f,19,
23,2,255,5,5,6,['k'],['k'],Y,Y,['space'],Y,,,,,,,f,19,
23,3,256,0,0,6,['k'],['d'],N,Y,['space'],Y,,,,,,,f,19,
23,4,257,9,9,6,['k'],['k'],Y,N,None,Y,,,,,,,f,19,
23,5,258,3,3,6,['d'],['d'],Y,Y,None,N,,,,,,,f,19,
23,6,259,5,5,6,['d'],['d'],Y,Y,['space'],Y,,,,,,,f,19,
23,7,260,10,10,6,['d'],['d'],Y,Y,['space'],Y,,,,,,,f,19,
23,8,261,5,5,6,['d'],['d'],Y,N,None,Y,,,,,,,f,19,
23,9,262,6,6,6,['k'],['k'],Y,Y,['space'],Y,,,,,,,f,19,
23,10,263,5,5,6,['d'],['d'],Y,N,None,Y,,,,,,,f,19,
24,0,264,8,8,6,['k'],['k'],Y,Y,['space'],Y,,,,,,,f,19,
24,1,265,5,5,6,['k'],['k'],Y,Y,None,N,,,,,,,f,19,
24,2,266,7,7,6,['k'],['k'],Y,N,['space'],N,,,,,,,f,19,
24,3,267,1,1,6,['k'],['k'],Y,N,None,Y,,,,,,,f,19,
24,4,268,4,4,6,['k'],['k'],Y,Y,['space'],Y,,,,,,,f,19,
24,5,269,8,8,6,['k'],['k'],Y,Y,['space'],Y,,,,,,,f,19,
24,6,270,9,9,6,['k'],['d'],N,N,None,Y,,,,,,,f,19,
24,7,271,10,10,6,['d'],['d'],Y,N,None,Y,,,,,,,f,19,
24,8,272,9,9,6,['k'],['k'],Y,N,None,Y,,,,,,,f,19,
24,9,273,1,1,6,['k'],['k'],Y,Y,None,N,,,,,,,f,19,
24,10,274,10,10,6,['k'],['k'],Y,Y,['space'],Y,,,,,,,f,19,
25,0,275,7,7,6,['k'],['k'],Y,N,None,Y,,,,,,,f,19,
25,1,276,8,8,6,['d'],['d'],Y,Y,['space'],Y,,,,,,,f,19,
25,2,277,2,2,6,['k'],['k'],Y,N,['space'],N,,,,,,,f,19,
25,3,278,4,4,6,['k'],['k'],Y,N,None,Y,,,,,,,f,19,
25,4,279,8,8,6,['d'],['d'],Y,Y,['space'],Y,,,,,,,f,19,
25,5,280,3,3,6,['d'],['d'],Y,N,None,Y,,,,,,,f,19,
25,6,281,8,8,6,['d'],['k'],N,Y,['space'],Y,,,,,,,f,19,
25,7,282,9,9,6,['k'],['k'],Y,N,None,Y,,,,,,,f,19,
25,8,283,3,3,6,['k'],['k'],Y,N,None,Y,,,,,,,f,19,
25,9,284,5,5,6,['k'],['d'],N,Y,['space'],Y,,,,,,,f,19,
25,10,285,6,6,6,['k'],['k'],Y,N,None,Y,,,,,,,f,19,
26,0,286,1,1,6,['d'],['d'],Y,Y,['space'],Y,,,,,,,f,19,
26,1,287,7,7,6,['k'],['k'],Y,Y,None,N,,,,,,,f,19,
26,2,288,10,10,6,['d'],['d'],Y,Y,['space'],Y,,,,,,,f,19,
26,3,289,7,7,6,['d'],['d'],Y,Y,['space'],Y,,,,,,,f,19,
26,4,290,9,9,6,['d'],['d'],Y,Y,['space'],Y,,,,,,,f,19,
26,5,291,6,6,6,['k'],['d'],N,N,None,Y,,,,,,,f,19,
26,6,292,6,6,6,['d'],['d'],Y,N,['space'],N,,,,,,,f,19,
26,7,293,1,1,6,['k'],['k'],Y,N,None,Y,,,,,,,f,19,
26,8,294,0,0,6,['k'],['d'],N,N,None,Y,,,,,,,f,19,
26,9,295,7,7,6,['d'],['d'],Y,Y,['space'],Y,,,,,,,f,19,
26,10,296,10,10,6,['k'],['d'],N,Y,['space'],Y,,,,,,,f,19,
27,0,297,7,7,6,['d'],['k'],N,Y,['space'],Y,,,,,,,f,19,
27,1,298,0,0,6,['k'],['k'],Y,N,None,Y,,,,,,,f,19,
27,2,299,5,5,6,['k'],['k'],Y,N,None,Y,42,41,25,,,,f,19,
27,3,300,9,9,7,['k'],['d'],N,,,,,,,,,,f,19,
27,4,301,8,8,7,['d'],['d'],Y,,,,,,,,,,f,19,
27,5,302,2,2,7,['d'],['d'],Y,N,None,Y,,,,,,,f,19,
27,6,303,7,7,7,['k'],['k'],Y,N,None,Y,,,,,,,f,19,
27,7,304,9,9,7,['d'],['d'],Y,Y,['space'],Y,,,,,,,f,19,
27,8,305,1,1,7,['k'],['k'],Y,Y,['space'],Y,,,,,,,f,19,
27,9,306,3,3,7,['d'],['d'],Y,N,None,Y,,,,,,,f,19,
27,10,307,4,4,7,['d'],['d'],Y,N,None,Y,,,,,,,f,19,
28,0,308,3,3,7,['k'],['d'],N,Y,['space'],Y,,,,,,,f,19,
28,1,309,7,7,7,['d'],['k'],N,Y,['space'],Y,,,,,,,f,19,
28,2,310,6,6,7,['k'],['d'],N,Y,['space'],Y,,,,,,,f,19,
28,3,311,8,8,7,['d'],['d'],Y,N,None,Y,,,,,,,f,19,
28,4,312,0,0,7,['d'],['d'],Y,Y,['space'],Y,,,,,,,f,19,
28,5,313,6,6,7,['k'],['k'],Y,Y,['space'],Y,,,,,,,f,19,
28,6,314,1,1,7,['d'],['k'],N,N,None,Y,,,,,,,f,19,
28,7,315,9,9,7,['k'],['k'],Y,Y,None,N,,,,,,,f,19,
28,8,316,0,0,7,['d'],['k'],N,N,None,Y,,,,,,,f,19,
28,9,317,1,1,7,['k'],['d'],N,N,None,Y,,,,,,,f,19,
28,10,318,8,8,7,['k'],['k'],Y,Y,['space'],Y,,,,,,,f,19,
29,0,319,3,3,7,['k'],['k'],Y,N,None,Y,,,,,,,f,19,
29,1,320,10,10,7,['d'],['d'],Y,N,None,Y,,,,,,,f,19,
29,2,321,6,6,7,['k'],['k'],Y,N,None,Y,,,,,,,f,19,
29,3,322,4,4,7,['d'],['k'],N,N,['d'],N,,,,,,,f,19,
29,4,323,6,6,7,['k'],['k'],Y,N,['space'],N,,,,,,,f,19,
29,5,324,8,8,7,['d'],['d'],Y,Y,['space'],Y,,,,,,,f,19,
29,6,325,10,10,7,['d'],['d'],Y,Y,['space'],Y,,,,,,,f,19,
29,7,326,4,4,7,['k'],['k'],Y,Y,['space'],Y,,,,,,,f,19,
29,8,327,6,6,7,['k'],['k'],Y,N,None,Y,,,,,,,f,19,
29,9,328,3,3,7,['d'],['d'],Y,Y,['space'],Y,,,,,,,f,19,
29,10,329,10,10,7,['d'],['d'],Y,Y,['space'],Y,,,,,,,f,19,
30,0,330,7,7,7,['d'],['d'],Y,Y,['space'],Y,,,,,,,f,19,
30,1,331,4,4,7,['k'],['k'],Y,Y,['space'],Y,,,,,,,f,19,
30,2,332,3,3,7,['k'],['k'],Y,Y,['space'],Y,,,,,,,f,19,
30,3,333,2,2,7,['d'],['d'],Y,Y,['space'],Y,,,,,,,f,19,
30,4,334,2,2,7,['d'],['d'],Y,N,None,Y,,,,,,,f,19,
30,5,335,7,7,7,['d'],['k'],N,N,None,Y,,,,,,,f,19,
30,6,336,4,4,7,['k'],['k'],Y,N,None,Y,,,,,,,f,19,
30,7,337,7,7,7,['d'],['d'],Y,Y,['space'],Y,,,,,,,f,19,
30,8,338,5,5,7,['d'],['d'],Y,N,None,Y,,,,,,,f,19,
30,9,339,7,7,7,['d'],['d'],Y,N,None,Y,,,,,,,f,19,
30,10,340,9,9,7,['k'],['k'],Y,Y,['space'],Y,,,,,,,f,19,
31,0,341,0,0,7,['d'],['k'],N,Y,['space'],Y,,,,,,,f,19,
31,1,342,2,2,7,['k'],['k'],Y,N,None,Y,,,,,,,f,19,
31,2,343,6,6,7,['d'],['k'],N,Y,['space'],Y,,,,,,,f,19,
31,3,344,7,7,7,['d'],['d'],Y,N,None,Y,,,,,,,f,19,
31,4,345,3,3,7,['k'],['k'],Y,Y,None,N,,,,,,,f,19,
31,5,346,0,0,7,['d'],['d'],Y,Y,None,N,,,,,,,f,19,
31,6,347,1,1,7,['k'],['k'],Y,N,None,Y,,,,,,,f,19,
31,7,348,6,6,7,['k'],['k'],Y,N,None,Y,,,,,,,f,19,
31,8,349,7,7,7,['k'],['k'],Y,N,None,Y,39,43,24,,,,f,19,
31,9,350,6,6,8,['d'],['d'],Y,,,,,,,,,,f,19,
31,10,351,0,0,8,['k'],['k'],Y,,,,,,,,,,f,19,
32,0,352,9,9,8,['d'],['d'],Y,N,None,Y,,,,,,,f,19,
32,1,353,4,4,8,['d'],['d'],Y,Y,['space'],Y,,,,,,,f,19,
32,2,354,9,9,8,['d'],['d'],Y,Y,['space'],Y,,,,,,,f,19,
32,3,355,5,5,8,['k'],['k'],Y,Y,['space'],Y,,,,,,,f,19,
32,4,356,5,5,8,['d'],['d'],Y,Y,['space'],Y,,,,,,,f,19,
32,5,357,2,2,8,['d'],['d'],Y,N,None,Y,,,,,,,f,19,
32,6,358,8,8,8,['d'],['d'],Y,Y,['space'],Y,,,,,,,f,19,
32,7,359,9,9,8,['k'],['k'],Y,Y,['space'],Y,,,,,,,f,19,
32,8,360,4,4,8,['d'],['d'],Y,Y,['space'],Y,,,,,,,f,19,
32,9,361,10,10,8,['k'],['k'],Y,Y,['space'],Y,,,,,,,f,19,
32,10,362,0,0,8,['d'],['k'],N,N,None,Y,,,,,,,f,19,
33,0,363,0,0,8,['k'],['k'],Y,N,['space'],N,,,,,,,f,19,
33,1,364,2,2,8,['d'],['d'],Y,Y,['space'],Y,,,,,,,f,19,
33,2,365,1,1,8,['d'],['d'],Y,Y,['space'],Y,,,,,,,f,19,
33,3,366,9,9,8,['k'],['k'],Y,N,None,Y,,,,,,,f,19,
33,4,367,3,3,8,['k'],['k'],Y,N,None,Y,,,,,,,f,19,
33,5,368,0,0,8,['k'],['d'],N,Y,['d'],N,,,,,,,f,19,
33,6,369,1,1,8,['k'],['k'],Y,N,None,Y,,,,,,,f,19,
33,7,370,0,0,8,['k'],['k'],Y,Y,None,N,,,,,,,f,19,
33,8,371,9,9,8,['k'],['k'],Y,Y,None,N,,,,,,,f,19,
33,9,372,8,8,8,['k'],['d'],N,Y,['space'],Y,,,,,,,f,19,
33,10,373,9,9,8,['d'],['d'],Y,N,['space'],N,,,,,,,f,19,
34,0,374,0,0,8,['k'],['d'],N,N,None,Y,,,,,,,f,19,
34,1,375,8,8,8,['k'],['k'],Y,Y,['space'],Y,,,,,,,f,19,
34,2,376,10,10,8,['k'],['k'],Y,Y,['space'],Y,,,,,,,f,19,
34,3,377,4,4,8,['d'],['d'],Y,Y,['space'],Y,,,,,,,f,19,
34,4,378,2,2,8,['d'],['d'],Y,N,None,Y,,,,,,,f,19,
34,5,379,2,2,8,['k'],['k'],Y,Y,['space'],Y,,,,,,,f,19,
34,6,380,7,7,8,['d'],['k'],N,N,None,Y,,,,,,,f,19,
34,7,381,5,5,8,['k'],['k'],Y,N,None,Y,,,,,,,f,19,
34,8,382,0,0,8,['k'],['k'],Y,N,None,Y,,,,,,,f,19,
34,9,383,6,6,8,['d'],['k'],N,N,None,Y,,,,,,,f,19,
34,10,384,3,3,8,['k'],['k'],Y,Y,['space'],Y,,,,,,,f,19,
35,0,385,9,9,8,['d'],['d'],Y,N,None,Y,,,,,,,f,19,
35,1,386,4,4,8,['k'],['k'],Y,N,None,Y,,,,,,,f,19,
35,2,387,2,2,8,['k'],['d'],N,N,None,Y,,,,,,,f,19,
35,3,388,2,2,8,['k'],['k'],Y,Y,['space'],Y,,,,,,,f,19,
35,4,389,6,6,8,['d'],['d'],Y,N,None,Y,,,,,,,f,19,
35,5,390,2,2,8,['d'],['d'],Y,Y,['space'],Y,,,,,,,f,19,
35,6,391,8,8,8,['k'],['k'],Y,N,None,Y,,,,,,,f,19,
35,7,392,3,3,8,['d'],['k'],N,N,None,Y,,,,,,,f,19,
35,8,393,1,1,8,['k'],['k'],Y,Y,['space'],Y,,,,,,,f,19,
35,9,394,6,6,8,['k'],['k'],Y,N,None,Y,,,,,,,f,19,
35,10,395,3,3,8,['k'],['d'],N,N,None,Y,,,,,,,f,19,
36,0,396,1,1,8,['d'],['d'],Y,N,None,Y,,,,,,,f,19,
36,1,397,2,2,8,['k'],['k'],Y,Y,['space'],Y,,,,,,,f,19,
36,2,398,3,3,8,['d'],['d'],Y,N,None,Y,,,,,,,f,19,
36,3,399,7,7,8,['k'],['k'],Y,N,None,Y,41,43,23,,,,f,19,
36,4,400,4,4,9,['k'],['k'],Y,,,,,,,,,,f,19,
36,5,401,1,1,9,['k'],['d'],N,,,,,,,,,,f,19,
36,6,402,10,10,9,['d'],['d'],Y,N,None,Y,,,,,,,f,19,
36,7,403,10,10,9,['k'],['k'],Y,Y,['space'],Y,,,,,,,f,19,
36,8,404,5,5,9,['d'],['d'],Y,N,None,Y,,,,,,,f,19,
36,9,405,9,9,9,['k'],['k'],Y,Y,['space'],Y,,,,,,,f,19,
36,10,406,9,9,9,['k'],['k'],Y,N,None,Y,,,,,,,f,19,
37,0,407,0,0,9,['d'],['d'],Y,N,None,Y,,,,,,,f,19,
37,1,408,2,2,9,['k'],['k'],Y,Y,['space'],Y,,,,,,,f,19,
37,2,409,6,6,9,['k'],['k'],Y,N,None,Y,,,,,,,f,19,
37,3,410,7,7,9,['k'],['k'],Y,Y,['space'],Y,,,,,,,f,19,
37,4,411,8,8,9,['k'],['d'],N,N,None,Y,,,,,,,f,19,
37,5,412,0,0,9,['k'],['k'],Y,N,None,Y,,,,,,,f,19,
37,6,413,2,2,9,['k'],['d'],N,N,None,Y,,,,,,,f,19,
37,7,414,8,8,9,['k'],['k'],Y,Y,None,N,,,,,,,f,19,
37,8,415,4,4,9,['d'],['d'],Y,N,None,Y,,,,,,,f,19,
37,9,416,3,3,9,['d'],['d'],Y,Y,['space'],Y,,,,,,,f,19,
37,10,417,6,6,9,['d'],['d'],Y,Y,['space'],Y,,,,,,,f,19,
38,0,418,3,3,9,['d'],['d'],Y,Y,['space'],Y,,,,,,,f,19,
38,1,419,6,6,9,['d'],['d'],Y,N,None,Y,,,,,,,f,19,
38,2,420,3,3,9,['k'],['k'],Y,Y,['space'],Y,,,,,,,f,19,
38,3,421,9,9,9,['d'],['k'],N,Y,['space'],Y,,,,,,,f,19,
38,4,422,10,10,9,['d'],['k'],N,N,None,Y,,,,,,,f,19,
38,5,423,6,6,9,['d'],['d'],Y,N,None,Y,,,,,,,f,19,
38,6,424,1,1,9,['d'],['d'],Y,N,None,Y,,,,,,,f,19,
38,7,425,0,0,9,['k'],['k'],Y,Y,['space'],Y,,,,,,,f,19,
38,8,426,0,0,9,['k'],['k'],Y,N,None,Y,,,,,,,f,19,
38,9,427,5,5,9,['k'],['k'],Y,N,None,Y,,,,,,,f,19,
38,10,428,0,0,9,['d'],['d'],Y,Y,['space'],Y,,,,,,,f,19,
39,0,429,6,6,9,['d'],['d'],Y,Y,None,N,,,,,,,f,19,
39,1,430,0,0,9,['k'],['d'],N,Y,['space'],Y,,,,,,,f,19,
39,2,431,10,10,9,['d'],['d'],Y,Y,['space'],Y,,,,,,,f,19,
39,3,432,4,4,9,['k'],['k'],Y,N,None,Y,,,,,,,f,19,
39,4,433,2,2,9,['d'],['d'],Y,Y,None,N,,,,,,,f,19,
39,5,434,10,10,9,['d'],['d'],Y,Y,['space'],Y,,,,,,,f,19,
39,6,435,4,4,9,['d'],['d'],Y,N,None,Y,,,,,,,f,19,
39,7,436,10,10,9,['d'],['d'],Y,N,None,Y,,,,,,,f,19,
39,8,437,7,7,9,['k'],['d'],N,N,None,Y,,,,,,,f,19,
39,9,438,5,5,9,['k'],['k'],Y,Y,['space'],Y,,,,,,,f,19,
39,10,439,1,1,9,['d'],['d'],Y,Y,None,N,,,,,,,f,19,
40,0,440,10,10,9,['d'],['d'],Y,N,None,Y,,,,,,,f,19,
40,1,441,6,6,9,['k'],['k'],Y,N,None,Y,,,,,,,f,19,
40,2,442,10,10,9,['k'],['k'],Y,Y,['space'],Y,,,,,,,f,19,
40,3,443,9,9,9,['k'],['k'],Y,N,None,Y,,,,,,,f,19,
40,4,444,1,1,9,['k'],['k'],Y,Y,None,N,,,,,,,f,19,
40,5,445,7,7,9,['k'],['k'],Y,N,None,Y,,,,,,,f,19,
40,6,446,4,4,9,['d'],['d'],Y,N,None,Y,,,,,,,f,19,
40,7,447,5,5,9,['k'],['d'],N,Y,None,N,,,,,,,f,19,
40,8,448,5,5,9,['k'],['k'],Y,N,None,Y,,,,,,,f,19,
40,9,449,3,3,9,['k'],['k'],Y,Y,['space'],Y,42,42,23,,,,f,19,
40,10,450,8,8,10,['k'],['k'],Y,,,,,,,,,,f,19,
41,0,451,3,3,10,['d'],['d'],Y,,,,,,,,,,f,19,
41,1,452,2,2,10,['k'],['k'],Y,N,None,Y,,,,,,,f,19,
41,2,453,0,0,10,['d'],['d'],Y,Y,['space'],Y,,,,,,,f,19,
41,3,454,0,0,10,['d'],['d'],Y,N,None,Y,,,,,,,f,19,
41,4,455,10,10,10,['d'],['d'],Y,N,None,Y,,,,,,,f,19,
41,5,456,0,0,10,['k'],['k'],Y,Y,['space'],Y,,,,,,,f,19,
41,6,457,1,1,10,['d'],['d'],Y,N,None,Y,,,,,,,f,19,
41,7,458,4,4,10,['d'],['d'],Y,N,None,Y,,,,,,,f,19,
41,8,459,6,6,10,['d'],['d'],Y,Y,['space'],Y,,,,,,,f,19,
41,9,460,6,6,10,['k'],['k'],Y,Y,['space'],Y,,,,,,,f,19,
41,10,461,5,5,10,['k'],['k'],Y,Y,['space'],Y,,,,,,,f,19,
42,0,462,7,7,10,['k'],['k'],Y,Y,['space'],Y,,,,,,,f,19,
42,1,463,2,2,10,['k'],['k'],Y,Y,['space'],Y,,,,,,,f,19,
42,2,464,4,4,10,['k'],['d'],N,Y,['space'],Y,,,,,,,f,19,
42,3,465,10,10,10,['k'],['d'],N,N,None,Y,,,,,,,f,19,
42,4,466,0,0,10,['d'],['d'],Y,N,None,Y,,,,,,,f,19,
42,5,467,8,8,10,['d'],['d'],Y,Y,['space'],Y,,,,,,,f,19,
42,6,468,3,3,10,['d'],['d'],Y,Y,None,N,,,,,,,f,19,
42,7,469,1,1,10,['k'],['k'],Y,Y,None,N,,,,,,,f,19,
42,8,470,10,10,10,['k'],['k'],Y,Y,['space'],Y,,,,,,,f,19,
42,9,471,4,4,10,['k'],['d'],N,Y,None,N,,,,,,,f,19,
42,10,472,2,2,10,['d'],['d'],Y,Y,None,N,,,,,,,f,19,
43,0,473,8,8,10,['d'],['d'],Y,N,None,Y,,,,,,,f,19,
43,1,474,1,1,10,['k'],['k'],Y,Y,['space'],Y,,,,,,,f,19,
43,2,475,3,3,10,['k'],['k'],Y,N,None,Y,,,,,,,f,19,
43,3,476,9,9,10,['d'],['d'],Y,N,None,Y,,,,,,,f,19,
43,4,477,2,2,10,['k'],['k'],Y,Y,['space'],Y,,,,,,,f,19,
43,5,478,0,0,10,['d'],['d'],Y,N,None,Y,,,,,,,f,19,
43,6,479,7,7,10,['k'],['k'],Y,N,None,Y,,,,,,,f,19,
43,7,480,7,7,10,['k'],['k'],Y,N,None,Y,,,,,,,f,19,
43,8,481,9,9,10,['k'],['k'],Y,Y,['space'],Y,,,,,,,f,19,
43,9,482,4,4,10,['k'],['k'],Y,N,None,Y,,,,,,,f,19,
43,10,483,4,4,10,['d'],['d'],Y,Y,['space'],Y,,,,,,,f,19,
44,0,484,0,0,10,['k'],['k'],Y,N,None,Y,,,,,,,f,19,
44,1,485,6,6,10,['d'],['d'],Y,N,None,Y,,,,,,,f,19,
44,2,486,1,1,10,['d'],['d'],Y,Y,['space'],Y,,,,,,,f,19,
44,3,487,2,2,10,['k'],['k'],Y,N,None,Y,,,,,,,f,19,
44,4,488,0,0,10,['d'],['d'],Y,N,None,Y,,,,,,,f,19,
44,5,489,5,5,10,['k'],['d'],N,N,None,Y,,,,,,,f,19,
44,6,490,2,2,10,['k'],['d'],N,N,None,Y,,,,,,,f,19,
44,7,491,4,4,10,['k'],['k'],Y,Y,['space'],Y,,,,,,,f,19,
44,8,492,3,3,10,['k'],['d'],N,Y,None,N,,,,,,,f,19,
44,9,493,1,1,10,['k'],['k'],Y,Y,['space'],Y,,,,,,,f,19,
44,10,494,10,10,10,['k'],['k'],Y,N,None,Y,,,,,,,f,19,
45,0,495,7,7,10,['d'],['d'],Y,Y,None,N,,,,,,,f,19,
45,1,496,1,1,10,['d'],['d'],Y,N,None,Y,,,,,,,f,19,
45,2,497,6,6,10,['k'],['k'],Y,N,None,Y,,,,,,,f,19,
45,3,498,8,8,10,['k'],['k'],Y,Y,['space'],Y,,,,,,,f,19,
45,4,499,8,8,10,['d'],['d'],Y,N,None,Y,44,42,24,,,,f,19,
45,5,500,5,5,11,['d'],['k'],Y,,,,,,,Y,Y,Y,f,19,
45,6,501,6,6,11,['k'],['d'],Y,,,,,,,,Y,Y,f,19,
45,7,502,4,4,11,['d'],['k'],Y,N,None,Y,,,,,Y,Y,f,19,
45,8,503,3,3,11,['d'],['k'],Y,Y,['space'],Y,,,,,Y,Y,f,19,
45,9,504,8,8,11,['k'],['d'],Y,N,None,Y,,,,,Y,Y,f,19,
45,10,505,6,6,11,['k'],['d'],Y,Y,['space'],Y,,,,,Y,Y,f,19,
46,0,506,10,10,11,['d'],['k'],Y,Y,['space'],Y,,,,,Y,Y,f,19,
46,1,507,7,7,11,['k'],['k'],N,N,None,Y,,,,,Y,Y,f,19,
46,2,508,1,1,11,['d'],['d'],N,Y,['space'],Y,,,,,Y,Y,f,19,
46,3,509,9,9,11,['k'],['d'],Y,N,None,Y,,,,,Y,Y,f,19,
46,4,510,8,8,11,['d'],['k'],Y,N,None,Y,,,,,Y,Y,f,19,
46,5,511,2,2,11,['k'],['d'],Y,N,None,Y,,,,,Y,Y,f,19,
46,6,512,5,5,11,['d'],['k'],Y,Y,['space'],Y,,,,,Y,Y,f,19,
46,7,513,5,5,11,['d'],['k'],Y,N,None,Y,,,,,Y,Y,f,19,
46,8,514,10,10,11,['d'],['k'],Y,Y,['space'],Y,,,,,Y,Y,f,19,
46,9,515,9,9,11,['k'],['d'],Y,Y,['space'],Y,,,,,Y,Y,f,19,
46,10,516,2,2,11,['d'],['d'],N,N,None,Y,,,,,Y,Y,f,19,
47,0,517,4,4,11,['k'],['d'],Y,Y,['space'],Y,,,,,Y,Y,f,19,
47,1,518,5,5,11,['d'],['k'],Y,N,['space'],N,,,,,Y,Y,f,19,
47,2,519,7,7,11,['d'],['d'],N,Y,['space'],Y,,,,,Y,Y,f,19,
47,3,520,0,0,11,['k'],['d'],Y,N,None,Y,,,,,Y,Y,f,19,
47,4,521,5,5,11,['d'],['d'],N,Y,['space'],Y,,,,,Y,Y,f,19,
47,5,522,3,3,11,['k'],['d'],Y,Y,['space'],Y,,,,,Y,Y,f,19,
47,6,523,6,6,11,['d'],['k'],Y,Y,['space'],Y,,,,,Y,Y,f,19,
47,7,524,4,4,11,['d'],['d'],N,N,None,Y,,,,,Y,Y,f,19,
47,8,525,2,2,11,['d'],['k'],Y,Y,None,N,,,,,Y,Y,f,19,
47,9,526,8,8,11,['k'],['d'],Y,Y,None,N,,,,,Y,Y,f,19,
47,10,527,4,4,11,['k'],['k'],N,N,['space'],N,,,,,Y,Y,f,19,
48,0,528,6,6,11,['k'],['d'],Y,Y,['space'],Y,,,,,Y,Y,f,19,
48,1,529,6,6,11,['k'],['k'],N,N,None,Y,,,,,Y,Y,f,19,
48,2,530,4,4,11,['d'],['k'],Y,Y,['space'],Y,,,,,Y,Y,f,19,
48,3,531,3,3,11,['d'],['d'],N,N,None,Y,,,,,Y,Y,f,19,
48,4,532,1,1,11,['d'],['d'],N,Y,['space'],Y,,,,,Y,Y,f,19,
48,5,533,4,4,11,['d'],['k'],Y,Y,None,N,,,,,Y,Y,f,19,
48,6,534,2,2,11,['k'],['d'],Y,N,None,Y,,,,,Y,Y,f,19,
48,7,535,10,10,11,['k'],['d'],Y,Y,['space'],Y,,,,,Y,Y,f,19,
48,8,536,2,2,11,['d'],['k'],Y,Y,['space'],Y,,,,,Y,Y,f,19,
48,9,537,7,7,11,['d'],['k'],Y,Y,['space'],Y,,,,,Y,Y,f,19,
48,10,538,0,0,11,['k'],['d'],Y,Y,['space'],Y,,,,,Y,Y,f,19,
49,0,539,10,10,11,['k'],['d'],Y,N,None,Y,,,,,Y,Y,f,19,
49,1,540,3,3,11,['k'],['k'],N,Y,['space'],Y,,,,,Y,Y,f,19,
49,2,541,1,1,11,['k'],['d'],Y,N,None,Y,,,,,Y,Y,f,19,
49,3,542,6,6,11,['d'],['k'],Y,Y,['space'],Y,,,,,Y,Y,f,19,
49,4,543,1,1,11,['k'],['d'],Y,Y,['space'],Y,,,,,Y,Y,f,19,
49,5,544,7,7,11,['k'],['d'],Y,N,None,Y,,,,,Y,Y,f,19,
49,6,545,9,9,11,['k'],['k'],N,N,None,Y,,,,,Y,Y,f,19,
49,7,546,10,10,11,['d'],['k'],Y,N,None,Y,,,,,Y,Y,f,19,
49,8,547,4,4,11,['k'],['d'],Y,N,None,Y,,,,,Y,Y,f,19,
49,9,548,8,8,11,['d'],['k'],Y,N,None,Y,,,,,Y,Y,f,19,
49,10,549,0,0,11,['d'],['d'],N,N,None,Y,37,43,25,,Y,Y,f,19,
50,0,550,6,6,12,['k'],['k'],N,,,,,,,,Y,Y,f,19,
50,1,551,9,9,12,['k'],['d'],Y,,,,,,,,Y,Y,f,19,
50,2,552,2,2,12,['k'],['d'],Y,N,['d'],N,,,,,Y,Y,f,19,
50,3,553,9,9,12,['d'],['d'],N,N,None,Y,,,,,Y,Y,f,19,
50,4,554,10,10,12,['k'],['d'],Y,N,None,Y,,,,,Y,Y,f,19,
50,5,555,6,6,12,['k'],['d'],Y,Y,['space'],Y,,,,,Y,Y,f,19,
50,6,556,5,5,12,['d'],['k'],Y,N,None,Y,,,,,Y,Y,f,19,
50,7,557,3,3,12,['k'],['k'],N,N,None,Y,,,,,Y,Y,f,19,
50,8,558,7,7,12,['k'],['d'],Y,Y,None,N,,,,,Y,Y,f,19,
50,9,559,8,8,12,['d'],['k'],Y,Y,None,N,,,,,Y,Y,f,19,
50,10,560,4,4,12,['k'],['d'],Y,N,None,Y,,,,,Y,Y,f,19,
51,0,561,8,8,12,['d'],['d'],N,N,None,Y,,,,,Y,Y,f,19,
51,1,562,10,10,12,['k'],['d'],Y,Y,['space'],Y,,,,,Y,Y,f,19,
51,2,563,6,6,12,['d'],['k'],Y,Y,['space'],Y,,,,,Y,Y,f,19,
51,3,564,4,4,12,['k'],['d'],Y,N,None,Y,,,,,Y,Y,f,19,
51,4,565,10,10,12,['k'],['d'],Y,N,None,Y,,,,,Y,Y,f,19,
51,5,566,10,10,12,['k'],['d'],Y,Y,['space'],Y,,,,,Y,Y,f,19,
51,6,567,7,7,12,['d'],['k'],Y,Y,['space'],Y,,,,,Y,Y,f,19,
51,7,568,5,5,12,['d'],['k'],Y,Y,['space'],Y,,,,,Y,Y,f,19,
51,8,569,7,7,12,['d'],['k'],Y,Y,None,N,,,,,Y,Y,f,19,
51,9,570,9,9,12,['k'],['d'],Y,N,None,Y,,,,,Y,Y,f,19,
51,10,571,2,2,12,['d'],['k'],Y,Y,['space'],Y,,,,,Y,Y,f,19,
52,0,572,10,10,12,['k'],['d'],Y,Y,None,N,,,,,Y,Y,f,19,
52,1,573,6,6,12,['d'],['k'],Y,N,None,Y,,,,,Y,Y,f,19,
52,2,574,0,0,12,['d'],['k'],Y,Y,['space'],Y,,,,,Y,Y,f,19,
52,3,575,9,9,12,['k'],['d'],Y,N,None,Y,,,,,Y,Y,f,19,
52,4,576,2,2,12,['k'],['d'],Y,Y,['space'],Y,,,,,Y,Y,f,19,
52,5,577,4,4,12,['d'],['k'],Y,Y,['space'],Y,,,,,Y,Y,f,19,
52,6,578,3,3,12,['k'],['d'],Y,N,None,Y,,,,,Y,Y,f,19,
52,7,579,10,10,12,['d'],['k'],Y,N,None,Y,,,,,Y,Y,f,19,
52,8,580,3,3,12,['k'],['d'],Y,Y,['space'],Y,,,,,Y,Y,f,19,
52,9,581,6,6,12,['d'],['k'],Y,N,None,Y,,,,,Y,Y,f,19,
52,10,582,1,1,12,['k'],['d'],Y,Y,['space'],Y,,,,,Y,Y,f,19,
53,0,583,5,5,12,['k'],['d'],Y,N,None,Y,,,,,Y,Y,f,19,
53,1,584,9,9,12,['k'],['d'],Y,Y,['space'],Y,,,,,Y,Y,f,19,
53,2,585,9,9,12,['d'],['k'],Y,N,None,Y,,,,,Y,Y,f,19,
53,3,586,10,10,12,['k'],['d'],Y,N,None,Y,,,,,Y,Y,f,19,
53,4,587,6,6,12,['d'],['d'],N,Y,['space'],Y,,,,,Y,Y,f,19,
53,5,588,6,6,12,['k'],['d'],Y,N,None,Y,,,,,Y,Y,f,19,
53,6,589,3,3,12,['d'],['k'],Y,Y,['space'],Y,,,,,Y,Y,f,19,
53,7,590,1,1,12,['k'],['d'],Y,N,None,Y,,,,,Y,Y,f,19,
53,8,591,9,9,12,['d'],['k'],Y,Y,['space'],Y,,,,,Y,Y,f,19,
53,9,592,3,3,12,['k'],['d'],Y,N,None,Y,,,,,Y,Y,f,19,
53,10,593,4,4,12,['k'],['d'],Y,N,None,Y,,,,,Y,Y,f,19,
54,0,594,5,5,12,['d'],['k'],Y,Y,None,N,,,,,Y,Y,f,19,
54,1,595,5,5,12,['k'],['d'],Y,Y,['space'],Y,,,,,Y,Y,f,19,
54,2,596,10,10,12,['k'],['d'],Y,Y,['space'],Y,,,,,Y,Y,f,19,
54,3,597,7,7,12,['k'],['d'],Y,Y,['space'],Y,,,,,Y,Y,f,19,
54,4,598,4,4,12,['d'],['k'],Y,Y,None,N,,,,,Y,Y,f,19,
54,5,599,8,8,12,['k'],['d'],Y,N,None,Y,45,41,25,,Y,Y,f,19,
