.thisRepN,.thisTrialN,.thisN,.thisIndex,.thisTrial,Block Number,Key pressed,Category,Correct?,Int Match?,Int Response,Int Correct?,Line Accuracy,Interference Accuracy,Matching Interferences,New instruction shown?,Buttons switched?,Fast?,gender,age,
0,0,0,5,5,1,['k'],['d'],N,,,,,,,,,,Male,18,
0,1,1,14,14,1,['d'],['k'],N,,,,,,,,,,Male,18,
0,2,2,1,1,1,['k'],['k'],Y,N,None,Y,,,,,,,Male,18,
0,3,3,11,11,1,['d'],['k'],N,Y,None,N,,,,,,,Male,18,
0,4,4,2,2,1,['d'],['d'],Y,N,None,Y,,,,,,,Male,18,
0,5,5,1,1,1,['d'],['k'],N,Y,['space'],Y,,,,,,,Male,18,
0,6,6,9,9,1,['d'],['d'],Y,N,None,Y,,,,,,,Male,18,
0,7,7,8,8,1,['k'],['k'],Y,N,None,Y,,,,,,,Male,18,
0,8,8,11,11,1,['k'],['k'],Y,N,None,Y,,,,,,,Male,18,
0,9,9,2,2,1,['d'],['d'],Y,Y,['space'],Y,,,,,,,Male,18,
0,10,10,6,6,1,['d'],['d'],Y,N,None,Y,,,,,,,Male,18,
0,11,11,10,10,1,['k'],['k'],Y,N,['space'],N,,,,,,,Male,18,
0,12,12,5,5,1,['d'],['d'],Y,Y,['k'],N,,,,,,,Male,18,
0,13,13,10,10,1,['d'],['d'],Y,N,['space'],N,,,,,,,Male,18,
0,14,14,7,7,1,['d'],['d'],Y,Y,['space'],Y,,,,,,,Male,18,
1,0,15,8,8,1,['k'],['d'],N,Y,None,N,,,,,,,Male,18,
1,1,16,12,12,1,['d'],['d'],Y,Y,['space'],Y,,,,,,,Male,18,
1,2,17,1,1,1,['d'],['d'],Y,Y,None,N,,,,,,,Male,18,
1,3,18,12,12,1,['d'],['d'],Y,Y,['space'],Y,,,,,,,Male,18,
1,4,19,7,7,1,['k'],['k'],Y,N,None,Y,,,,,,,Male,18,
1,5,20,1,1,1,['d'],['d'],Y,Y,['space'],Y,,,,,,,Male,18,
1,6,21,3,3,1,['d'],['d'],Y,Y,['space'],Y,,,,,,,Male,18,
1,7,22,3,3,1,['k'],['k'],Y,N,None,Y,,,,,,,Male,18,
1,8,23,14,14,1,['k'],['k'],Y,Y,['space'],Y,,,,,,,Male,18,
1,9,24,5,5,1,['k'],['k'],Y,Y,['space'],Y,,,,,,,Male,18,
1,10,25,9,9,1,['d'],['k'],N,N,None,Y,,,,,,,Male,18,
1,11,26,11,11,1,['d'],['d'],Y,N,None,Y,,,,,,,Male,18,
1,12,27,11,11,1,['d'],['d'],Y,N,['space'],N,,,,,,,Male,18,
1,13,28,10,10,1,['k'],['k'],Y,Y,None,N,,,,,,,Male,18,
1,14,29,3,3,1,['k'],['k'],Y,Y,['space'],Y,,,,,,,Male,18,
2,0,30,7,7,1,['d'],['k'],N,Y,None,N,,,,,,,Male,18,
2,1,31,0,0,1,['d'],['d'],Y,Y,None,N,,,,,,,Male,18,
2,2,32,12,12,1,['d'],['d'],Y,N,None,Y,,,,,,,Male,18,
2,3,33,2,2,1,['k'],['k'],Y,N,None,Y,,,,,,,Male,18,
2,4,34,9,9,1,['k'],['k'],Y,Y,['space'],Y,,,,,,,Male,18,
2,5,35,4,4,1,['k'],['k'],Y,N,None,Y,,,,,,,Male,18,
2,6,36,7,7,1,['d'],['d'],Y,Y,['space'],Y,,,,,,,Male,18,
2,7,37,5,5,1,['d'],['d'],Y,N,None,Y,,,,,,,Male,18,
2,8,38,11,11,1,['d'],['k'],N,N,None,Y,,,,,,,Male,18,
2,9,39,0,0,1,['d'],['d'],Y,Y,['space'],Y,,,,,,,Male,18,
2,10,40,6,6,1,['k'],['k'],Y,N,None,Y,,,,,,,Male,18,
2,11,41,14,14,1,['k'],['k'],Y,N,None,Y,,,,,,,Male,18,
2,12,42,14,14,1,['k'],['k'],Y,Y,None,N,,,,,,,Male,18,
2,13,43,2,2,1,['k'],['k'],Y,Y,None,N,,,,,,,Male,18,
2,14,44,14,14,1,['d'],['d'],Y,Y,['space'],Y,,,,,,,Male,18,
3,0,45,0,0,1,['k'],['k'],Y,Y,['space'],Y,,,,,,,Male,18,
3,1,46,5,5,1,['k'],['d'],N,N,['space'],N,,,,,,,Male,18,
3,2,47,2,2,1,['k'],['d'],N,Y,None,N,,,,,,,Male,18,
3,3,48,9,9,1,['d'],['k'],N,N,None,Y,,,,,,,Male,18,
3,4,49,4,4,1,['k'],['k'],Y,N,None,Y,39,34,25,,,,Male,18,
3,5,50,13,13,2,['k'],['k'],Y,,,,,,,,,,Male,18,
3,6,51,2,2,2,['k'],['k'],Y,,,,,,,,,,Male,18,
3,7,52,6,6,2,['k'],['k'],Y,Y,['space'],Y,,,,,,,Male,18,
3,8,53,1,1,2,['k'],['k'],Y,Y,['space'],Y,,,,,,,Male,18,
3,9,54,1,1,2,['d'],['d'],Y,N,None,Y,,,,,,,Male,18,
3,10,55,13,13,2,['k'],['k'],Y,N,['space'],N,,,,,,,Male,18,
3,11,56,3,3,2,['k'],['k'],Y,Y,['space'],Y,,,,,,,Male,18,
3,12,57,14,14,2,['d'],['k'],N,Y,['space'],Y,,,,,,,Male,18,
3,13,58,3,3,2,['d'],['d'],Y,Y,None,N,,,,,,,Male,18,
3,14,59,7,7,2,['k'],['k'],Y,Y,['space'],Y,,,,,,,Male,18,
4,0,60,1,1,2,['d'],['d'],Y,Y,None,N,,,,,,,Male,18,
4,1,61,9,9,2,['k'],['k'],Y,Y,['space'],Y,,,,,,,Male,18,
4,2,62,9,9,2,['d'],['d'],Y,N,None,Y,,,,,,,Male,18,
4,3,63,3,3,2,['k'],['k'],Y,Y,['space'],Y,,,,,,,Male,18,
4,4,64,0,0,2,['k'],['k'],Y,N,None,Y,,,,,,,Male,18,
4,5,65,6,6,2,['k'],['k'],Y,Y,['space'],Y,,,,,,,Male,18,
4,6,66,6,6,2,['k'],['k'],Y,Y,None,N,,,,,,,Male,18,
4,7,67,11,11,2,['k'],['k'],Y,Y,['space'],Y,,,,,,,Male,18,
4,8,68,8,8,2,['k'],['k'],Y,Y,['space'],Y,,,,,,,Male,18,
4,9,69,1,1,2,['k'],['d'],N,Y,['space'],Y,,,,,,,Male,18,
4,10,70,0,0,2,['d'],['d'],Y,Y,['space'],Y,,,,,,,Male,18,
4,11,71,6,6,2,['k'],['k'],Y,N,None,Y,,,,,,,Male,18,
4,12,72,13,13,2,['d'],['d'],Y,Y,['space'],Y,,,,,,,Male,18,
4,13,73,1,1,2,['d'],['d'],Y,Y,None,N,,,,,,,Male,18,
4,14,74,11,11,2,['k'],['k'],Y,N,None,Y,,,,,,,Male,18,
5,0,75,8,8,2,['k'],['k'],Y,Y,['k'],N,,,,,,,Male,18,
5,1,76,1,1,2,['k'],['k'],Y,N,None,Y,,,,,,,Male,18,
5,2,77,1,1,2,['d'],['d'],Y,N,['space'],N,,,,,,,Male,18,
5,3,78,6,6,2,['k'],['k'],Y,Y,['space'],Y,,,,,,,Male,18,
5,4,79,1,1,2,['d'],['d'],Y,Y,None,N,,,,,,,Male,18,
5,5,80,3,3,2,['k'],['k'],Y,N,None,Y,,,,,,,Male,18,
5,6,81,4,4,2,['d'],['d'],Y,Y,['space'],Y,,,,,,,Male,18,
5,7,82,6,6,2,['d'],['d'],Y,Y,['space'],Y,,,,,,,Male,18,
5,8,83,14,14,2,['d'],['d'],Y,N,None,Y,,,,,,,Male,18,
5,9,84,6,6,2,['k'],['d'],N,Y,['space'],Y,,,,,,,Male,18,
5,10,85,3,3,2,['k'],['k'],Y,Y,['space'],Y,,,,,,,Male,18,
5,11,86,2,2,2,['k'],['d'],N,Y,['space'],Y,,,,,,,Male,18,
5,12,87,13,13,2,['d'],['d'],Y,N,None,Y,,,,,,,Male,18,
5,13,88,1,1,2,['d'],['d'],Y,N,['space'],N,,,,,,,Male,18,
5,14,89,7,7,2,['k'],['k'],Y,N,None,Y,,,,,,,Male,18,
6,0,90,4,4,2,['k'],['k'],Y,N,None,Y,,,,,,,Male,18,
6,1,91,12,12,2,['k'],['k'],Y,N,None,Y,,,,,,,Male,18,
6,2,92,13,13,2,['k'],['k'],Y,N,None,Y,,,,,,,Male,18,
6,3,93,12,12,2,['d'],['d'],Y,N,['space'],N,,,,,,,Male,18,
6,4,94,2,2,2,['d'],['k'],N,N,None,Y,,,,,,,Male,18,
6,5,95,8,8,2,['k'],['k'],Y,N,None,Y,,,,,,,Male,18,
6,6,96,13,13,2,['k'],['k'],Y,N,None,Y,,,,,,,Male,18,
6,7,97,0,0,2,['d'],['d'],Y,N,None,Y,,,,,,,Male,18,
6,8,98,7,7,2,['k'],['d'],N,N,None,Y,,,,,,,Male,18,
6,9,99,2,2,2,['d'],['d'],Y,N,None,Y,44,38,25,,,,Male,18,
6,10,100,3,3,3,['d'],['d'],Y,,,,,,,,,,Male,18,
6,11,101,13,13,3,['d'],['k'],N,,,,,,,,,,Male,18,
6,12,102,1,1,3,['k'],['k'],Y,N,None,Y,,,,,,,Male,18,
6,13,103,11,11,3,['d'],['d'],Y,N,None,Y,,,,,,,Male,18,
6,14,104,11,11,3,['k'],['k'],Y,Y,['space'],Y,,,,,,,Male,18,
7,0,105,5,5,3,['k'],['k'],Y,Y,['space'],Y,,,,,,,Male,18,
7,1,106,10,10,3,['d'],['d'],Y,Y,['space'],Y,,,,,,,Male,18,
7,2,107,2,2,3,['d'],['d'],Y,Y,['space'],Y,,,,,,,Male,18,
7,3,108,10,10,3,['d'],['d'],Y,Y,['space'],Y,,,,,,,Male,18,
7,4,109,13,13,3,['k'],['k'],Y,Y,['space'],Y,,,,,,,Male,18,
7,5,110,12,12,3,['d'],['d'],Y,N,None,Y,,,,,,,Male,18,
7,6,111,1,1,3,['k'],['k'],Y,Y,['space'],Y,,,,,,,Male,18,
7,7,112,13,13,3,['d'],['d'],Y,Y,['space'],Y,,,,,,,Male,18,
7,8,113,5,5,3,['d'],['d'],Y,N,None,Y,,,,,,,Male,18,
7,9,114,0,0,3,['k'],['d'],N,N,None,Y,,,,,,,Male,18,
7,10,115,14,14,3,['k'],['k'],Y,Y,['space'],Y,,,,,,,Male,18,
7,11,116,13,13,3,['d'],['d'],Y,N,None,Y,,,,,,,Male,18,
7,12,117,11,11,3,['k'],['d'],N,Y,['space'],Y,,,,,,,Male,18,
7,13,118,3,3,3,['d'],['k'],N,N,None,Y,,,,,,,Male,18,
7,14,119,14,14,3,['d'],['d'],Y,N,None,Y,,,,,,,Male,18,
8,0,120,0,0,3,['k'],['d'],N,Y,['space'],Y,,,,,,,Male,18,
8,1,121,7,7,3,['d'],['d'],Y,Y,['space'],Y,,,,,,,Male,18,
8,2,122,3,3,3,['k'],['k'],Y,N,None,Y,,,,,,,Male,18,
8,3,123,0,0,3,['d'],['d'],Y,Y,['space'],Y,,,,,,,Male,18,
8,4,124,9,9,3,['k'],['k'],Y,Y,['space'],Y,,,,,,,Male,18,
8,5,125,6,6,3,['k'],['k'],Y,N,None,Y,,,,,,,Male,18,
8,6,126,14,14,3,['k'],['k'],Y,N,['space'],N,,,,,,,Male,18,
8,7,127,12,12,3,['k'],['k'],Y,Y,['space'],Y,,,,,,,Male,18,
8,8,128,8,8,3,['d'],['k'],N,Y,['space'],Y,,,,,,,Male,18,
8,9,129,13,13,3,['d'],['d'],Y,N,None,Y,,,,,,,Male,18,
8,10,130,8,8,3,['d'],['d'],Y,N,None,Y,,,,,,,Male,18,
8,11,131,2,2,3,['d'],['d'],Y,N,None,Y,,,,,,,Male,18,
8,12,132,2,2,3,['d'],['d'],Y,N,None,Y,,,,,,,Male,18,
8,13,133,3,3,3,['k'],['k'],Y,Y,['space'],Y,,,,,,,Male,18,
8,14,134,13,13,3,['k'],['d'],N,N,None,Y,,,,,,,Male,18,
9,0,135,1,1,3,['k'],['k'],Y,N,None,Y,,,,,,,Male,18,
9,1,136,4,4,3,['k'],['k'],Y,N,None,Y,,,,,,,Male,18,
9,2,137,1,1,3,['k'],['d'],N,Y,['space'],Y,,,,,,,Male,18,
9,3,138,12,12,3,['d'],['d'],Y,N,None,Y,,,,,,,Male,18,
9,4,139,2,2,3,['d'],['d'],Y,N,None,Y,,,,,,,Male,18,
9,5,140,4,4,3,['k'],['k'],Y,Y,None,N,,,,,,,Male,18,
9,6,141,8,8,3,['d'],['d'],Y,Y,['space'],Y,,,,,,,Male,18,
9,7,142,14,14,3,['k'],['d'],N,Y,['space'],Y,,,,,,,Male,18,
9,8,143,8,8,3,['k'],['k'],Y,Y,['space'],Y,,,,,,,Male,18,
9,9,144,10,10,3,['d'],['d'],Y,Y,['space'],Y,,,,,,,Male,18,
9,10,145,2,2,3,['k'],['k'],Y,Y,['space'],Y,,,,,,,Male,18,
9,11,146,6,6,3,['k'],['k'],Y,Y,['space'],Y,,,,,,,Male,18,
9,12,147,11,11,3,['k'],['k'],Y,N,None,Y,,,,,,,Male,18,
9,13,148,10,10,3,['k'],['k'],Y,N,None,Y,,,,,,,Male,18,
9,14,149,0,0,3,['d'],['d'],Y,N,None,Y,41,46,25,,,,Male,18,
10,0,150,2,2,4,['d'],['d'],Y,,,,,,,,,,Male,18,
10,1,151,7,7,4,['d'],['d'],Y,,,,,,,,,,Male,18,
10,2,152,11,11,4,['k'],['k'],Y,Y,['space'],Y,,,,,,,Male,18,
10,3,153,8,8,4,['d'],['d'],Y,N,None,Y,,,,,,,Male,18,
10,4,154,4,4,4,['d'],['k'],N,Y,['space'],Y,,,,,,,Male,18,
10,5,155,14,14,4,['d'],['d'],Y,N,None,Y,,,,,,,Male,18,
10,6,156,6,6,4,['d'],['k'],N,Y,None,N,,,,,,,Male,18,
10,7,157,3,3,4,['k'],['k'],Y,Y,['space'],Y,,,,,,,Male,18,
10,8,158,12,12,4,['k'],['k'],Y,N,None,Y,,,,,,,Male,18,
10,9,159,5,5,4,['k'],['k'],Y,Y,['space'],Y,,,,,,,Male,18,
10,10,160,13,13,4,['k'],['k'],Y,Y,['space'],Y,,,,,,,Male,18,
10,11,161,8,8,4,['k'],['d'],N,N,None,Y,,,,,,,Male,18,
10,12,162,1,1,4,['k'],['k'],Y,N,None,Y,,,,,,,Male,18,
10,13,163,4,4,4,['d'],['d'],Y,N,None,Y,,,,,,,Male,18,
10,14,164,0,0,4,['d'],['d'],Y,Y,['space'],Y,,,,,,,Male,18,
11,0,165,4,4,4,['d'],['d'],Y,N,None,Y,,,,,,,Male,18,
11,1,166,1,1,4,['k'],['k'],Y,N,None,Y,,,,,,,Male,18,
11,2,167,5,5,4,['d'],['d'],Y,Y,['space'],Y,,,,,,,Male,18,
11,3,168,5,5,4,['d'],['d'],Y,N,None,Y,,,,,,,Male,18,
11,4,169,1,1,4,['k'],['d'],N,N,['space'],N,,,,,,,Male,18,
11,5,170,11,11,4,['d'],['d'],Y,Y,None,N,,,,,,,Male,18,
11,6,171,4,4,4,['k'],['k'],Y,Y,['space'],Y,,,,,,,Male,18,
11,7,172,14,14,4,['d'],['k'],N,Y,['space'],Y,,,,,,,Male,18,
11,8,173,13,13,4,['d'],['k'],N,Y,['space'],Y,,,,,,,Male,18,
11,9,174,11,11,4,['k'],['k'],Y,Y,['space'],Y,,,,,,,Male,18,
11,10,175,9,9,4,['k'],['d'],N,N,None,Y,,,,,,,Male,18,
11,11,176,14,14,4,['d'],['d'],Y,Y,None,N,,,,,,,Male,18,
11,12,177,11,11,4,['k'],['k'],Y,N,None,Y,,,,,,,Male,18,
11,13,178,9,9,4,['k'],['k'],Y,Y,['space'],Y,,,,,,,Male,18,
11,14,179,13,13,4,['d'],['d'],Y,N,None,Y,,,,,,,Male,18,
12,0,180,4,4,4,['k'],['k'],Y,N,None,Y,,,,,,,Male,18,
12,1,181,3,3,4,['d'],['d'],Y,N,None,Y,,,,,,,Male,18,
12,2,182,3,3,4,['k'],['d'],N,Y,['space'],Y,,,,,,,Male,18,
12,3,183,9,9,4,['d'],['k'],N,N,None,Y,,,,,,,Male,18,
12,4,184,8,8,4,['d'],['d'],Y,N,None,Y,,,,,,,Male,18,
12,5,185,8,8,4,['k'],['k'],Y,Y,None,N,,,,,,,Male,18,
12,6,186,8,8,4,['k'],['k'],Y,N,None,Y,,,,,,,Male,18,
12,7,187,9,9,4,['k'],['d'],N,Y,None,N,,,,,,,Male,18,
12,8,188,2,2,4,['k'],['k'],Y,N,None,Y,,,,,,,Male,18,
12,9,189,2,2,4,['k'],['d'],N,Y,None,N,,,,,,,Male,18,
12,10,190,14,14,4,['d'],['k'],N,N,None,Y,,,,,,,Male,18,
12,11,191,5,5,4,['k'],['k'],Y,N,None,Y,,,,,,,Male,18,
12,12,192,7,7,4,['d'],['d'],Y,Y,None,N,,,,,,,Male,18,
12,13,193,10,10,4,['d'],['d'],Y,N,None,Y,,,,,,,Male,18,
12,14,194,9,9,4,['d'],['d'],Y,N,None,Y,,,,,,,Male,18,
13,0,195,2,2,4,['k'],['k'],Y,N,None,Y,,,,,,,Male,18,
13,1,196,9,9,4,['d'],['k'],N,N,['space'],N,,,,,,,Male,18,
13,2,197,5,5,4,['k'],['d'],N,Y,['space'],Y,,,,,,,Male,18,
13,3,198,1,1,4,['d'],['d'],Y,Y,None,N,,,,,,,Male,18,
13,4,199,3,3,4,['k'],['k'],Y,N,None,Y,36,38,22,,,,Male,18,
13,5,200,11,11,5,['d'],['d'],Y,,,,,,,,,,Male,18,
13,6,201,14,14,5,['k'],['d'],N,,,,,,,,,,Male,18,
13,7,202,10,10,5,['d'],['d'],Y,N,None,Y,,,,,,,Male,18,
13,8,203,7,7,5,['k'],['k'],Y,Y,None,N,,,,,,,Male,18,
13,9,204,13,13,5,['k'],['k'],Y,N,None,Y,,,,,,,Male,18,
13,10,205,2,2,5,['d'],['d'],Y,Y,['space'],Y,,,,,,,Male,18,
13,11,206,0,0,5,['d'],['k'],N,Y,['space'],Y,,,,,,,Male,18,
13,12,207,11,11,5,['d'],['d'],Y,Y,['space'],Y,,,,,,,Male,18,
13,13,208,0,0,5,['k'],['d'],N,Y,['space'],Y,,,,,,,Male,18,
13,14,209,13,13,5,['k'],['d'],N,N,None,Y,,,,,,,Male,18,
14,0,210,7,7,5,['d'],['d'],Y,N,None,Y,,,,,,,Male,18,
14,1,211,14,14,5,['k'],['k'],Y,N,None,Y,,,,,,,Male,18,
14,2,212,12,12,5,['d'],['d'],Y,N,None,Y,,,,,,,Male,18,
14,3,213,12,12,5,['k'],['k'],Y,N,None,Y,,,,,,,Male,18,
14,4,214,4,4,5,['k'],['d'],N,Y,['space'],Y,,,,,,,Male,18,
14,5,215,14,14,5,['k'],['k'],Y,N,None,Y,,,,,,,Male,18,
14,6,216,6,6,5,['k'],['d'],N,N,None,Y,,,,,,,Male,18,
14,7,217,0,0,5,['d'],['k'],N,N,None,Y,,,,,,,Male,18,
14,8,218,14,14,5,['k'],['k'],Y,Y,['space'],Y,,,,,,,Male,18,
14,9,219,12,12,5,['k'],['k'],Y,Y,['space'],Y,,,,,,,Male,18,
14,10,220,13,13,5,['k'],['k'],Y,Y,['space'],Y,,,,,,,Male,18,
14,11,221,7,7,5,['d'],['k'],N,N,None,Y,,,,,,,Male,18,
14,12,222,6,6,5,['k'],['k'],Y,Y,['space'],Y,,,,,,,Male,18,
14,13,223,1,1,5,['k'],['d'],N,N,None,Y,,,,,,,Male,18,
14,14,224,1,1,5,['d'],['d'],Y,N,None,Y,,,,,,,Male,18,
15,0,225,1,1,5,['d'],['d'],Y,N,None,Y,,,,,,,Male,18,
15,1,226,4,4,5,['k'],['k'],Y,N,None,Y,,,,,,,Male,18,
15,2,227,14,14,5,['k'],['k'],Y,N,['space'],N,,,,,,,Male,18,
15,3,228,7,7,5,['k'],['k'],Y,Y,['k'],N,,,,,,,Male,18,
15,4,229,4,4,5,['d'],['k'],N,Y,['d'],N,,,,,,,Male,18,
15,5,230,5,5,5,['k'],['k'],Y,N,None,Y,,,,,,,Male,18,
15,6,231,8,8,5,['k'],['k'],Y,Y,None,N,,,,,,,Male,18,
15,7,232,8,8,5,['d'],['k'],N,N,None,Y,,,,,,,Male,18,
15,8,233,10,10,5,['d'],['d'],Y,Y,['space'],Y,,,,,,,Male,18,
15,9,234,8,8,5,['d'],['d'],Y,N,None,Y,,,,,,,Male,18,
15,10,235,10,10,5,['k'],['k'],Y,N,['space'],N,,,,,,,Male,18,
15,11,236,11,11,5,['k'],['d'],N,Y,['space'],Y,,,,,,,Male,18,
15,12,237,7,7,5,['d'],['k'],N,Y,['space'],Y,,,,,,,Male,18,
15,13,238,7,7,5,['k'],['k'],Y,Y,['space'],Y,,,,,,,Male,18,
15,14,239,0,0,5,['k'],['k'],Y,Y,['space'],Y,,,,,,,Male,18,
16,0,240,5,5,5,['d'],['d'],Y,Y,['space'],Y,,,,,,,Male,18,
16,1,241,9,9,5,['d'],['k'],N,Y,['space'],Y,,,,,,,Male,18,
16,2,242,10,10,5,['k'],['k'],Y,N,None,Y,,,,,,,Male,18,
16,3,243,14,14,5,['d'],['d'],Y,Y,None,N,,,,,,,Male,18,
16,4,244,1,1,5,['k'],['k'],Y,N,None,Y,,,,,,,Male,18,
16,5,245,0,0,5,['k'],['d'],N,Y,['space'],Y,,,,,,,Male,18,
16,6,246,7,7,5,['d'],['d'],Y,Y,None,N,,,,,,,Male,18,
16,7,247,8,8,5,['d'],['d'],Y,Y,['space'],Y,,,,,,,Male,18,
16,8,248,3,3,5,['k'],['k'],Y,N,None,Y,,,,,,,Male,18,
16,9,249,4,4,5,['k'],['k'],Y,Y,['space'],Y,35,40,25,,,,Male,18,
16,10,250,10,10,6,['k'],['k'],Y,,,,,,,,,,Male,18,
16,11,251,0,0,6,['k'],['d'],N,,,,,,,,,,Male,18,
16,12,252,5,5,6,['d'],['d'],Y,Y,['space'],Y,,,,,,,Male,18,
16,13,253,5,5,6,['k'],['k'],Y,Y,['space'],Y,,,,,,,Male,18,
16,14,254,7,7,6,['k'],['k'],Y,Y,['space'],Y,,,,,,,Male,18,
17,0,255,12,12,6,['k'],['k'],Y,Y,['space'],Y,,,,,,,Male,18,
17,1,256,8,8,6,['k'],['d'],N,N,None,Y,,,,,,,Male,18,
17,2,257,5,5,6,['k'],['d'],N,N,None,Y,,,,,,,Male,18,
17,3,258,0,0,6,['d'],['k'],N,Y,['space'],Y,,,,,,,Male,18,
17,4,259,13,13,6,['k'],['d'],N,N,['space'],N,,,,,,,Male,18,
17,5,260,13,13,6,['d'],['d'],Y,N,['space'],N,,,,,,,Male,18,
17,6,261,2,2,6,['d'],['d'],Y,Y,['space'],Y,,,,,,,Male,18,
17,7,262,2,2,6,['k'],['k'],Y,N,None,Y,,,,,,,Male,18,
17,8,263,6,6,6,['d'],['d'],Y,Y,['space'],Y,,,,,,,Male,18,
17,9,264,7,7,6,['d'],['k'],N,N,None,Y,,,,,,,Male,18,
17,10,265,2,2,6,['d'],['d'],Y,Y,['space'],Y,,,,,,,Male,18,
17,11,266,8,8,6,['d'],['d'],Y,Y,None,N,,,,,,,Male,18,
17,12,267,10,10,6,['d'],['d'],Y,N,None,Y,,,,,,,Male,18,
17,13,268,14,14,6,['d'],['k'],N,N,None,Y,,,,,,,Male,18,
17,14,269,9,9,6,['k'],['k'],Y,N,['space'],N,,,,,,,Male,18,
18,0,270,12,12,6,['k'],['k'],Y,N,None,Y,,,,,,,Male,18,
18,1,271,12,12,6,['k'],['k'],Y,N,None,Y,,,,,,,Male,18,
18,2,272,0,0,6,['k'],['k'],Y,N,['space'],N,,,,,,,Male,18,
18,3,273,7,7,6,['d'],['d'],Y,N,['space'],N,,,,,,,Male,18,
18,4,274,6,6,6,['d'],['d'],Y,N,None,Y,,,,,,,Male,18,
18,5,275,0,0,6,['k'],['k'],Y,Y,['space'],Y,,,,,,,Male,18,
18,6,276,9,9,6,['k'],['k'],Y,N,None,Y,,,,,,,Male,18,
18,7,277,4,4,6,['d'],['d'],Y,Y,['space'],Y,,,,,,,Male,18,
18,8,278,3,3,6,['d'],['k'],N,N,None,Y,,,,,,,Male,18,
18,9,279,10,10,6,['d'],['d'],Y,Y,['space'],Y,,,,,,,Male,18,
18,10,280,8,8,6,['k'],['k'],Y,Y,['space'],Y,,,,,,,Male,18,
18,11,281,0,0,6,['k'],['k'],Y,Y,['space'],Y,,,,,,,Male,18,
18,12,282,6,6,6,['d'],['d'],Y,Y,['space'],Y,,,,,,,Male,18,
18,13,283,1,1,6,['k'],['k'],Y,Y,None,N,,,,,,,Male,18,
18,14,284,5,5,6,['k'],['k'],Y,Y,['space'],Y,,,,,,,Male,18,
19,0,285,4,4,6,['k'],['d'],N,N,['space'],N,,,,,,,Male,18,
19,1,286,3,3,6,['k'],['d'],N,N,None,Y,,,,,,,Male,18,
19,2,287,11,11,6,['d'],['d'],Y,Y,['space'],Y,,,,,,,Male,18,
19,3,288,0,0,6,['d'],['k'],N,Y,['space'],Y,,,,,,,Male,18,
19,4,289,5,5,6,['d'],['d'],Y,N,None,Y,,,,,,,Male,18,
19,5,290,9,9,6,['k'],['k'],Y,N,None,Y,,,,,,,Male,18,
19,6,291,9,9,6,['k'],['k'],Y,Y,None,N,,,,,,,Male,18,
19,7,292,2,2,6,['d'],['d'],Y,Y,None,N,,,,,,,Male,18,
19,8,293,14,14,6,['k'],['k'],Y,Y,None,N,,,,,,,Male,18,
19,9,294,11,11,6,['k'],['k'],Y,Y,['space'],Y,,,,,,,Male,18,
19,10,295,6,6,6,['d'],['d'],Y,N,None,Y,,,,,,,Male,18,
19,11,296,4,4,6,['d'],['d'],Y,Y,['space'],Y,,,,,,,Male,18,
19,12,297,1,1,6,['k'],['k'],Y,Y,['space'],Y,,,,,,,Male,18,
19,13,298,11,11,6,['d'],['d'],Y,N,None,Y,,,,,,,Male,18,
19,14,299,8,8,6,['d'],['d'],Y,N,None,Y,39,37,25,,,,Male,18,
20,0,300,10,10,7,['d'],['d'],Y,,,,,,,,,,Male,18,
20,1,301,1,1,7,['k'],['k'],Y,,,,,,,,,,Male,18,
20,2,302,12,12,7,['d'],['d'],Y,N,None,Y,,,,,,,Male,18,
20,3,303,7,7,7,['d'],['k'],N,Y,['space'],Y,,,,,,,Male,18,
20,4,304,6,6,7,['k'],['k'],Y,N,None,Y,,,,,,,Male,18,
20,5,305,14,14,7,['d'],['d'],Y,N,None,Y,,,,,,,Male,18,
20,6,306,0,0,7,['d'],['d'],Y,N,None,Y,,,,,,,Male,18,
20,7,307,3,3,7,['k'],['d'],N,N,None,Y,,,,,,,Male,18,
20,8,308,6,6,7,['k'],['k'],Y,N,None,Y,,,,,,,Male,18,
20,9,309,9,9,7,['d'],['d'],Y,Y,None,N,,,,,,,Male,18,
20,10,310,12,12,7,['d'],['d'],Y,N,None,Y,,,,,,,Male,18,
20,11,311,4,4,7,['d'],['d'],Y,N,None,Y,,,,,,,Male,18,
20,12,312,3,3,7,['k'],['k'],Y,Y,['space'],Y,,,,,,,Male,18,
20,13,313,9,9,7,['d'],['d'],Y,Y,['space'],Y,,,,,,,Male,18,
20,14,314,7,7,7,['d'],['d'],Y,Y,['space'],Y,,,,,,,Male,18,
21,0,315,12,12,7,['k'],['k'],Y,N,None,Y,,,,,,,Male,18,
21,1,316,0,0,7,['k'],['k'],Y,N,None,Y,,,,,,,Male,18,
21,2,317,5,5,7,['k'],['k'],Y,Y,['space'],Y,,,,,,,Male,18,
21,3,318,6,6,7,['k'],['k'],Y,Y,['space'],Y,,,,,,,Male,18,
21,4,319,9,9,7,['k'],['d'],N,Y,['space'],Y,,,,,,,Male,18,
21,5,320,3,3,7,['d'],['d'],Y,Y,['space'],Y,,,,,,,Male,18,
21,6,321,12,12,7,['k'],['k'],Y,Y,None,N,,,,,,,Male,18,
21,7,322,3,3,7,['d'],['d'],Y,Y,['space'],Y,,,,,,,Male,18,
21,8,323,12,12,7,['k'],['k'],Y,Y,None,N,,,,,,,Male,18,
21,9,324,14,14,7,['d'],['d'],Y,Y,['space'],Y,,,,,,,Male,18,
21,10,325,12,12,7,['k'],['k'],Y,Y,['space'],Y,,,,,,,Male,18,
21,11,326,0,0,7,['k'],['d'],N,Y,None,N,,,,,,,Male,18,
21,12,327,11,11,7,['d'],['d'],Y,Y,['space'],Y,,,,,,,Male,18,
21,13,328,5,5,7,['d'],['d'],Y,N,None,Y,,,,,,,Male,18,
21,14,329,3,3,7,['k'],['d'],N,N,None,Y,,,,,,,Male,18,
22,0,330,14,14,7,['d'],['d'],Y,N,None,Y,,,,,,,Male,18,
22,1,331,10,10,7,['d'],['k'],N,N,None,Y,,,,,,,Male,18,
22,2,332,5,5,7,['k'],['k'],Y,Y,['k'],N,,,,,,,Male,18,
22,3,333,8,8,7,['k'],['d'],N,Y,None,N,,,,,,,Male,18,
22,4,334,2,2,7,['d'],['d'],Y,N,None,Y,,,,,,,Male,18,
22,5,335,1,1,7,['k'],['d'],N,N,None,Y,,,,,,,Male,18,
22,6,336,0,0,7,['k'],['k'],Y,N,['space'],N,,,,,,,Male,18,
22,7,337,13,13,7,['k'],['k'],Y,N,None,Y,,,,,,,Male,18,
22,8,338,5,5,7,['k'],['k'],Y,N,['space'],N,,,,,,,Male,18,
22,9,339,3,3,7,['k'],['d'],N,N,None,Y,,,,,,,Male,18,
22,10,340,14,14,7,['k'],['d'],N,Y,['space'],Y,,,,,,,Male,18,
22,11,341,11,11,7,['d'],['d'],Y,N,None,Y,,,,,,,Male,18,
22,12,342,7,7,7,['k'],['k'],Y,Y,['space'],Y,,,,,,,Male,18,
22,13,343,13,13,7,['d'],['k'],N,Y,['space'],Y,,,,,,,Male,18,
22,14,344,13,13,7,['k'],['k'],Y,Y,['space'],Y,,,,,,,Male,18,
23,0,345,9,9,7,['d'],['d'],Y,N,['space'],N,,,,,,,Male,18,
23,1,346,4,4,7,['k'],['k'],Y,N,None,Y,,,,,,,Male,18,
23,2,347,10,10,7,['k'],['d'],N,N,['space'],N,,,,,,,Male,18,
23,3,348,13,13,7,['d'],['d'],Y,Y,['space'],Y,,,,,,,Male,18,
23,4,349,0,0,7,['k'],['k'],Y,N,None,Y,38,38,23,,,,Male,18,
23,5,350,11,11,8,['k'],['k'],Y,,,,,,,,,,Male,18,
23,6,351,13,13,8,['k'],['k'],Y,,,,,,,,,,Male,18,
23,7,352,5,5,8,['k'],['k'],Y,Y,['space'],Y,,,,,,,Male,18,
23,8,353,4,4,8,['k'],['k'],Y,Y,['space'],Y,,,,,,,Male,18,
23,9,354,4,4,8,['k'],['d'],N,N,None,Y,,,,,,,Male,18,
23,10,355,0,0,8,['k'],['d'],N,Y,['space'],Y,,,,,,,Male,18,
23,11,356,12,12,8,['d'],['d'],Y,Y,['space'],Y,,,,,,,Male,18,
23,12,357,2,2,8,['d'],['d'],Y,N,None,Y,,,,,,,Male,18,
23,13,358,11,11,8,['k'],['d'],N,N,None,Y,,,,,,,Male,18,
23,14,359,11,11,8,['d'],['d'],Y,Y,['space'],Y,,,,,,,Male,18,
24,0,360,14,14,8,['k'],['k'],Y,Y,['space'],Y,,,,,,,Male,18,
24,1,361,2,2,8,['d'],['d'],Y,N,None,Y,,,,,,,Male,18,
24,2,362,10,10,8,['k'],['k'],Y,N,None,Y,,,,,,,Male,18,
24,3,363,7,7,8,['d'],['d'],Y,N,None,Y,,,,,,,Male,18,
24,4,364,3,3,8,['k'],['k'],Y,N,None,Y,,,,,,,Male,18,
24,5,365,6,6,8,['k'],['k'],Y,N,None,Y,,,,,,,Male,18,
24,6,366,5,5,8,['k'],['k'],Y,N,None,Y,,,,,,,Male,18,
24,7,367,4,4,8,['k'],['k'],Y,N,None,Y,,,,,,,Male,18,
24,8,368,13,13,8,['d'],['d'],Y,N,None,Y,,,,,,,Male,18,
24,9,369,9,9,8,['k'],['k'],Y,N,None,Y,,,,,,,Male,18,
24,10,370,0,0,8,['k'],['k'],Y,Y,['space'],Y,,,,,,,Male,18,
24,11,371,7,7,8,['d'],['d'],Y,N,None,Y,,,,,,,Male,18,
24,12,372,0,0,8,['k'],['k'],Y,Y,['space'],Y,,,,,,,Male,18,
24,13,373,6,6,8,['d'],['d'],Y,Y,None,N,,,,,,,Male,18,
24,14,374,7,7,8,['d'],['d'],Y,N,None,Y,,,,,,,Male,18,
25,0,375,10,10,8,['k'],['d'],N,Y,['space'],Y,,,,,,,Male,18,
25,1,376,10,10,8,['k'],['k'],Y,Y,None,N,,,,,,,Male,18,
25,2,377,11,11,8,['k'],['k'],Y,N,['space'],N,,,,,,,Male,18,
25,3,378,5,5,8,['k'],['k'],Y,Y,None,N,,,,,,,Male,18,
25,4,379,6,6,8,['d'],['d'],Y,Y,['space'],Y,,,,,,,Male,18,
25,5,380,3,3,8,['k'],['k'],Y,Y,['space'],Y,,,,,,,Male,18,
25,6,381,10,10,8,['d'],['d'],Y,Y,['space'],Y,,,,,,,Male,18,
25,7,382,5,5,8,['d'],['d'],Y,Y,['space'],Y,,,,,,,Male,18,
25,8,383,6,6,8,['d'],['d'],Y,Y,['space'],Y,,,,,,,Male,18,
25,9,384,13,13,8,['k'],['d'],N,N,None,Y,,,,,,,Male,18,
25,10,385,12,12,8,['d'],['d'],Y,Y,['space'],Y,,,,,,,Male,18,
25,11,386,3,3,8,['d'],['d'],Y,N,['space'],N,,,,,,,Male,18,
25,12,387,5,5,8,['k'],['d'],N,N,None,Y,,,,,,,Male,18,
25,13,388,11,11,8,['d'],['d'],Y,N,None,Y,,,,,,,Male,18,
25,14,389,10,10,8,['d'],['d'],Y,Y,None,N,,,,,,,Male,18,
26,0,390,13,13,8,['d'],['d'],Y,Y,None,N,,,,,,,Male,18,
26,1,391,12,12,8,['k'],['k'],Y,Y,['space'],Y,,,,,,,Male,18,
26,2,392,14,14,8,['d'],['d'],Y,Y,None,N,,,,,,,Male,18,
26,3,393,11,11,8,['k'],['k'],Y,Y,None,N,,,,,,,Male,18,
26,4,394,5,5,8,['k'],['k'],Y,N,['space'],N,,,,,,,Male,18,
26,5,395,5,5,8,['k'],['k'],Y,Y,['space'],Y,,,,,,,Male,18,
26,6,396,7,7,8,['d'],['d'],Y,N,None,Y,,,,,,,Male,18,
26,7,397,11,11,8,['k'],['k'],Y,Y,None,N,,,,,,,Male,18,
26,8,398,10,10,8,['k'],['k'],Y,N,None,Y,,,,,,,Male,18,
26,9,399,5,5,8,['d'],['k'],N,N,None,Y,43,37,25,,,,Male,18,
26,10,400,12,12,9,['k'],['d'],N,,,,,,,,,,Male,18,
26,11,401,3,3,9,['k'],['k'],Y,,,,,,,,,,Male,18,
26,12,402,9,9,9,['d'],['k'],N,Y,['k'],N,,,,,,,Male,18,
26,13,403,8,8,9,['k'],['k'],Y,N,None,Y,,,,,,,Male,18,
26,14,404,13,13,9,['d'],['d'],Y,Y,['space'],Y,,,,,,,Male,18,
27,0,405,14,14,9,['k'],['k'],Y,N,None,Y,,,,,,,Male,18,
27,1,406,6,6,9,['d'],['d'],Y,N,None,Y,,,,,,,Male,18,
27,2,407,4,4,9,['d'],['d'],Y,Y,['space'],Y,,,,,,,Male,18,
27,3,408,13,13,9,['k'],['k'],Y,N,None,Y,,,,,,,Male,18,
27,4,409,4,4,9,['d'],['d'],Y,N,None,Y,,,,,,,Male,18,
27,5,410,13,13,9,['k'],['k'],Y,N,['space'],N,,,,,,,Male,18,
27,6,411,14,14,9,['k'],['k'],Y,Y,None,N,,,,,,,Male,18,
27,7,412,12,12,9,['k'],['k'],Y,Y,['space'],Y,,,,,,,Male,18,
27,8,413,0,0,9,['k'],['k'],Y,Y,['space'],Y,,,,,,,Male,18,
27,9,414,5,5,9,['k'],['k'],Y,N,None,Y,,,,,,,Male,18,
27,10,415,6,6,9,['d'],['d'],Y,Y,['space'],Y,,,,,,,Male,18,
27,11,416,5,5,9,['k'],['k'],Y,N,['space'],N,,,,,,,Male,18,
27,12,417,3,3,9,['d'],['d'],Y,N,None,Y,,,,,,,Male,18,
27,13,418,9,9,9,['k'],['k'],Y,Y,None,N,,,,,,,Male,18,
27,14,419,4,4,9,['d'],['d'],Y,N,None,Y,,,,,,,Male,18,
28,0,420,1,1,9,['k'],['k'],Y,Y,['space'],Y,,,,,,,Male,18,
28,1,421,11,11,9,['k'],['k'],Y,N,None,Y,,,,,,,Male,18,
28,2,422,8,8,9,['d'],['d'],Y,N,None,Y,,,,,,,Male,18,
28,3,423,3,3,9,['k'],['k'],Y,N,None,Y,,,,,,,Male,18,
28,4,424,8,8,9,['d'],['d'],Y,N,None,Y,,,,,,,Male,18,
28,5,425,12,12,9,['d'],['d'],Y,Y,['space'],Y,,,,,,,Male,18,
28,6,426,6,6,9,['d'],['d'],Y,N,None,Y,,,,,,,Male,18,
28,7,427,8,8,9,['k'],['k'],Y,Y,['space'],Y,,,,,,,Male,18,
28,8,428,11,11,9,['d'],['d'],Y,Y,['space'],Y,,,,,,,Male,18,
28,9,429,2,2,9,['k'],['k'],Y,N,None,Y,,,,,,,Male,18,
28,10,430,2,2,9,['k'],['k'],Y,N,['space'],N,,,,,,,Male,18,
28,11,431,13,13,9,['k'],['k'],Y,N,None,Y,,,,,,,Male,18,
28,12,432,4,4,9,['d'],['d'],Y,N,None,Y,,,,,,,Male,18,
28,13,433,8,8,9,['d'],['d'],Y,N,None,Y,,,,,,,Male,18,
28,14,434,1,1,9,['k'],['k'],Y,Y,['space'],Y,,,,,,,Male,18,
29,0,435,7,7,9,['k'],['k'],Y,Y,['space'],Y,,,,,,,Male,18,
29,1,436,8,8,9,['d'],['d'],Y,Y,['space'],Y,,,,,,,Male,18,
29,2,437,3,3,9,['k'],['k'],Y,Y,['space'],Y,,,,,,,Male,18,
29,3,438,1,1,9,['k'],['k'],Y,Y,['space'],Y,,,,,,,Male,18,
29,4,439,9,9,9,['d'],['k'],N,Y,['space'],Y,,,,,,,Male,18,
29,5,440,7,7,9,['k'],['k'],Y,N,None,Y,,,,,,,Male,18,
29,6,441,3,3,9,['d'],['d'],Y,N,None,Y,,,,,,,Male,18,
29,7,442,12,12,9,['k'],['k'],Y,Y,['space'],Y,,,,,,,Male,18,
29,8,443,10,10,9,['k'],['k'],Y,N,None,Y,,,,,,,Male,18,
29,9,444,8,8,9,['k'],['k'],Y,Y,['space'],Y,,,,,,,Male,18,
29,10,445,8,8,9,['k'],['k'],Y,N,None,Y,,,,,,,Male,18,
29,11,446,6,6,9,['d'],['k'],N,Y,['space'],Y,,,,,,,Male,18,
29,12,447,12,12,9,['k'],['k'],Y,N,None,Y,,,,,,,Male,18,
29,13,448,0,0,9,['k'],['k'],Y,Y,['space'],Y,,,,,,,Male,18,
29,14,449,11,11,9,['k'],['d'],N,N,None,Y,45,42,22,,,,Male,18,
30,0,450,2,2,10,['k'],['k'],Y,,,,,,,,,,Male,18,
30,1,451,6,6,10,['d'],['d'],Y,,,,,,,,,,Male,18,
30,2,452,10,10,10,['d'],['d'],Y,N,None,Y,,,,,,,Male,18,
30,3,453,11,11,10,['d'],['d'],Y,Y,None,N,,,,,,,Male,18,
30,4,454,3,3,10,['d'],['d'],Y,Y,None,N,,,,,,,Male,18,
30,5,455,2,2,10,['k'],['k'],Y,Y,None,N,,,,,,,Male,18,
30,6,456,1,1,10,['k'],['d'],N,Y,None,N,,,,,,,Male,18,
30,7,457,14,14,10,['k'],['k'],Y,Y,None,N,,,,,,,Male,18,
30,8,458,5,5,10,['k'],['k'],Y,Y,['space'],Y,,,,,,,Male,18,
30,9,459,3,3,10,['k'],['k'],Y,N,None,Y,,,,,,,Male,18,
30,10,460,10,10,10,['d'],['d'],Y,Y,['space'],Y,,,,,,,Male,18,
30,11,461,11,11,10,['d'],['d'],Y,N,None,Y,,,,,,,Male,18,
30,12,462,5,5,10,['d'],['d'],Y,Y,['space'],Y,,,,,,,Male,18,
30,13,463,4,4,10,['k'],['k'],Y,N,None,Y,,,,,,,Male,18,
30,14,464,8,8,10,['d'],['d'],Y,N,None,Y,,,,,,,Male,18,
31,0,465,1,1,10,['d'],['d'],Y,Y,['space'],Y,,,,,,,Male,18,
31,1,466,5,5,10,['k'],['d'],N,N,None,Y,,,,,,,Male,18,
31,2,467,9,9,10,['k'],['d'],N,N,None,Y,,,,,,,Male,18,
31,3,468,7,7,10,['k'],['d'],N,N,None,Y,,,,,,,Male,18,
31,4,469,6,6,10,['d'],['d'],Y,Y,['space'],Y,,,,,,,Male,18,
31,5,470,11,11,10,['d'],['d'],Y,N,None,Y,,,,,,,Male,18,
31,6,471,12,12,10,['k'],['k'],Y,N,None,Y,,,,,,,Male,18,
31,7,472,12,12,10,['d'],['d'],Y,N,None,Y,,,,,,,Male,18,
31,8,473,4,4,10,['k'],['k'],Y,Y,['space'],Y,,,,,,,Male,18,
31,9,474,4,4,10,['k'],['k'],Y,Y,['space'],Y,,,,,,,Male,18,
31,10,475,13,13,10,['k'],['k'],Y,Y,['space'],Y,,,,,,,Male,18,
31,11,476,9,9,10,['d'],['d'],Y,Y,['space'],Y,,,,,,,Male,18,
31,12,477,9,9,10,['k'],['k'],Y,N,None,Y,,,,,,,Male,18,
31,13,478,8,8,10,['d'],['d'],Y,N,None,Y,,,,,,,Male,18,
31,14,479,13,13,10,['k'],['k'],Y,N,None,Y,,,,,,,Male,18,
32,0,480,9,9,10,['k'],['k'],Y,N,None,Y,,,,,,,Male,18,
32,1,481,10,10,10,['d'],['d'],Y,Y,['space'],Y,,,,,,,Male,18,
32,2,482,4,4,10,['k'],['k'],Y,Y,None,N,,,,,,,Male,18,
32,3,483,7,7,10,['d'],['d'],Y,N,['space'],N,,,,,,,Male,18,
32,4,484,2,2,10,['d'],['d'],Y,N,None,Y,,,,,,,Male,18,
32,5,485,6,6,10,['k'],['d'],N,Y,['space'],Y,,,,,,,Male,18,
32,6,486,9,9,10,['d'],['d'],Y,N,['space'],N,,,,,,,Male,18,
32,7,487,12,12,10,['k'],['k'],Y,N,None,Y,,,,,,,Male,18,
32,8,488,9,9,10,['d'],['d'],Y,N,None,Y,,,,,,,Male,18,
32,9,489,0,0,10,['d'],['d'],Y,N,None,Y,,,,,,,Male,18,
32,10,490,4,4,10,['d'],['d'],Y,Y,None,N,,,,,,,Male,18,
32,11,491,7,7,10,['d'],['d'],Y,N,None,Y,,,,,,,Male,18,
32,12,492,2,2,10,['d'],['d'],Y,N,['space'],N,,,,,,,Male,18,
32,13,493,10,10,10,['k'],['k'],Y,Y,['space'],Y,,,,,,,Male,18,
32,14,494,14,14,10,['d'],['d'],Y,Y,['space'],Y,,,,,,,Male,18,
33,0,495,12,12,10,['k'],['d'],N,Y,None,N,,,,,,,Male,18,
33,1,496,0,0,10,['k'],['k'],Y,Y,None,N,,,,,,,Male,18,
33,2,497,0,0,10,['k'],['k'],Y,Y,['space'],Y,,,,,,,Male,18,
33,3,498,7,7,10,['d'],['d'],Y,Y,['space'],Y,,,,,,,Male,18,
33,4,499,11,11,10,['d'],['d'],Y,Y,['space'],Y,44,36,25,,,,Male,18,
33,5,500,7,7,11,['d'],['k'],Y,,,,,,,Y,Y,Y,Male,18,
33,6,501,6,6,11,['d'],['k'],Y,,,,,,,,Y,Y,Male,18,
33,7,502,11,11,11,['k'],['d'],Y,Y,['space'],Y,,,,,Y,Y,Male,18,
33,8,503,7,7,11,['d'],['k'],Y,Y,['space'],Y,,,,,Y,Y,Male,18,
33,9,504,5,5,11,['d'],['k'],Y,Y,['space'],Y,,,,,Y,Y,Male,18,
33,10,505,12,12,11,['d'],['d'],N,N,None,Y,,,,,Y,Y,Male,18,
33,11,506,9,9,11,['d'],['k'],Y,Y,['space'],Y,,,,,Y,Y,Male,18,
33,12,507,6,6,11,['d'],['d'],N,N,None,Y,,,,,Y,Y,Male,18,
33,13,508,10,10,11,['k'],['d'],Y,Y,['space'],Y,,,,,Y,Y,Male,18,
33,14,509,6,6,11,['d'],['k'],Y,Y,['space'],Y,,,,,Y,Y,Male,18,
34,0,510,9,9,11,['k'],['d'],Y,N,None,Y,,,,,Y,Y,Male,18,
34,1,511,8,8,11,['d'],['k'],Y,N,None,Y,,,,,Y,Y,Male,18,
34,2,512,7,7,11,['d'],['k'],Y,N,None,Y,,,,,Y,Y,Male,18,
34,3,513,9,9,11,['d'],['k'],Y,Y,['space'],Y,,,,,Y,Y,Male,18,
34,4,514,12,12,11,['d'],['k'],Y,Y,['space'],Y,,,,,Y,Y,Male,18,
34,5,515,8,8,11,['k'],['d'],Y,Y,['space'],Y,,,,,Y,Y,Male,18,
34,6,516,4,4,11,['d'],['k'],Y,Y,['space'],Y,,,,,Y,Y,Male,18,
34,7,517,10,10,11,['k'],['d'],Y,Y,['space'],Y,,,,,Y,Y,Male,18,
34,8,518,4,4,11,['d'],['d'],N,Y,['space'],Y,,,,,Y,Y,Male,18,
34,9,519,14,14,11,['d'],['k'],Y,Y,['space'],Y,,,,,Y,Y,Male,18,
34,10,520,2,2,11,['d'],['k'],Y,Y,['space'],Y,,,,,Y,Y,Male,18,
34,11,521,12,12,11,['d'],['k'],Y,Y,['space'],Y,,,,,Y,Y,Male,18,
34,12,522,13,13,11,['k'],['k'],N,Y,['space'],Y,,,,,Y,Y,Male,18,
34,13,523,4,4,11,['k'],['d'],Y,Y,['space'],Y,,,,,Y,Y,Male,18,
34,14,524,9,9,11,['k'],['d'],Y,N,None,Y,,,,,Y,Y,Male,18,
35,0,525,5,5,11,['d'],['k'],Y,Y,['space'],Y,,,,,Y,Y,Male,18,
35,1,526,2,2,11,['k'],['d'],Y,Y,['space'],Y,,,,,Y,Y,Male,18,
35,2,527,10,10,11,['d'],['k'],Y,Y,['space'],Y,,,,,Y,Y,Male,18,
35,3,528,0,0,11,['k'],['d'],Y,Y,['space'],Y,,,,,Y,Y,Male,18,
35,4,529,9,9,11,['d'],['d'],N,Y,['space'],Y,,,,,Y,Y,Male,18,
35,5,530,1,1,11,['k'],['d'],Y,Y,['space'],Y,,,,,Y,Y,Male,18,
35,6,531,3,3,11,['k'],['d'],Y,Y,['space'],Y,,,,,Y,Y,Male,18,
35,7,532,10,10,11,['k'],['d'],Y,N,None,Y,,,,,Y,Y,Male,18,
35,8,533,13,13,11,['k'],['d'],Y,Y,['space'],Y,,,,,Y,Y,Male,18,
35,9,534,2,2,11,['k'],['d'],Y,N,None,Y,,,,,Y,Y,Male,18,
35,10,535,1,1,11,['d'],['k'],Y,N,None,Y,,,,,Y,Y,Male,18,
35,11,536,7,7,11,['k'],['d'],Y,N,None,Y,,,,,Y,Y,Male,18,
35,12,537,3,3,11,None,,Timed out,N,None,Y,,,,,Y,Y,Male,18,
35,13,538,2,2,11,['d'],['k'],Y,N,['space'],N,,,,,Y,Y,Male,18,
35,14,539,1,1,11,['d'],['d'],N,N,['space'],N,,,,,Y,Y,Male,18,
36,0,540,6,6,11,['d'],['k'],Y,N,None,Y,,,,,Y,Y,Male,18,
36,1,541,6,6,11,['d'],['k'],Y,N,['space'],N,,,,,Y,Y,Male,18,
36,2,542,3,3,11,['d'],['k'],Y,N,None,Y,,,,,Y,Y,Male,18,
36,3,543,9,9,11,['d'],['k'],Y,N,None,Y,,,,,Y,Y,Male,18,
36,4,544,5,5,11,['k'],['k'],N,N,None,Y,,,,,Y,Y,Male,18,
36,5,545,14,14,11,['k'],['d'],Y,N,None,Y,,,,,Y,Y,Male,18,
36,6,546,4,4,11,['d'],['k'],Y,N,None,Y,,,,,Y,Y,Male,18,
36,7,547,0,0,11,['d'],['k'],Y,N,None,Y,,,,,Y,Y,Male,18,
36,8,548,8,8,11,['d'],['k'],Y,N,None,Y,,,,,Y,Y,Male,18,
36,9,549,8,8,11,['d'],['k'],Y,N,None,Y,42,45,25,,Y,Y,Male,18,
36,10,550,14,14,12,['k'],['d'],Y,,,,,,,,Y,Y,Male,18,
36,11,551,11,11,12,['d'],['k'],Y,,,,,,,,Y,Y,Male,18,
36,12,552,0,0,12,['d'],['k'],Y,N,None,Y,,,,,Y,Y,Male,18,
36,13,553,10,10,12,['d'],['k'],Y,N,None,Y,,,,,Y,Y,Male,18,
36,14,554,14,14,12,['d'],['k'],Y,N,None,Y,,,,,Y,Y,Male,18,
37,0,555,12,12,12,None,,Timed out,Y,['space'],Y,,,,,Y,Y,Male,18,
37,1,556,2,2,12,['k'],['d'],Y,Y,['space'],Y,,,,,Y,Y,Male,18,
37,2,557,13,13,12,['k'],['d'],Y,N,None,Y,,,,,Y,Y,Male,18,
37,3,558,10,10,12,['d'],['k'],Y,Y,['space'],Y,,,,,Y,Y,Male,18,
37,4,559,10,10,12,['k'],['d'],Y,Y,['space'],Y,,,,,Y,Y,Male,18,
37,5,560,10,10,12,['k'],['d'],Y,Y,['space'],Y,,,,,Y,Y,Male,18,
37,6,561,4,4,12,['d'],['k'],Y,Y,['space'],Y,,,,,Y,Y,Male,18,
37,7,562,10,10,12,['k'],['d'],Y,Y,['space'],Y,,,,,Y,Y,Male,18,
37,8,563,6,6,12,['d'],['k'],Y,Y,None,N,,,,,Y,Y,Male,18,
37,9,564,12,12,12,['k'],['d'],Y,Y,None,N,,,,,Y,Y,Male,18,
37,10,565,12,12,12,['d'],['d'],N,N,None,Y,,,,,Y,Y,Male,18,
37,11,566,10,10,12,['k'],['d'],Y,Y,['space'],Y,,,,,Y,Y,Male,18,
37,12,567,14,14,12,['k'],['d'],Y,Y,['space'],Y,,,,,Y,Y,Male,18,
37,13,568,3,3,12,['d'],['d'],N,N,None,Y,,,,,Y,Y,Male,18,
37,14,569,7,7,12,['d'],['d'],N,N,None,Y,,,,,Y,Y,Male,18,
38,0,570,13,13,12,['d'],['k'],Y,N,None,Y,,,,,Y,Y,Male,18,
38,1,571,14,14,12,['k'],['d'],Y,N,None,Y,,,,,Y,Y,Male,18,
38,2,572,1,1,12,['d'],['d'],N,N,None,Y,,,,,Y,Y,Male,18,
38,3,573,1,1,12,['d'],['k'],Y,Y,['space'],Y,,,,,Y,Y,Male,18,
38,4,574,9,9,12,['d'],['k'],Y,Y,None,N,,,,,Y,Y,Male,18,
38,5,575,4,4,12,['d'],['d'],N,Y,['space'],Y,,,,,Y,Y,Male,18,
38,6,576,9,9,12,['d'],['k'],Y,Y,['space'],Y,,,,,Y,Y,Male,18,
38,7,577,11,11,12,['k'],['d'],Y,N,None,Y,,,,,Y,Y,Male,18,
38,8,578,2,2,12,['k'],['d'],Y,N,None,Y,,,,,Y,Y,Male,18,
38,9,579,13,13,12,['d'],['k'],Y,Y,['space'],Y,,,,,Y,Y,Male,18,
38,10,580,1,1,12,['k'],['d'],Y,Y,None,N,,,,,Y,Y,Male,18,
38,11,581,8,8,12,['k'],['d'],Y,N,None,Y,,,,,Y,Y,Male,18,
38,12,582,3,3,12,['d'],['k'],Y,Y,['space'],Y,,,,,Y,Y,Male,18,
38,13,583,2,2,12,['k'],['d'],Y,Y,['space'],Y,,,,,Y,Y,Male,18,
38,14,584,8,8,12,['d'],['k'],Y,Y,['space'],Y,,,,,Y,Y,Male,18,
39,0,585,12,12,12,['k'],['d'],Y,N,None,Y,,,,,Y,Y,Male,18,
39,1,586,6,6,12,['k'],['d'],Y,Y,['space'],Y,,,,,Y,Y,Male,18,
39,2,587,13,13,12,['d'],['k'],Y,N,None,Y,,,,,Y,Y,Male,18,
39,3,588,4,4,12,['d'],['d'],N,Y,['space'],Y,,,,,Y,Y,Male,18,
39,4,589,14,14,12,['d'],['k'],Y,N,['space'],N,,,,,Y,Y,Male,18,
39,5,590,0,0,12,['k'],['d'],Y,Y,None,N,,,,,Y,Y,Male,18,
39,6,591,8,8,12,['d'],['d'],N,N,None,Y,,,,,Y,Y,Male,18,
39,7,592,0,0,12,['d'],['k'],Y,Y,['space'],Y,,,,,Y,Y,Male,18,
39,8,593,4,4,12,['d'],['k'],Y,Y,['space'],Y,,,,,Y,Y,Male,18,
39,9,594,7,7,12,['k'],['d'],Y,N,['space'],N,,,,,Y,Y,Male,18,
39,10,595,2,2,12,['k'],['d'],Y,N,['space'],N,,,,,Y,Y,Male,18,
39,11,596,5,5,12,['k'],['d'],Y,N,None,Y,,,,,Y,Y,Male,18,
39,12,597,6,6,12,['d'],['k'],Y,N,None,Y,,,,,Y,Y,Male,18,
39,13,598,10,10,12,['d'],['d'],N,N,None,Y,,,,,Y,Y,Male,18,
39,14,599,7,7,12,['k'],['k'],N,N,None,Y,40,40,25,,Y,Y,Male,18,
