.thisRepN,.thisTrialN,.thisN,.thisIndex,.thisTrial,Block Number,Key pressed,Category,Correct?,Int Match?,Int Response,Int Correct?,Line Accuracy,Interference Accuracy,Matching Interferences,New instruction shown?,Buttons switched?,Fast?,gender,age,
0,0,0,2,2,1,['k'],['k'],Y,,,,,,,,,,M,20,
0,1,1,11,11,1,['d'],['d'],Y,,,,,,,,,,M,20,
0,2,2,0,0,1,['k'],['k'],Y,N,['d'],N,,,,,,,M,20,
0,3,3,9,9,1,['k'],['k'],Y,Y,None,N,,,,,,,M,20,
0,4,4,4,4,1,['k'],['k'],Y,Y,None,N,,,,,,,M,20,
0,5,5,1,1,1,['k'],['k'],Y,Y,['space'],Y,,,,,,,M,20,
0,6,6,2,2,1,['k'],['k'],Y,N,None,Y,,,,,,,M,20,
0,7,7,14,14,1,['d'],['d'],Y,Y,['space'],Y,,,,,,,M,20,
0,8,8,12,12,1,['k'],['k'],Y,N,None,Y,,,,,,,M,20,
0,9,9,0,0,1,['k'],['k'],Y,Y,['space'],Y,,,,,,,M,20,
0,10,10,9,9,1,['k'],['k'],Y,Y,['space'],Y,,,,,,,M,20,
0,11,11,9,9,1,['k'],['d'],N,Y,None,N,,,,,,,M,20,
0,12,12,6,6,1,['k'],['k'],Y,Y,['space'],Y,,,,,,,M,20,
0,13,13,3,3,1,['d'],['d'],Y,N,None,Y,,,,,,,M,20,
0,14,14,7,7,1,['d'],['d'],Y,N,None,Y,,,,,,,M,20,
1,0,15,10,10,1,['k'],['k'],Y,N,None,Y,,,,,,,M,20,
1,1,16,13,13,1,['d'],['d'],Y,N,None,Y,,,,,,,M,20,
1,2,17,1,1,1,['d'],['d'],Y,Y,None,N,,,,,,,M,20,
1,3,18,9,9,1,['k'],['d'],N,Y,['space'],Y,,,,,,,M,20,
1,4,19,8,8,1,['d'],['d'],Y,Y,None,N,,,,,,,M,20,
1,5,20,14,14,1,['k'],['k'],Y,Y,['space'],Y,,,,,,,M,20,
1,6,21,2,2,1,['d'],['d'],Y,Y,None,N,,,,,,,M,20,
1,7,22,3,3,1,['k'],['k'],Y,Y,None,N,,,,,,,M,20,
1,8,23,4,4,1,['d'],['d'],Y,N,None,Y,,,,,,,M,20,
1,9,24,2,2,1,['k'],['k'],Y,N,None,Y,,,,,,,M,20,
1,10,25,5,5,1,['k'],['k'],Y,N,['space'],N,,,,,,,M,20,
1,11,26,5,5,1,['d'],['d'],Y,N,None,Y,,,,,,,M,20,
1,12,27,0,0,1,['d'],['d'],Y,N,None,Y,,,,,,,M,20,
1,13,28,14,14,1,['k'],['k'],Y,N,['space'],N,,,,,,,M,20,
1,14,29,2,2,1,['d'],['d'],Y,N,['space'],N,,,,,,,M,20,
2,0,30,10,10,1,['k'],['d'],N,Y,None,N,,,,,,,M,20,
2,1,31,14,14,1,['k'],['d'],N,Y,None,N,,,,,,,M,20,
2,2,32,5,5,1,['d'],['d'],Y,N,None,Y,,,,,,,M,20,
2,3,33,13,13,1,['d'],['k'],N,Y,['space'],Y,,,,,,,M,20,
2,4,34,2,2,1,['k'],['k'],Y,Y,None,N,,,,,,,M,20,
2,5,35,0,0,1,['d'],['d'],Y,Y,['space'],Y,,,,,,,M,20,
2,6,36,11,11,1,['d'],['d'],Y,Y,['space'],Y,,,,,,,M,20,
2,7,37,1,1,1,['k'],['k'],Y,N,['d'],N,,,,,,,M,20,
2,8,38,0,0,1,['d'],['d'],Y,N,None,Y,,,,,,,M,20,
2,9,39,1,1,1,['k'],['k'],Y,Y,None,N,,,,,,,M,20,
2,10,40,4,4,1,['k'],['k'],Y,N,None,Y,,,,,,,M,20,
2,11,41,3,3,1,['d'],['d'],Y,Y,None,N,,,,,,,M,20,
2,12,42,9,9,1,['d'],['d'],Y,Y,None,N,,,,,,,M,20,
2,13,43,7,7,1,['d'],['d'],Y,N,None,Y,,,,,,,M,20,
2,14,44,7,7,1,['d'],['d'],Y,Y,None,N,,,,,,,M,20,
3,0,45,14,14,1,['k'],['k'],Y,Y,['space'],Y,,,,,,,M,20,
3,1,46,1,1,1,['k'],['d'],N,N,['space'],N,,,,,,,M,20,
3,2,47,1,1,1,['k'],['d'],N,N,None,Y,,,,,,,M,20,
3,3,48,9,9,1,['k'],['d'],N,N,None,Y,,,,,,,M,20,
3,4,49,5,5,1,['k'],['k'],Y,N,['space'],N,42,27,25,,,,M,20,
3,5,50,2,2,2,['d'],['d'],Y,,,,,,,,,,M,20,
3,6,51,5,5,2,['k'],['d'],N,,,,,,,,,,M,20,
3,7,52,1,1,2,['k'],['k'],Y,N,None,Y,,,,,,,M,20,
3,8,53,4,4,2,['d'],['d'],Y,N,None,Y,,,,,,,M,20,
3,9,54,7,7,2,['k'],['k'],Y,N,None,Y,,,,,,,M,20,
3,10,55,6,6,2,['d'],['d'],Y,N,None,Y,,,,,,,M,20,
3,11,56,12,12,2,['k'],['k'],Y,Y,['space'],Y,,,,,,,M,20,
3,12,57,11,11,2,['k'],['k'],Y,Y,None,N,,,,,,,M,20,
3,13,58,10,10,2,['k'],['k'],Y,N,None,Y,,,,,,,M,20,
3,14,59,14,14,2,['d'],['d'],Y,Y,['space'],Y,,,,,,,M,20,
4,0,60,11,11,2,['d'],['d'],Y,N,None,Y,,,,,,,M,20,
4,1,61,8,8,2,['k'],['k'],Y,N,None,Y,,,,,,,M,20,
4,2,62,5,5,2,['k'],['k'],Y,N,None,Y,,,,,,,M,20,
4,3,63,11,11,2,['d'],['d'],Y,Y,['space'],Y,,,,,,,M,20,
4,4,64,4,4,2,['d'],['d'],Y,N,None,Y,,,,,,,M,20,
4,5,65,9,9,2,['k'],['d'],N,N,None,Y,,,,,,,M,20,
4,6,66,13,13,2,['d'],['d'],Y,Y,['space'],Y,,,,,,,M,20,
4,7,67,10,10,2,['k'],['k'],Y,N,None,Y,,,,,,,M,20,
4,8,68,2,2,2,['d'],['d'],Y,Y,['space'],Y,,,,,,,M,20,
4,9,69,8,8,2,['k'],['d'],N,Y,['space'],Y,,,,,,,M,20,
4,10,70,12,12,2,['k'],['k'],Y,N,None,Y,,,,,,,M,20,
4,11,71,10,10,2,['k'],['k'],Y,N,['space'],N,,,,,,,M,20,
4,12,72,7,7,2,['k'],['k'],Y,Y,['space'],Y,,,,,,,M,20,
4,13,73,0,0,2,['d'],['d'],Y,N,None,Y,,,,,,,M,20,
4,14,74,10,10,2,['d'],['d'],Y,Y,['space'],Y,,,,,,,M,20,
5,0,75,1,1,2,['k'],['k'],Y,N,None,Y,,,,,,,M,20,
5,1,76,7,7,2,['k'],['k'],Y,N,None,Y,,,,,,,M,20,
5,2,77,3,3,2,['d'],['k'],N,N,['space'],N,,,,,,,M,20,
5,3,78,4,4,2,['k'],['k'],Y,Y,['space'],Y,,,,,,,M,20,
5,4,79,11,11,2,['k'],['k'],Y,Y,['space'],Y,,,,,,,M,20,
5,5,80,13,13,2,['d'],['d'],Y,Y,['space'],Y,,,,,,,M,20,
5,6,81,13,13,2,['d'],['d'],Y,Y,['space'],Y,,,,,,,M,20,
5,7,82,3,3,2,['d'],['k'],N,N,None,Y,,,,,,,M,20,
5,8,83,11,11,2,['d'],['d'],Y,N,None,Y,,,,,,,M,20,
5,9,84,9,9,2,['d'],['d'],Y,N,None,Y,,,,,,,M,20,
5,10,85,1,1,2,['d'],['d'],Y,Y,['space'],Y,,,,,,,M,20,
5,11,86,5,5,2,['k'],['k'],Y,N,None,Y,,,,,,,M,20,
5,12,87,14,14,2,['k'],['k'],Y,N,None,Y,,,,,,,M,20,
5,13,88,4,4,2,['k'],['k'],Y,Y,['space'],Y,,,,,,,M,20,
5,14,89,5,5,2,['d'],['d'],Y,Y,['space'],Y,,,,,,,M,20,
6,0,90,3,3,2,['d'],['d'],Y,Y,['space'],Y,,,,,,,M,20,
6,1,91,9,9,2,['k'],['k'],Y,Y,['space'],Y,,,,,,,M,20,
6,2,92,14,14,2,['k'],['k'],Y,N,None,Y,,,,,,,M,20,
6,3,93,13,13,2,['d'],['d'],Y,N,None,Y,,,,,,,M,20,
6,4,94,4,4,2,['k'],['k'],Y,N,None,Y,,,,,,,M,20,
6,5,95,11,11,2,['k'],['k'],Y,N,None,Y,,,,,,,M,20,
6,6,96,2,2,2,['k'],['k'],Y,Y,['space'],Y,,,,,,,M,20,
6,7,97,14,14,2,['k'],['k'],Y,Y,['space'],Y,,,,,,,M,20,
6,8,98,10,10,2,['d'],['d'],Y,Y,['space'],Y,,,,,,,M,20,
6,9,99,8,8,2,['k'],['k'],Y,N,None,Y,45,45,21,,,,M,20,
6,10,100,5,5,3,['d'],['d'],Y,,,,,,,,,,M,20,
6,11,101,7,7,3,['k'],['k'],Y,,,,,,,,,,M,20,
6,12,102,14,14,3,['k'],['d'],N,N,None,Y,,,,,,,M,20,
6,13,103,11,11,3,['d'],['k'],N,Y,['space'],Y,,,,,,,M,20,
6,14,104,8,8,3,['d'],['d'],Y,N,None,Y,,,,,,,M,20,
7,0,105,6,6,3,['k'],['d'],N,Y,['space'],Y,,,,,,,M,20,
7,1,106,3,3,3,['d'],['k'],N,N,['space'],N,,,,,,,M,20,
7,2,107,3,3,3,['d'],['k'],N,Y,['space'],Y,,,,,,,M,20,
7,3,108,13,13,3,['k'],['k'],Y,N,None,Y,,,,,,,M,20,
7,4,109,11,11,3,['k'],['k'],Y,N,None,Y,,,,,,,M,20,
7,5,110,1,1,3,['d'],['d'],Y,Y,None,N,,,,,,,M,20,
7,6,111,5,5,3,['d'],['d'],Y,Y,['space'],Y,,,,,,,M,20,
7,7,112,4,4,3,['k'],['k'],Y,Y,None,N,,,,,,,M,20,
7,8,113,0,0,3,['d'],['d'],Y,N,None,Y,,,,,,,M,20,
7,9,114,14,14,3,['k'],['k'],Y,Y,['space'],Y,,,,,,,M,20,
7,10,115,9,9,3,['d'],['d'],Y,N,['space'],N,,,,,,,M,20,
7,11,116,13,13,3,['k'],['k'],Y,Y,['space'],Y,,,,,,,M,20,
7,12,117,8,8,3,['k'],['k'],Y,Y,['space'],Y,,,,,,,M,20,
7,13,118,12,12,3,['k'],['k'],Y,Y,['space'],Y,,,,,,,M,20,
7,14,119,0,0,3,['d'],['k'],N,Y,['space'],Y,,,,,,,M,20,
8,0,120,10,10,3,['k'],['k'],Y,N,None,Y,,,,,,,M,20,
8,1,121,14,14,3,['k'],['k'],Y,Y,['space'],Y,,,,,,,M,20,
8,2,122,14,14,3,['k'],['k'],Y,Y,['space'],Y,,,,,,,M,20,
8,3,123,3,3,3,['d'],['d'],Y,N,None,Y,,,,,,,M,20,
8,4,124,12,12,3,['d'],['d'],Y,N,None,Y,,,,,,,M,20,
8,5,125,13,13,3,['d'],['d'],Y,Y,None,N,,,,,,,M,20,
8,6,126,8,8,3,['k'],['k'],Y,Y,['space'],Y,,,,,,,M,20,
8,7,127,9,9,3,['k'],['k'],Y,Y,['space'],Y,,,,,,,M,20,
8,8,128,5,5,3,['d'],['k'],N,Y,['space'],Y,,,,,,,M,20,
8,9,129,3,3,3,['d'],['k'],N,Y,['space'],Y,,,,,,,M,20,
8,10,130,2,2,3,['k'],['d'],N,Y,['space'],Y,,,,,,,M,20,
8,11,131,2,2,3,['d'],['d'],Y,Y,['space'],Y,,,,,,,M,20,
8,12,132,2,2,3,['k'],['k'],Y,N,None,Y,,,,,,,M,20,
8,13,133,1,1,3,['d'],['d'],Y,N,None,Y,,,,,,,M,20,
8,14,134,3,3,3,['d'],['d'],Y,N,None,Y,,,,,,,M,20,
9,0,135,8,8,3,['d'],['d'],Y,Y,['space'],Y,,,,,,,M,20,
9,1,136,12,12,3,['k'],['k'],Y,N,None,Y,,,,,,,M,20,
9,2,137,10,10,3,['k'],['k'],Y,Y,['space'],Y,,,,,,,M,20,
9,3,138,8,8,3,['d'],['d'],Y,N,None,Y,,,,,,,M,20,
9,4,139,5,5,3,['d'],['d'],Y,N,None,Y,,,,,,,M,20,
9,5,140,12,12,3,['d'],['d'],Y,Y,['space'],Y,,,,,,,M,20,
9,6,141,7,7,3,['k'],['k'],Y,N,None,Y,,,,,,,M,20,
9,7,142,12,12,3,['d'],['d'],Y,Y,None,N,,,,,,,M,20,
9,8,143,5,5,3,['d'],['d'],Y,N,None,Y,,,,,,,M,20,
9,9,144,5,5,3,['k'],['d'],N,Y,['space'],Y,,,,,,,M,20,
9,10,145,5,5,3,['k'],['k'],Y,N,None,Y,,,,,,,M,20,
9,11,146,11,11,3,['k'],['k'],Y,N,None,Y,,,,,,,M,20,
9,12,147,12,12,3,['k'],['k'],Y,N,None,Y,,,,,,,M,20,
9,13,148,4,4,3,['k'],['k'],Y,N,None,Y,,,,,,,M,20,
9,14,149,3,3,3,['k'],['d'],N,N,None,Y,39,42,25,,,,M,20,
10,0,150,0,0,4,['k'],['k'],Y,,,,,,,,,,M,20,
10,1,151,4,4,4,['d'],['d'],Y,,,,,,,,,,M,20,
10,2,152,1,1,4,['d'],['d'],Y,N,None,Y,,,,,,,M,20,
10,3,153,4,4,4,['k'],['k'],Y,Y,['space'],Y,,,,,,,M,20,
10,4,154,12,12,4,['d'],['d'],Y,N,None,Y,,,,,,,M,20,
10,5,155,3,3,4,['k'],['k'],Y,N,None,Y,,,,,,,M,20,
10,6,156,3,3,4,['d'],['d'],Y,N,None,Y,,,,,,,M,20,
10,7,157,6,6,4,['k'],['k'],Y,Y,['space'],Y,,,,,,,M,20,
10,8,158,12,12,4,['k'],['k'],Y,Y,['space'],Y,,,,,,,M,20,
10,9,159,10,10,4,['k'],['k'],Y,N,None,Y,,,,,,,M,20,
10,10,160,2,2,4,['k'],['k'],Y,Y,['space'],Y,,,,,,,M,20,
10,11,161,3,3,4,['k'],['d'],N,N,['space'],N,,,,,,,M,20,
10,12,162,3,3,4,['d'],['d'],Y,Y,['space'],Y,,,,,,,M,20,
10,13,163,11,11,4,['k'],['d'],N,N,None,Y,,,,,,,M,20,
10,14,164,13,13,4,['d'],['d'],Y,Y,None,N,,,,,,,M,20,
11,0,165,9,9,4,['d'],['d'],Y,Y,['space'],Y,,,,,,,M,20,
11,1,166,9,9,4,['d'],['k'],N,N,None,Y,,,,,,,M,20,
11,2,167,7,7,4,['k'],['k'],Y,N,None,Y,,,,,,,M,20,
11,3,168,4,4,4,['k'],['k'],Y,Y,None,N,,,,,,,M,20,
11,4,169,11,11,4,['d'],['d'],Y,Y,None,N,,,,,,,M,20,
11,5,170,11,11,4,['d'],['d'],Y,N,None,Y,,,,,,,M,20,
11,6,171,4,4,4,['k'],['k'],Y,N,None,Y,,,,,,,M,20,
11,7,172,13,13,4,['k'],['k'],Y,Y,['space'],Y,,,,,,,M,20,
11,8,173,0,0,4,['d'],['d'],Y,N,None,Y,,,,,,,M,20,
11,9,174,7,7,4,['k'],['k'],Y,N,None,Y,,,,,,,M,20,
11,10,175,1,1,4,['k'],['k'],Y,Y,['space'],Y,,,,,,,M,20,
11,11,176,10,10,4,['d'],['k'],N,Y,None,N,,,,,,,M,20,
11,12,177,10,10,4,['d'],['d'],Y,N,None,Y,,,,,,,M,20,
11,13,178,6,6,4,['k'],['k'],Y,Y,['space'],Y,,,,,,,M,20,
11,14,179,9,9,4,['d'],['d'],Y,Y,['space'],Y,,,,,,,M,20,
12,0,180,12,12,4,['k'],['k'],Y,N,None,Y,,,,,,,M,20,
12,1,181,6,6,4,['k'],['k'],Y,Y,['space'],Y,,,,,,,M,20,
12,2,182,5,5,4,['d'],['d'],Y,Y,['space'],Y,,,,,,,M,20,
12,3,183,0,0,4,['k'],['k'],Y,N,None,Y,,,,,,,M,20,
12,4,184,11,11,4,['k'],['d'],N,Y,None,N,,,,,,,M,20,
12,5,185,13,13,4,['k'],['d'],N,N,None,Y,,,,,,,M,20,
12,6,186,12,12,4,['k'],['k'],Y,N,None,Y,,,,,,,M,20,
12,7,187,10,10,4,['d'],['d'],Y,N,None,Y,,,,,,,M,20,
12,8,188,3,3,4,['d'],['d'],Y,Y,['space'],Y,,,,,,,M,20,
12,9,189,9,9,4,['k'],['k'],Y,N,None,Y,,,,,,,M,20,
12,10,190,1,1,4,['k'],['d'],N,Y,['space'],Y,,,,,,,M,20,
12,11,191,1,1,4,['d'],['d'],Y,N,None,Y,,,,,,,M,20,
12,12,192,0,0,4,['k'],['k'],Y,N,None,Y,,,,,,,M,20,
12,13,193,9,9,4,['d'],['k'],N,N,None,Y,,,,,,,M,20,
12,14,194,12,12,4,['d'],['d'],Y,Y,['space'],Y,,,,,,,M,20,
13,0,195,2,2,4,['k'],['d'],N,Y,['space'],Y,,,,,,,M,20,
13,1,196,4,4,4,['d'],['d'],Y,N,None,Y,,,,,,,M,20,
13,2,197,7,7,4,['d'],['d'],Y,N,None,Y,,,,,,,M,20,
13,3,198,0,0,4,['k'],['k'],Y,N,None,Y,,,,,,,M,20,
13,4,199,7,7,4,['k'],['k'],Y,N,None,Y,41,42,21,,,,M,20,
13,5,200,14,14,5,['d'],['k'],N,,,,,,,,,,M,20,
13,6,201,8,8,5,['d'],['d'],Y,,,,,,,,,,M,20,
13,7,202,1,1,5,['d'],['d'],Y,N,None,Y,,,,,,,M,20,
13,8,203,1,1,5,['d'],['d'],Y,Y,['space'],Y,,,,,,,M,20,
13,9,204,1,1,5,['d'],['d'],Y,N,None,Y,,,,,,,M,20,
13,10,205,13,13,5,['d'],['d'],Y,N,None,Y,,,,,,,M,20,
13,11,206,2,2,5,['d'],['d'],Y,Y,['space'],Y,,,,,,,M,20,
13,12,207,5,5,5,['k'],['k'],Y,Y,['space'],Y,,,,,,,M,20,
13,13,208,10,10,5,['d'],['d'],Y,N,None,Y,,,,,,,M,20,
13,14,209,8,8,5,['d'],['d'],Y,N,None,Y,,,,,,,M,20,
14,0,210,12,12,5,['k'],['d'],N,Y,['space'],Y,,,,,,,M,20,
14,1,211,1,1,5,['d'],['d'],Y,Y,None,N,,,,,,,M,20,
14,2,212,6,6,5,['d'],['d'],Y,N,None,Y,,,,,,,M,20,
14,3,213,8,8,5,['k'],['k'],Y,Y,['space'],Y,,,,,,,M,20,
14,4,214,3,3,5,['k'],['k'],Y,Y,['space'],Y,,,,,,,M,20,
14,5,215,6,6,5,['k'],['d'],N,Y,['space'],Y,,,,,,,M,20,
14,6,216,10,10,5,['d'],['d'],Y,Y,['space'],Y,,,,,,,M,20,
14,7,217,8,8,5,['d'],['d'],Y,Y,['space'],Y,,,,,,,M,20,
14,8,218,13,13,5,['k'],['k'],Y,N,None,Y,,,,,,,M,20,
14,9,219,3,3,5,['d'],['d'],Y,N,None,Y,,,,,,,M,20,
14,10,220,12,12,5,['k'],['k'],Y,N,None,Y,,,,,,,M,20,
14,11,221,4,4,5,['d'],['d'],Y,N,None,Y,,,,,,,M,20,
14,12,222,4,4,5,['d'],['d'],Y,Y,['space'],Y,,,,,,,M,20,
14,13,223,0,0,5,['d'],['d'],Y,Y,['space'],Y,,,,,,,M,20,
14,14,224,7,7,5,['d'],['k'],N,N,None,Y,,,,,,,M,20,
15,0,225,5,5,5,['d'],['d'],Y,N,None,Y,,,,,,,M,20,
15,1,226,13,13,5,['k'],['k'],Y,N,None,Y,,,,,,,M,20,
15,2,227,14,14,5,['k'],['k'],Y,N,None,Y,,,,,,,M,20,
15,3,228,5,5,5,['k'],['d'],N,Y,['space'],Y,,,,,,,M,20,
15,4,229,9,9,5,['k'],['k'],Y,N,None,Y,,,,,,,M,20,
15,5,230,1,1,5,['d'],['d'],Y,N,None,Y,,,,,,,M,20,
15,6,231,5,5,5,['d'],['k'],N,Y,['space'],Y,,,,,,,M,20,
15,7,232,9,9,5,['k'],['k'],Y,N,['space'],N,,,,,,,M,20,
15,8,233,4,4,5,['d'],['d'],Y,Y,None,N,,,,,,,M,20,
15,9,234,8,8,5,['d'],['d'],Y,Y,['space'],Y,,,,,,,M,20,
15,10,235,5,5,5,['d'],['d'],Y,Y,['space'],Y,,,,,,,M,20,
15,11,236,0,0,5,['k'],['d'],N,N,None,Y,,,,,,,M,20,
15,12,237,2,2,5,['d'],['d'],Y,Y,['space'],Y,,,,,,,M,20,
15,13,238,6,6,5,['d'],['d'],Y,Y,['space'],Y,,,,,,,M,20,
15,14,239,2,2,5,['k'],['k'],Y,Y,['space'],Y,,,,,,,M,20,
16,0,240,1,1,5,['k'],['k'],Y,Y,['space'],Y,,,,,,,M,20,
16,1,241,2,2,5,['d'],['d'],Y,N,None,Y,,,,,,,M,20,
16,2,242,4,4,5,['d'],['d'],Y,N,None,Y,,,,,,,M,20,
16,3,243,1,1,5,['d'],['d'],Y,N,None,Y,,,,,,,M,20,
16,4,244,4,4,5,['d'],['d'],Y,Y,['space'],Y,,,,,,,M,20,
16,5,245,14,14,5,['k'],['d'],N,N,None,Y,,,,,,,M,20,
16,6,246,11,11,5,['d'],['d'],Y,N,None,Y,,,,,,,M,20,
16,7,247,4,4,5,['d'],['d'],Y,Y,None,N,,,,,,,M,20,
16,8,248,14,14,5,['d'],['k'],N,Y,['space'],Y,,,,,,,M,20,
16,9,249,12,12,5,['k'],['k'],Y,N,None,Y,41,44,24,,,,M,20,
16,10,250,11,11,6,['k'],['k'],Y,,,,,,,,,,M,20,
16,11,251,14,14,6,['k'],['k'],Y,,,,,,,,,,M,20,
16,12,252,10,10,6,['k'],['k'],Y,N,None,Y,,,,,,,M,20,
16,13,253,6,6,6,['d'],['d'],Y,N,None,Y,,,,,,,M,20,
16,14,254,12,12,6,['k'],['d'],N,N,None,Y,,,,,,,M,20,
17,0,255,0,0,6,['k'],['k'],Y,Y,['d'],N,,,,,,,M,20,
17,1,256,8,8,6,['d'],['d'],Y,N,None,Y,,,,,,,M,20,
17,2,257,4,4,6,['d'],['k'],N,N,None,Y,,,,,,,M,20,
17,3,258,2,2,6,['k'],['k'],Y,Y,['space'],Y,,,,,,,M,20,
17,4,259,12,12,6,['d'],['d'],Y,N,None,Y,,,,,,,M,20,
17,5,260,10,10,6,['d'],['d'],Y,N,None,Y,,,,,,,M,20,
17,6,261,8,8,6,['d'],['d'],Y,N,None,Y,,,,,,,M,20,
17,7,262,8,8,6,['d'],['d'],Y,Y,['space'],Y,,,,,,,M,20,
17,8,263,9,9,6,['d'],['d'],Y,N,None,Y,,,,,,,M,20,
17,9,264,6,6,6,['k'],['k'],Y,N,None,Y,,,,,,,M,20,
17,10,265,5,5,6,['d'],['d'],Y,N,None,Y,,,,,,,M,20,
17,11,266,2,2,6,['d'],['d'],Y,N,None,Y,,,,,,,M,20,
17,12,267,3,3,6,['d'],['k'],N,Y,['space'],Y,,,,,,,M,20,
17,13,268,3,3,6,['d'],['d'],Y,N,None,Y,,,,,,,M,20,
17,14,269,3,3,6,['k'],['k'],Y,Y,['space'],Y,,,,,,,M,20,
18,0,270,9,9,6,['k'],['d'],N,N,None,Y,,,,,,,M,20,
18,1,271,12,12,6,['d'],['d'],Y,N,None,Y,,,,,,,M,20,
18,2,272,10,10,6,['k'],['d'],N,N,None,Y,,,,,,,M,20,
18,3,273,6,6,6,['d'],['k'],N,Y,['space'],Y,,,,,,,M,20,
18,4,274,0,0,6,['k'],['k'],Y,Y,['space'],Y,,,,,,,M,20,
18,5,275,10,10,6,['d'],['d'],Y,Y,['space'],Y,,,,,,,M,20,
18,6,276,8,8,6,['d'],['d'],Y,N,None,Y,,,,,,,M,20,
18,7,277,9,9,6,['d'],['k'],N,Y,['space'],Y,,,,,,,M,20,
18,8,278,4,4,6,['k'],['d'],N,N,None,Y,,,,,,,M,20,
18,9,279,12,12,6,['d'],['d'],Y,Y,['space'],Y,,,,,,,M,20,
18,10,280,1,1,6,['d'],['d'],Y,N,None,Y,,,,,,,M,20,
18,11,281,6,6,6,['k'],['k'],Y,N,None,Y,,,,,,,M,20,
18,12,282,8,8,6,['d'],['k'],N,Y,['space'],Y,,,,,,,M,20,
18,13,283,11,11,6,['k'],['d'],N,N,None,Y,,,,,,,M,20,
18,14,284,10,10,6,['k'],['k'],Y,N,None,Y,,,,,,,M,20,
19,0,285,9,9,6,['d'],['d'],Y,N,None,Y,,,,,,,M,20,
19,1,286,5,5,6,['k'],['k'],Y,Y,['space'],Y,,,,,,,M,20,
19,2,287,2,2,6,['d'],['d'],Y,N,None,Y,,,,,,,M,20,
19,3,288,14,14,6,['k'],['k'],Y,N,['space'],N,,,,,,,M,20,
19,4,289,3,3,6,['d'],['d'],Y,N,None,Y,,,,,,,M,20,
19,5,290,10,10,6,['k'],['k'],Y,N,['space'],N,,,,,,,M,20,
19,6,291,0,0,6,['k'],['k'],Y,N,None,Y,,,,,,,M,20,
19,7,292,12,12,6,['k'],['d'],N,Y,['space'],Y,,,,,,,M,20,
19,8,293,0,0,6,['d'],['d'],Y,N,None,Y,,,,,,,M,20,
19,9,294,1,1,6,['k'],['d'],N,N,None,Y,,,,,,,M,20,
19,10,295,13,13,6,['k'],['k'],Y,N,None,Y,,,,,,,M,20,
19,11,296,14,14,6,['k'],['d'],N,N,None,Y,,,,,,,M,20,
19,12,297,1,1,6,['d'],['d'],Y,Y,['space'],Y,,,,,,,M,20,
19,13,298,0,0,6,['k'],['k'],Y,Y,['space'],Y,,,,,,,M,20,
19,14,299,5,5,6,['k'],['k'],Y,Y,['space'],Y,37,45,16,,,,M,20,
20,0,300,9,9,7,['k'],['k'],Y,,,,,,,,,,M,20,
20,1,301,5,5,7,['k'],['k'],Y,,,,,,,,,,M,20,
20,2,302,0,0,7,['d'],['k'],N,Y,['space'],Y,,,,,,,M,20,
20,3,303,14,14,7,['d'],['d'],Y,Y,['space'],Y,,,,,,,M,20,
20,4,304,11,11,7,['d'],['d'],Y,Y,['space'],Y,,,,,,,M,20,
20,5,305,8,8,7,['k'],['k'],Y,Y,['space'],Y,,,,,,,M,20,
20,6,306,6,6,7,['d'],['d'],Y,N,None,Y,,,,,,,M,20,
20,7,307,7,7,7,['k'],['k'],Y,Y,['space'],Y,,,,,,,M,20,
20,8,308,7,7,7,['d'],['d'],Y,Y,['space'],Y,,,,,,,M,20,
20,9,309,1,1,7,['d'],['d'],Y,Y,['space'],Y,,,,,,,M,20,
20,10,310,6,6,7,['d'],['d'],Y,N,None,Y,,,,,,,M,20,
20,11,311,10,10,7,['d'],['d'],Y,Y,['space'],Y,,,,,,,M,20,
20,12,312,10,10,7,['d'],['d'],Y,Y,['space'],Y,,,,,,,M,20,
20,13,313,11,11,7,['k'],['k'],Y,N,['space'],N,,,,,,,M,20,
20,14,314,12,12,7,['d'],['d'],Y,Y,None,N,,,,,,,M,20,
21,0,315,10,10,7,['k'],['k'],Y,Y,['space'],Y,,,,,,,M,20,
21,1,316,14,14,7,['k'],['k'],Y,Y,['space'],Y,,,,,,,M,20,
21,2,317,2,2,7,['k'],['k'],Y,N,None,Y,,,,,,,M,20,
21,3,318,14,14,7,['k'],['k'],Y,Y,['space'],Y,,,,,,,M,20,
21,4,319,12,12,7,['d'],['d'],Y,Y,['space'],Y,,,,,,,M,20,
21,5,320,0,0,7,['d'],['d'],Y,N,None,Y,,,,,,,M,20,
21,6,321,7,7,7,['k'],['k'],Y,N,None,Y,,,,,,,M,20,
21,7,322,6,6,7,['d'],['d'],Y,N,None,Y,,,,,,,M,20,
21,8,323,6,6,7,['k'],['d'],N,Y,None,N,,,,,,,M,20,
21,9,324,11,11,7,['k'],['k'],Y,N,None,Y,,,,,,,M,20,
21,10,325,14,14,7,['k'],['k'],Y,N,None,Y,,,,,,,M,20,
21,11,326,11,11,7,['d'],['d'],Y,N,None,Y,,,,,,,M,20,
21,12,327,7,7,7,['d'],['k'],N,N,None,Y,,,,,,,M,20,
21,13,328,9,9,7,['d'],['d'],Y,N,None,Y,,,,,,,M,20,
21,14,329,13,13,7,['d'],['d'],Y,N,None,Y,,,,,,,M,20,
22,0,330,14,14,7,['d'],['d'],Y,N,None,Y,,,,,,,M,20,
22,1,331,0,0,7,['d'],['d'],Y,Y,None,N,,,,,,,M,20,
22,2,332,5,5,7,['d'],['d'],Y,Y,['space'],Y,,,,,,,M,20,
22,3,333,6,6,7,['k'],['d'],N,N,None,Y,,,,,,,M,20,
22,4,334,0,0,7,['d'],['d'],Y,N,None,Y,,,,,,,M,20,
22,5,335,14,14,7,['k'],['k'],Y,N,None,Y,,,,,,,M,20,
22,6,336,9,9,7,['k'],['k'],Y,N,None,Y,,,,,,,M,20,
22,7,337,11,11,7,['k'],['k'],Y,N,None,Y,,,,,,,M,20,
22,8,338,6,6,7,['d'],['d'],Y,Y,['space'],Y,,,,,,,M,20,
22,9,339,5,5,7,['d'],['k'],N,N,None,Y,,,,,,,M,20,
22,10,340,9,9,7,['d'],['d'],Y,Y,['space'],Y,,,,,,,M,20,
22,11,341,6,6,7,['d'],['d'],Y,N,None,Y,,,,,,,M,20,
22,12,342,2,2,7,['d'],['k'],N,Y,['space'],Y,,,,,,,M,20,
22,13,343,14,14,7,['d'],['d'],Y,Y,['space'],Y,,,,,,,M,20,
22,14,344,14,14,7,['d'],['d'],Y,N,None,Y,,,,,,,M,20,
23,0,345,0,0,7,['d'],['d'],Y,N,None,Y,,,,,,,M,20,
23,1,346,8,8,7,['k'],['k'],Y,Y,['space'],Y,,,,,,,M,20,
23,2,347,10,10,7,['k'],['d'],N,Y,['space'],Y,,,,,,,M,20,
23,3,348,11,11,7,['d'],['d'],Y,Y,['space'],Y,,,,,,,M,20,
23,4,349,13,13,7,['d'],['d'],Y,Y,['space'],Y,43,44,25,,,,M,20,
23,5,350,8,8,8,['k'],['k'],Y,,,,,,,,,,M,20,
23,6,351,4,4,8,['k'],['k'],Y,,,,,,,,,,M,20,
23,7,352,8,8,8,['d'],['d'],Y,Y,['space'],Y,,,,,,,M,20,
23,8,353,2,2,8,['k'],['k'],Y,N,None,Y,,,,,,,M,20,
23,9,354,7,7,8,['d'],['k'],N,N,None,Y,,,,,,,M,20,
23,10,355,10,10,8,['d'],['k'],N,Y,['space'],Y,,,,,,,M,20,
23,11,356,2,2,8,['k'],['d'],N,N,['space'],N,,,,,,,M,20,
23,12,357,0,0,8,['k'],['k'],Y,Y,['space'],Y,,,,,,,M,20,
23,13,358,2,2,8,['k'],['k'],Y,N,None,Y,,,,,,,M,20,
23,14,359,7,7,8,['k'],['d'],N,Y,['space'],Y,,,,,,,M,20,
24,0,360,2,2,8,['d'],['d'],Y,Y,['space'],Y,,,,,,,M,20,
24,1,361,7,7,8,['k'],['k'],Y,Y,['space'],Y,,,,,,,M,20,
24,2,362,4,4,8,['k'],['k'],Y,Y,['space'],Y,,,,,,,M,20,
24,3,363,7,7,8,['k'],['d'],N,N,None,Y,,,,,,,M,20,
24,4,364,12,12,8,['d'],['d'],Y,N,None,Y,,,,,,,M,20,
24,5,365,7,7,8,['k'],['d'],N,Y,['space'],Y,,,,,,,M,20,
24,6,366,3,3,8,['d'],['k'],N,Y,['space'],Y,,,,,,,M,20,
24,7,367,9,9,8,['k'],['d'],N,Y,['space'],Y,,,,,,,M,20,
24,8,368,6,6,8,['d'],['d'],Y,Y,['space'],Y,,,,,,,M,20,
24,9,369,12,12,8,['k'],['d'],N,Y,['space'],Y,,,,,,,M,20,
24,10,370,5,5,8,['k'],['k'],Y,Y,['space'],Y,,,,,,,M,20,
24,11,371,9,9,8,['d'],['d'],Y,N,None,Y,,,,,,,M,20,
24,12,372,10,10,8,['k'],['k'],Y,Y,['space'],Y,,,,,,,M,20,
24,13,373,12,12,8,['k'],['k'],Y,Y,['space'],Y,,,,,,,M,20,
24,14,374,13,13,8,['d'],['k'],N,N,None,Y,,,,,,,M,20,
25,0,375,3,3,8,['k'],['k'],Y,Y,['space'],Y,,,,,,,M,20,
25,1,376,14,14,8,['d'],['d'],Y,Y,['space'],Y,,,,,,,M,20,
25,2,377,8,8,8,['d'],['k'],N,Y,['space'],Y,,,,,,,M,20,
25,3,378,5,5,8,['k'],['k'],Y,Y,['space'],Y,,,,,,,M,20,
25,4,379,13,13,8,['k'],['k'],Y,N,None,Y,,,,,,,M,20,
25,5,380,12,12,8,['k'],['k'],Y,N,None,Y,,,,,,,M,20,
25,6,381,3,3,8,['d'],['d'],Y,N,None,Y,,,,,,,M,20,
25,7,382,4,4,8,['k'],['d'],N,N,None,Y,,,,,,,M,20,
25,8,383,9,9,8,['k'],['k'],Y,N,None,Y,,,,,,,M,20,
25,9,384,8,8,8,['k'],['d'],N,N,None,Y,,,,,,,M,20,
25,10,385,13,13,8,['k'],['k'],Y,Y,['space'],Y,,,,,,,M,20,
25,11,386,7,7,8,['k'],['k'],Y,N,None,Y,,,,,,,M,20,
25,12,387,0,0,8,['d'],['d'],Y,Y,None,N,,,,,,,M,20,
25,13,388,10,10,8,['d'],['k'],N,N,None,Y,,,,,,,M,20,
25,14,389,7,7,8,['k'],['k'],Y,Y,['space'],Y,,,,,,,M,20,
26,0,390,5,5,8,['d'],['d'],Y,N,None,Y,,,,,,,M,20,
26,1,391,2,2,8,['d'],['d'],Y,Y,None,N,,,,,,,M,20,
26,2,392,4,4,8,['d'],['d'],Y,N,None,Y,,,,,,,M,20,
26,3,393,7,7,8,['d'],['d'],Y,Y,['space'],Y,,,,,,,M,20,
26,4,394,3,3,8,['d'],['d'],Y,N,None,Y,,,,,,,M,20,
26,5,395,4,4,8,['d'],['d'],Y,Y,['space'],Y,,,,,,,M,20,
26,6,396,7,7,8,['d'],['d'],Y,N,None,Y,,,,,,,M,20,
26,7,397,11,11,8,['d'],['k'],N,N,None,Y,,,,,,,M,20,
26,8,398,2,2,8,['k'],['k'],Y,N,None,Y,,,,,,,M,20,
26,9,399,2,2,8,['k'],['k'],Y,N,['space'],N,35,44,25,,,,M,20,
26,10,400,0,0,9,['d'],['d'],Y,,,,,,,,,,M,20,
26,11,401,7,7,9,['k'],['k'],Y,,,,,,,,,,M,20,
26,12,402,13,13,9,['k'],['k'],Y,N,None,Y,,,,,,,M,20,
26,13,403,12,12,9,['k'],['k'],Y,N,None,Y,,,,,,,M,20,
26,14,404,5,5,9,['d'],['d'],Y,Y,None,N,,,,,,,M,20,
27,0,405,9,9,9,['k'],['k'],Y,Y,['space'],Y,,,,,,,M,20,
27,1,406,5,5,9,['k'],['d'],N,Y,['space'],Y,,,,,,,M,20,
27,2,407,3,3,9,['d'],['d'],Y,N,None,Y,,,,,,,M,20,
27,3,408,0,0,9,['d'],['d'],Y,Y,['space'],Y,,,,,,,M,20,
27,4,409,6,6,9,['d'],['k'],N,N,None,Y,,,,,,,M,20,
27,5,410,4,4,9,['k'],['k'],Y,Y,['space'],Y,,,,,,,M,20,
27,6,411,10,10,9,['k'],['k'],Y,Y,['space'],Y,,,,,,,M,20,
27,7,412,11,11,9,['k'],['k'],Y,Y,['space'],Y,,,,,,,M,20,
27,8,413,6,6,9,['k'],['k'],Y,N,['space'],N,,,,,,,M,20,
27,9,414,8,8,9,['k'],['d'],N,Y,['space'],Y,,,,,,,M,20,
27,10,415,8,8,9,['k'],['k'],Y,N,None,Y,,,,,,,M,20,
27,11,416,12,12,9,['k'],['k'],Y,Y,['space'],Y,,,,,,,M,20,
27,12,417,10,10,9,['d'],['d'],Y,N,None,Y,,,,,,,M,20,
27,13,418,11,11,9,['k'],['k'],Y,Y,None,N,,,,,,,M,20,
27,14,419,14,14,9,['k'],['k'],Y,Y,['space'],Y,,,,,,,M,20,
28,0,420,14,14,9,['k'],['d'],N,Y,None,N,,,,,,,M,20,
28,1,421,12,12,9,['d'],['d'],Y,Y,['space'],Y,,,,,,,M,20,
28,2,422,7,7,9,['d'],['d'],Y,N,None,Y,,,,,,,M,20,
28,3,423,1,1,9,['d'],['d'],Y,Y,['space'],Y,,,,,,,M,20,
28,4,424,3,3,9,['d'],['d'],Y,N,None,Y,,,,,,,M,20,
28,5,425,7,7,9,['k'],['k'],Y,N,['space'],N,,,,,,,M,20,
28,6,426,3,3,9,['d'],['d'],Y,Y,['space'],Y,,,,,,,M,20,
28,7,427,11,11,9,['d'],['d'],Y,Y,['space'],Y,,,,,,,M,20,
28,8,428,4,4,9,['k'],['k'],Y,Y,['space'],Y,,,,,,,M,20,
28,9,429,9,9,9,['k'],['k'],Y,N,None,Y,,,,,,,M,20,
28,10,430,1,1,9,['d'],['d'],Y,Y,['space'],Y,,,,,,,M,20,
28,11,431,13,13,9,['k'],['k'],Y,N,None,Y,,,,,,,M,20,
28,12,432,9,9,9,['k'],['k'],Y,N,['space'],N,,,,,,,M,20,
28,13,433,0,0,9,['k'],['k'],Y,N,None,Y,,,,,,,M,20,
28,14,434,6,6,9,['k'],['k'],Y,N,None,Y,,,,,,,M,20,
29,0,435,13,13,9,['k'],['k'],Y,Y,['space'],Y,,,,,,,M,20,
29,1,436,10,10,9,['d'],['d'],Y,Y,['space'],Y,,,,,,,M,20,
29,2,437,4,4,9,['d'],['d'],Y,N,None,Y,,,,,,,M,20,
29,3,438,5,5,9,['d'],['d'],Y,Y,['space'],Y,,,,,,,M,20,
29,4,439,7,7,9,['d'],['d'],Y,N,None,Y,,,,,,,M,20,
29,5,440,6,6,9,['k'],['k'],Y,N,None,Y,,,,,,,M,20,
29,6,441,6,6,9,['k'],['k'],Y,N,None,Y,,,,,,,M,20,
29,7,442,4,4,9,['k'],['k'],Y,N,None,Y,,,,,,,M,20,
29,8,443,13,13,9,['k'],['k'],Y,Y,['space'],Y,,,,,,,M,20,
29,9,444,8,8,9,['k'],['k'],Y,Y,['space'],Y,,,,,,,M,20,
29,10,445,6,6,9,['k'],['k'],Y,Y,['space'],Y,,,,,,,M,20,
29,11,446,8,8,9,['k'],['k'],Y,Y,['space'],Y,,,,,,,M,20,
29,12,447,13,13,9,['d'],['k'],N,N,None,Y,,,,,,,M,20,
29,13,448,1,1,9,['d'],['d'],Y,N,None,Y,,,,,,,M,20,
29,14,449,3,3,9,['d'],['d'],Y,N,None,Y,45,42,25,,,,M,20,
30,0,450,6,6,10,['d'],['d'],Y,,,,,,,,,,M,20,
30,1,451,10,10,10,['k'],['k'],Y,,,,,,,,,,M,20,
30,2,452,2,2,10,['d'],['d'],Y,Y,['space'],Y,,,,,,,M,20,
30,3,453,4,4,10,['d'],['d'],Y,N,None,Y,,,,,,,M,20,
30,4,454,1,1,10,['d'],['d'],Y,N,None,Y,,,,,,,M,20,
30,5,455,12,12,10,['d'],['d'],Y,N,None,Y,,,,,,,M,20,
30,6,456,1,1,10,['k'],['k'],Y,Y,['space'],Y,,,,,,,M,20,
30,7,457,7,7,10,['k'],['k'],Y,N,None,Y,,,,,,,M,20,
30,8,458,0,0,10,['d'],['d'],Y,Y,['space'],Y,,,,,,,M,20,
30,9,459,5,5,10,['k'],['k'],Y,Y,['space'],Y,,,,,,,M,20,
30,10,460,3,3,10,['k'],['d'],N,N,['space'],N,,,,,,,M,20,
30,11,461,11,11,10,['k'],['k'],Y,Y,['space'],Y,,,,,,,M,20,
30,12,462,13,13,10,['d'],['d'],Y,Y,['space'],Y,,,,,,,M,20,
30,13,463,1,1,10,['k'],['k'],Y,N,['space'],N,,,,,,,M,20,
30,14,464,11,11,10,['d'],['d'],Y,Y,['space'],Y,,,,,,,M,20,
31,0,465,13,13,10,['k'],['k'],Y,Y,['space'],Y,,,,,,,M,20,
31,1,466,8,8,10,['d'],['k'],N,N,None,Y,,,,,,,M,20,
31,2,467,7,7,10,['k'],['k'],Y,Y,['space'],Y,,,,,,,M,20,
31,3,468,14,14,10,['d'],['d'],Y,Y,['space'],Y,,,,,,,M,20,
31,4,469,12,12,10,['k'],['k'],Y,N,None,Y,,,,,,,M,20,
31,5,470,14,14,10,['k'],['k'],Y,N,None,Y,,,,,,,M,20,
31,6,471,0,0,10,['d'],['d'],Y,N,None,Y,,,,,,,M,20,
31,7,472,8,8,10,['d'],['d'],Y,Y,['space'],Y,,,,,,,M,20,
31,8,473,8,8,10,['k'],['k'],Y,N,None,Y,,,,,,,M,20,
31,9,474,13,13,10,['k'],['k'],Y,N,None,Y,,,,,,,M,20,
31,10,475,5,5,10,['k'],['k'],Y,Y,['space'],Y,,,,,,,M,20,
31,11,476,8,8,10,['k'],['k'],Y,Y,['space'],Y,,,,,,,M,20,
31,12,477,6,6,10,['k'],['k'],Y,Y,['space'],Y,,,,,,,M,20,
31,13,478,5,5,10,['d'],['d'],Y,Y,['space'],Y,,,,,,,M,20,
31,14,479,10,10,10,['d'],['d'],Y,N,None,Y,,,,,,,M,20,
32,0,480,5,5,10,['d'],['d'],Y,Y,['space'],Y,,,,,,,M,20,
32,1,481,12,12,10,['d'],['k'],N,Y,['space'],Y,,,,,,,M,20,
32,2,482,2,2,10,['k'],['k'],Y,N,None,Y,,,,,,,M,20,
32,3,483,10,10,10,['k'],['d'],N,N,None,Y,,,,,,,M,20,
32,4,484,7,7,10,['d'],['d'],Y,N,None,Y,,,,,,,M,20,
32,5,485,14,14,10,['k'],['d'],N,N,None,Y,,,,,,,M,20,
32,6,486,7,7,10,['k'],['k'],Y,Y,['space'],Y,,,,,,,M,20,
32,7,487,4,4,10,['k'],['k'],Y,N,None,Y,,,,,,,M,20,
32,8,488,13,13,10,['k'],['d'],N,Y,['space'],Y,,,,,,,M,20,
32,9,489,2,2,10,['k'],['k'],Y,Y,['space'],Y,,,,,,,M,20,
32,10,490,4,4,10,['d'],['d'],Y,N,['space'],N,,,,,,,M,20,
32,11,491,0,0,10,['d'],['d'],Y,Y,['space'],Y,,,,,,,M,20,
32,12,492,3,3,10,['d'],['d'],Y,Y,['space'],Y,,,,,,,M,20,
32,13,493,8,8,10,['d'],['k'],N,N,None,Y,,,,,,,M,20,
32,14,494,3,3,10,['d'],['d'],Y,N,None,Y,,,,,,,M,20,
33,0,495,7,7,10,['k'],['k'],Y,Y,['space'],Y,,,,,,,M,20,
33,1,496,12,12,10,['d'],['d'],Y,Y,['space'],Y,,,,,,,M,20,
33,2,497,7,7,10,['k'],['k'],Y,Y,['space'],Y,,,,,,,M,20,
33,3,498,2,2,10,['d'],['d'],Y,N,None,Y,,,,,,,M,20,
33,4,499,2,2,10,['k'],['k'],Y,N,['space'],N,43,44,25,,,,M,20,
33,5,500,9,9,11,['d'],['k'],Y,,,,,,,Y,Y,Y,M,20,
33,6,501,13,13,11,['k'],['d'],Y,,,,,,,,Y,Y,M,20,
33,7,502,0,0,11,['k'],['d'],Y,N,None,Y,,,,,Y,Y,M,20,
33,8,503,8,8,11,['d'],['k'],Y,N,None,Y,,,,,Y,Y,M,20,
33,9,504,14,14,11,['d'],['k'],Y,Y,['space'],Y,,,,,Y,Y,M,20,
33,10,505,6,6,11,['d'],['k'],Y,Y,['space'],Y,,,,,Y,Y,M,20,
33,11,506,7,7,11,['d'],['k'],Y,Y,['space'],Y,,,,,Y,Y,M,20,
33,12,507,12,12,11,['k'],['d'],Y,N,None,Y,,,,,Y,Y,M,20,
33,13,508,13,13,11,['d'],['k'],Y,N,None,Y,,,,,Y,Y,M,20,
33,14,509,13,13,11,['d'],['k'],Y,N,['space'],N,,,,,Y,Y,M,20,
34,0,510,4,4,11,['k'],['d'],Y,N,None,Y,,,,,Y,Y,M,20,
34,1,511,9,9,11,['d'],['k'],Y,N,None,Y,,,,,Y,Y,M,20,
34,2,512,11,11,11,['k'],['k'],N,N,None,Y,,,,,Y,Y,M,20,
34,3,513,12,12,11,['d'],['d'],N,N,None,Y,,,,,Y,Y,M,20,
34,4,514,1,1,11,['k'],['d'],Y,N,None,Y,,,,,Y,Y,M,20,
34,5,515,0,0,11,['k'],['d'],Y,N,None,Y,,,,,Y,Y,M,20,
34,6,516,4,4,11,['d'],['k'],Y,N,None,Y,,,,,Y,Y,M,20,
34,7,517,8,8,11,['k'],['d'],Y,N,None,Y,,,,,Y,Y,M,20,
34,8,518,8,8,11,['k'],['d'],Y,N,None,Y,,,,,Y,Y,M,20,
34,9,519,9,9,11,['k'],['d'],Y,N,None,Y,,,,,Y,Y,M,20,
34,10,520,14,14,11,['k'],['d'],Y,Y,['space'],Y,,,,,Y,Y,M,20,
34,11,521,2,2,11,['d'],['k'],Y,N,None,Y,,,,,Y,Y,M,20,
34,12,522,6,6,11,['d'],['k'],Y,N,None,Y,,,,,Y,Y,M,20,
34,13,523,8,8,11,['d'],['k'],Y,N,None,Y,,,,,Y,Y,M,20,
34,14,524,10,10,11,['d'],['d'],N,Y,['space'],Y,,,,,Y,Y,M,20,
35,0,525,13,13,11,['k'],['d'],Y,N,None,Y,,,,,Y,Y,M,20,
35,1,526,6,6,11,['d'],['k'],Y,Y,None,N,,,,,Y,Y,M,20,
35,2,527,7,7,11,['k'],['d'],Y,N,None,Y,,,,,Y,Y,M,20,
35,3,528,14,14,11,['d'],['k'],Y,Y,['space'],Y,,,,,Y,Y,M,20,
35,4,529,6,6,11,['k'],['d'],Y,N,None,Y,,,,,Y,Y,M,20,
35,5,530,11,11,11,['k'],['d'],Y,Y,['space'],Y,,,,,Y,Y,M,20,
35,6,531,2,2,11,['d'],['k'],Y,N,None,Y,,,,,Y,Y,M,20,
35,7,532,11,11,11,['k'],['k'],N,Y,['space'],Y,,,,,Y,Y,M,20,
35,8,533,10,10,11,['k'],['d'],Y,Y,['space'],Y,,,,,Y,Y,M,20,
35,9,534,6,6,11,['d'],['k'],Y,N,None,Y,,,,,Y,Y,M,20,
35,10,535,8,8,11,['k'],['k'],N,N,None,Y,,,,,Y,Y,M,20,
35,11,536,9,9,11,['k'],['d'],Y,N,None,Y,,,,,Y,Y,M,20,
35,12,537,3,3,11,['k'],['d'],Y,N,None,Y,,,,,Y,Y,M,20,
35,13,538,10,10,11,['d'],['k'],Y,Y,['space'],Y,,,,,Y,Y,M,20,
35,14,539,0,0,11,['k'],['d'],Y,Y,None,N,,,,,Y,Y,M,20,
36,0,540,5,5,11,['d'],['k'],Y,Y,['space'],Y,,,,,Y,Y,M,20,
36,1,541,6,6,11,['k'],['k'],N,N,None,Y,,,,,Y,Y,M,20,
36,2,542,1,1,11,['k'],['k'],N,Y,['space'],Y,,,,,Y,Y,M,20,
36,3,543,12,12,11,['d'],['k'],Y,Y,['space'],Y,,,,,Y,Y,M,20,
36,4,544,6,6,11,['d'],['k'],Y,Y,['space'],Y,,,,,Y,Y,M,20,
36,5,545,1,1,11,['d'],['k'],Y,Y,['space'],Y,,,,,Y,Y,M,20,
36,6,546,5,5,11,['k'],['k'],N,Y,['space'],Y,,,,,Y,Y,M,20,
36,7,547,13,13,11,['k'],['k'],N,N,None,Y,,,,,Y,Y,M,20,
36,8,548,10,10,11,['k'],['d'],Y,Y,['space'],Y,,,,,Y,Y,M,20,
36,9,549,10,10,11,['d'],['k'],Y,N,None,Y,41,45,19,,Y,Y,M,20,
36,10,550,2,2,12,['d'],['k'],Y,,,,,,,,Y,Y,M,20,
36,11,551,12,12,12,['d'],['d'],N,,,,,,,,Y,Y,M,20,
36,12,552,6,6,12,['d'],['k'],Y,Y,['space'],Y,,,,,Y,Y,M,20,
36,13,553,11,11,12,['k'],['d'],Y,N,None,Y,,,,,Y,Y,M,20,
36,14,554,0,0,12,['k'],['d'],Y,N,None,Y,,,,,Y,Y,M,20,
37,0,555,13,13,12,['d'],['k'],Y,Y,['space'],Y,,,,,Y,Y,M,20,
37,1,556,11,11,12,['k'],['d'],Y,N,None,Y,,,,,Y,Y,M,20,
37,2,557,5,5,12,['k'],['d'],Y,N,None,Y,,,,,Y,Y,M,20,
37,3,558,13,13,12,['d'],['k'],Y,N,None,Y,,,,,Y,Y,M,20,
37,4,559,11,11,12,['d'],['k'],Y,Y,['space'],Y,,,,,Y,Y,M,20,
37,5,560,11,11,12,['k'],['d'],Y,Y,['space'],Y,,,,,Y,Y,M,20,
37,6,561,11,11,12,['k'],['k'],N,Y,['space'],Y,,,,,Y,Y,M,20,
37,7,562,13,13,12,['d'],['k'],Y,Y,['space'],Y,,,,,Y,Y,M,20,
37,8,563,1,1,12,['d'],['d'],N,N,None,Y,,,,,Y,Y,M,20,
37,9,564,4,4,12,['d'],['k'],Y,N,None,Y,,,,,Y,Y,M,20,
37,10,565,9,9,12,['k'],['d'],Y,Y,['space'],Y,,,,,Y,Y,M,20,
37,11,566,11,11,12,['k'],['d'],Y,N,None,Y,,,,,Y,Y,M,20,
37,12,567,3,3,12,['d'],['k'],Y,N,['space'],N,,,,,Y,Y,M,20,
37,13,568,3,3,12,['k'],['d'],Y,Y,['space'],Y,,,,,Y,Y,M,20,
37,14,569,13,13,12,['k'],['d'],Y,Y,['space'],Y,,,,,Y,Y,M,20,
38,0,570,13,13,12,['d'],['d'],N,N,None,Y,,,,,Y,Y,M,20,
38,1,571,8,8,12,['d'],['k'],Y,Y,None,N,,,,,Y,Y,M,20,
38,2,572,9,9,12,['d'],['k'],Y,N,None,Y,,,,,Y,Y,M,20,
38,3,573,7,7,12,['d'],['d'],N,N,None,Y,,,,,Y,Y,M,20,
38,4,574,2,2,12,['d'],['k'],Y,N,None,Y,,,,,Y,Y,M,20,
38,5,575,1,1,12,['k'],['d'],Y,N,None,Y,,,,,Y,Y,M,20,
38,6,576,9,9,12,['d'],['k'],Y,N,None,Y,,,,,Y,Y,M,20,
38,7,577,0,0,12,['k'],['d'],Y,N,None,Y,,,,,Y,Y,M,20,
38,8,578,3,3,12,['d'],['k'],Y,Y,['space'],Y,,,,,Y,Y,M,20,
38,9,579,6,6,12,['d'],['k'],Y,N,None,Y,,,,,Y,Y,M,20,
38,10,580,14,14,12,['d'],['k'],Y,N,None,Y,,,,,Y,Y,M,20,
38,11,581,2,2,12,['k'],['d'],Y,N,None,Y,,,,,Y,Y,M,20,
38,12,582,1,1,12,['k'],['k'],N,Y,['space'],Y,,,,,Y,Y,M,20,
38,13,583,14,14,12,['d'],['k'],Y,N,['space'],N,,,,,Y,Y,M,20,
38,14,584,10,10,12,['k'],['k'],N,N,['space'],N,,,,,Y,Y,M,20,
39,0,585,0,0,12,['k'],['d'],Y,N,None,Y,,,,,Y,Y,M,20,
39,1,586,11,11,12,['d'],['k'],Y,Y,None,N,,,,,Y,Y,M,20,
39,2,587,4,4,12,['d'],['k'],Y,N,None,Y,,,,,Y,Y,M,20,
39,3,588,1,1,12,['d'],['k'],Y,Y,['space'],Y,,,,,Y,Y,M,20,
39,4,589,0,0,12,['d'],['k'],Y,Y,['space'],Y,,,,,Y,Y,M,20,
39,5,590,6,6,12,['d'],['d'],N,N,None,Y,,,,,Y,Y,M,20,
39,6,591,1,1,12,['d'],['k'],Y,N,None,Y,,,,,Y,Y,M,20,
39,7,592,7,7,12,['d'],['k'],Y,N,None,Y,,,,,Y,Y,M,20,
39,8,593,3,3,12,['d'],['k'],Y,N,['space'],N,,,,,Y,Y,M,20,
39,9,594,6,6,12,['d'],['k'],Y,Y,['space'],Y,,,,,Y,Y,M,20,
39,10,595,9,9,12,['k'],['d'],Y,N,None,Y,,,,,Y,Y,M,20,
39,11,596,3,3,12,['k'],['k'],N,Y,['space'],Y,,,,,Y,Y,M,20,
39,12,597,12,12,12,['k'],['d'],Y,Y,['space'],Y,,,,,Y,Y,M,20,
39,13,598,4,4,12,['d'],['k'],Y,N,None,Y,,,,,Y,Y,M,20,
39,14,599,14,14,12,['d'],['k'],Y,Y,None,N,41,41,19,,Y,Y,M,20,
