.thisRepN,.thisTrialN,.thisN,.thisIndex,.thisTrial,Block Number,Key pressed,Category,Correct?,Int Match?,Int Response,Int Correct?,Line Accuracy,Interference Accuracy,Matching Interferences,New instruction shown?,Buttons switched?,Fast?,gender,age,
0,0,0,8,8,1,['k'],['d'],N,,,,,,,,,,M,21,
0,1,1,5,5,1,['d'],['d'],Y,,,,,,,,,,M,21,
0,2,2,9,9,1,['d'],['k'],N,N,None,Y,,,,,,,M,21,
0,3,3,9,9,1,['k'],['d'],N,Y,['k'],N,,,,,,,M,21,
0,4,4,8,8,1,['k'],['d'],N,Y,None,N,,,,,,,M,21,
0,5,5,6,6,1,['d'],['d'],Y,Y,None,N,,,,,,,M,21,
0,6,6,7,7,1,['k'],['d'],N,N,None,Y,,,,,,,M,21,
0,7,7,3,3,1,['d'],['d'],Y,N,None,Y,,,,,,,M,21,
0,8,8,6,6,1,['d'],['k'],N,N,None,Y,,,,,,,M,21,
0,9,9,1,1,1,['d'],['k'],N,N,None,Y,,,,,,,M,21,
0,10,10,3,3,1,['k'],['k'],Y,N,['space'],N,,,,,,,M,21,
1,0,11,4,4,1,['k'],['k'],Y,Y,None,N,,,,,,,M,21,
1,1,12,2,2,1,['d'],['k'],N,Y,None,N,,,,,,,M,21,
1,2,13,8,8,1,['k'],['k'],Y,N,None,Y,,,,,,,M,21,
1,3,14,10,10,1,['k'],['k'],Y,Y,None,N,,,,,,,M,21,
1,4,15,5,5,1,['d'],['k'],N,Y,None,N,,,,,,,M,21,
1,5,16,7,7,1,['d'],['k'],N,Y,['space'],Y,,,,,,,M,21,
1,6,17,5,5,1,['k'],['d'],N,N,None,Y,,,,,,,M,21,
1,7,18,0,0,1,['d'],['d'],Y,N,None,Y,,,,,,,M,21,
1,8,19,9,9,1,['k'],['d'],N,Y,None,N,,,,,,,M,21,
1,9,20,3,3,1,['k'],['d'],N,N,None,Y,,,,,,,M,21,
1,10,21,10,10,1,['d'],['d'],Y,N,None,Y,,,,,,,M,21,
2,0,22,2,2,1,['d'],['d'],Y,Y,None,N,,,,,,,M,21,
2,1,23,4,4,1,['k'],['d'],N,Y,None,N,,,,,,,M,21,
2,2,24,0,0,1,['d'],['d'],Y,N,None,Y,,,,,,,M,21,
2,3,25,9,9,1,['k'],['d'],N,N,None,Y,,,,,,,M,21,
2,4,26,2,2,1,['k'],['d'],N,Y,None,N,,,,,,,M,21,
2,5,27,1,1,1,['d'],['k'],N,Y,None,N,,,,,,,M,21,
2,6,28,9,9,1,['k'],['d'],N,N,None,Y,,,,,,,M,21,
2,7,29,5,5,1,['d'],['d'],Y,Y,['space'],Y,,,,,,,M,21,
2,8,30,9,9,1,['d'],['k'],N,N,None,Y,,,,,,,M,21,
2,9,31,8,8,1,['k'],['k'],Y,N,None,Y,,,,,,,M,21,
2,10,32,7,7,1,['d'],['k'],N,Y,['space'],Y,,,,,,,M,21,
3,0,33,4,4,1,['k'],['d'],N,Y,None,N,,,,,,,M,21,
3,1,34,8,8,1,['d'],['d'],Y,Y,None,N,,,,,,,M,21,
3,2,35,4,4,1,['k'],['d'],N,Y,None,N,,,,,,,M,21,
3,3,36,9,9,1,['k'],['k'],Y,N,None,Y,,,,,,,M,21,
3,4,37,10,10,1,['d'],['k'],N,Y,['space'],Y,,,,,,,M,21,
3,5,38,2,2,1,['d'],['d'],Y,N,['space'],N,,,,,,,M,21,
3,6,39,9,9,1,['d'],['d'],Y,Y,None,N,,,,,,,M,21,
3,7,40,0,0,1,['k'],['k'],Y,N,None,Y,,,,,,,M,21,
3,8,41,0,0,1,['d'],['d'],Y,Y,['space'],Y,,,,,,,M,21,
3,9,42,9,9,1,['d'],['k'],N,Y,['space'],Y,,,,,,,M,21,
3,10,43,4,4,1,['k'],['k'],Y,N,None,Y,,,,,,,M,21,
4,0,44,9,9,1,['d'],['d'],Y,N,None,Y,,,,,,,M,21,
4,1,45,9,9,1,['d'],['d'],Y,Y,None,N,,,,,,,M,21,
4,2,46,8,8,1,['k'],['k'],Y,N,None,Y,,,,,,,M,21,
4,3,47,4,4,1,['k'],['d'],N,Y,None,N,,,,,,,M,21,
4,4,48,0,0,1,['k'],['k'],Y,Y,None,N,,,,,,,M,21,
4,5,49,9,9,1,['k'],['d'],N,N,['space'],N,24,26,25,,,,M,21,
4,6,50,6,6,2,['k'],['k'],Y,,,,,,,,,,M,21,
4,7,51,3,3,2,['k'],['k'],Y,,,,,,,,,,M,21,
4,8,52,4,4,2,['d'],['d'],Y,N,None,Y,,,,,,,M,21,
4,9,53,2,2,2,['k'],['k'],Y,Y,['space'],Y,,,,,,,M,21,
4,10,54,9,9,2,['k'],['k'],Y,N,None,Y,,,,,,,M,21,
5,0,55,10,10,2,['d'],['d'],Y,N,None,Y,,,,,,,M,21,
5,1,56,2,2,2,['k'],['k'],Y,Y,['space'],Y,,,,,,,M,21,
5,2,57,8,8,2,['k'],['k'],Y,N,None,Y,,,,,,,M,21,
5,3,58,1,1,2,['d'],['k'],N,N,None,Y,,,,,,,M,21,
5,4,59,0,0,2,['d'],['k'],N,Y,None,N,,,,,,,M,21,
5,5,60,3,3,2,['d'],['d'],Y,N,None,Y,,,,,,,M,21,
5,6,61,9,9,2,['k'],['k'],Y,N,None,Y,,,,,,,M,21,
5,7,62,2,2,2,['k'],['k'],Y,N,None,Y,,,,,,,M,21,
5,8,63,0,0,2,['k'],['d'],N,N,None,Y,,,,,,,M,21,
5,9,64,8,8,2,['d'],['k'],N,N,None,Y,,,,,,,M,21,
5,10,65,8,8,2,['k'],['k'],Y,Y,None,N,,,,,,,M,21,
6,0,66,10,10,2,['d'],['d'],Y,Y,None,N,,,,,,,M,21,
6,1,67,8,8,2,['d'],['k'],N,Y,None,N,,,,,,,M,21,
6,2,68,8,8,2,['d'],['d'],Y,N,None,Y,,,,,,,M,21,
6,3,69,4,4,2,['d'],['d'],Y,N,None,Y,,,,,,,M,21,
6,4,70,9,9,2,['k'],['d'],N,Y,None,N,,,,,,,M,21,
6,5,71,10,10,2,['d'],['k'],N,N,None,Y,,,,,,,M,21,
6,6,72,4,4,2,['k'],['k'],Y,Y,None,N,,,,,,,M,21,
6,7,73,10,10,2,['k'],['k'],Y,N,None,Y,,,,,,,M,21,
6,8,74,7,7,2,['k'],['k'],Y,N,None,Y,,,,,,,M,21,
6,9,75,10,10,2,['k'],['k'],Y,N,None,Y,,,,,,,M,21,
6,10,76,10,10,2,['d'],['k'],N,Y,['space'],Y,,,,,,,M,21,
7,0,77,3,3,2,['k'],['k'],Y,N,None,Y,,,,,,,M,21,
7,1,78,4,4,2,['d'],['k'],N,N,None,Y,,,,,,,M,21,
7,2,79,1,1,2,['k'],['k'],Y,Y,['space'],Y,,,,,,,M,21,
7,3,80,2,2,2,['k'],['k'],Y,Y,None,N,,,,,,,M,21,
7,4,81,1,1,2,['k'],['k'],Y,Y,['space'],Y,,,,,,,M,21,
7,5,82,7,7,2,['k'],['k'],Y,N,None,Y,,,,,,,M,21,
7,6,83,8,8,2,['k'],['k'],Y,N,None,Y,,,,,,,M,21,
7,7,84,5,5,2,['d'],['d'],Y,Y,None,N,,,,,,,M,21,
7,8,85,1,1,2,['d'],['d'],Y,Y,None,N,,,,,,,M,21,
7,9,86,5,5,2,['k'],['k'],Y,N,None,Y,,,,,,,M,21,
7,10,87,9,9,2,['k'],['k'],Y,Y,None,N,,,,,,,M,21,
8,0,88,6,6,2,['d'],['d'],Y,Y,['space'],Y,,,,,,,M,21,
8,1,89,8,8,2,['d'],['d'],Y,Y,['space'],Y,,,,,,,M,21,
8,2,90,8,8,2,['d'],['d'],Y,Y,['space'],Y,,,,,,,M,21,
8,3,91,8,8,2,['k'],['k'],Y,N,None,Y,,,,,,,M,21,
8,4,92,0,0,2,['d'],['d'],Y,Y,['space'],Y,,,,,,,M,21,
8,5,93,3,3,2,['k'],['d'],N,N,['space'],N,,,,,,,M,21,
8,6,94,5,5,2,['k'],['k'],Y,N,None,Y,,,,,,,M,21,
8,7,95,6,6,2,['d'],['d'],Y,Y,['space'],Y,,,,,,,M,21,
8,8,96,8,8,2,['k'],['k'],Y,N,None,Y,,,,,,,M,21,
8,9,97,3,3,2,['k'],['k'],Y,N,None,Y,,,,,,,M,21,
8,10,98,10,10,2,['d'],['d'],Y,Y,['space'],Y,,,,,,,M,21,
9,0,99,10,10,2,['k'],['k'],Y,Y,['space'],Y,40,37,22,,,,M,21,
9,1,100,2,2,3,['k'],['k'],Y,,,,,,,,,,M,21,
9,2,101,1,1,3,['k'],['k'],Y,,,,,,,,,,M,21,
9,3,102,0,0,3,['k'],['k'],Y,Y,['space'],Y,,,,,,,M,21,
9,4,103,6,6,3,['d'],['d'],Y,Y,['space'],Y,,,,,,,M,21,
9,5,104,3,3,3,['d'],['d'],Y,Y,['space'],Y,,,,,,,M,21,
9,6,105,6,6,3,['k'],['d'],N,Y,['space'],Y,,,,,,,M,21,
9,7,106,7,7,3,['k'],['k'],Y,Y,None,N,,,,,,,M,21,
9,8,107,7,7,3,['d'],['k'],N,N,None,Y,,,,,,,M,21,
9,9,108,0,0,3,['k'],['k'],Y,Y,['space'],Y,,,,,,,M,21,
9,10,109,0,0,3,['k'],['k'],Y,Y,['space'],Y,,,,,,,M,21,
10,0,110,0,0,3,['k'],['d'],N,N,None,Y,,,,,,,M,21,
10,1,111,5,5,3,['k'],['k'],Y,Y,None,N,,,,,,,M,21,
10,2,112,10,10,3,['k'],['k'],Y,Y,['space'],Y,,,,,,,M,21,
10,3,113,3,3,3,['d'],['d'],Y,N,None,Y,,,,,,,M,21,
10,4,114,1,1,3,['k'],['d'],N,Y,None,N,,,,,,,M,21,
10,5,115,2,2,3,['d'],['d'],Y,Y,None,N,,,,,,,M,21,
10,6,116,3,3,3,['d'],['d'],Y,Y,['space'],Y,,,,,,,M,21,
10,7,117,6,6,3,['k'],['k'],Y,N,None,Y,,,,,,,M,21,
10,8,118,10,10,3,['d'],['d'],Y,N,None,Y,,,,,,,M,21,
10,9,119,1,1,3,['k'],['k'],Y,N,None,Y,,,,,,,M,21,
10,10,120,6,6,3,['k'],['k'],Y,Y,['space'],Y,,,,,,,M,21,
11,0,121,3,3,3,['k'],['k'],Y,N,None,Y,,,,,,,M,21,
11,1,122,4,4,3,['k'],['k'],Y,N,None,Y,,,,,,,M,21,
11,2,123,0,0,3,['k'],['k'],Y,N,None,Y,,,,,,,M,21,
11,3,124,8,8,3,['k'],['k'],Y,Y,['space'],Y,,,,,,,M,21,
11,4,125,10,10,3,['k'],['d'],N,Y,['space'],Y,,,,,,,M,21,
11,5,126,9,9,3,['k'],['k'],Y,Y,None,N,,,,,,,M,21,
11,6,127,4,4,3,['d'],['d'],Y,N,None,Y,,,,,,,M,21,
11,7,128,0,0,3,['d'],['d'],Y,N,None,Y,,,,,,,M,21,
11,8,129,6,6,3,['k'],['k'],Y,Y,['space'],Y,,,,,,,M,21,
11,9,130,4,4,3,['d'],['d'],Y,N,None,Y,,,,,,,M,21,
11,10,131,5,5,3,['k'],['k'],Y,Y,['space'],Y,,,,,,,M,21,
12,0,132,10,10,3,['d'],['d'],Y,Y,None,N,,,,,,,M,21,
12,1,133,8,8,3,['d'],['d'],Y,N,None,Y,,,,,,,M,21,
12,2,134,9,9,3,['d'],['k'],N,Y,None,N,,,,,,,M,21,
12,3,135,0,0,3,['d'],['d'],Y,N,None,Y,,,,,,,M,21,
12,4,136,3,3,3,['k'],['d'],N,N,None,Y,,,,,,,M,21,
12,5,137,6,6,3,['k'],['d'],N,N,None,Y,,,,,,,M,21,
12,6,138,7,7,3,['d'],['d'],Y,Y,None,N,,,,,,,M,21,
12,7,139,3,3,3,['d'],['d'],Y,N,None,Y,,,,,,,M,21,
12,8,140,9,9,3,['k'],['k'],Y,Y,None,N,,,,,,,M,21,
12,9,141,5,5,3,['k'],['k'],Y,Y,['space'],Y,,,,,,,M,21,
12,10,142,10,10,3,['k'],['k'],Y,Y,None,N,,,,,,,M,21,
13,0,143,5,5,3,['d'],['d'],Y,Y,['space'],Y,,,,,,,M,21,
13,1,144,8,8,3,['k'],['k'],Y,N,None,Y,,,,,,,M,21,
13,2,145,7,7,3,['d'],['d'],Y,N,None,Y,,,,,,,M,21,
13,3,146,10,10,3,['d'],['d'],Y,N,None,Y,,,,,,,M,21,
13,4,147,1,1,3,['k'],['d'],N,N,None,Y,,,,,,,M,21,
13,5,148,1,1,3,['k'],['d'],N,N,None,Y,,,,,,,M,21,
13,6,149,1,1,3,['k'],['k'],Y,N,None,Y,40,38,25,,,,M,21,
13,7,150,10,10,4,['d'],['d'],Y,,,,,,,,,,M,21,
13,8,151,3,3,4,['d'],['d'],Y,,,,,,,,,,M,21,
13,9,152,1,1,4,['k'],['k'],Y,Y,['space'],Y,,,,,,,M,21,
13,10,153,0,0,4,['k'],['k'],Y,Y,['space'],Y,,,,,,,M,21,
14,0,154,10,10,4,['k'],['k'],Y,N,None,Y,,,,,,,M,21,
14,1,155,2,2,4,['d'],['d'],Y,N,None,Y,,,,,,,M,21,
14,2,156,7,7,4,['k'],['k'],Y,Y,['space'],Y,,,,,,,M,21,
14,3,157,6,6,4,['k'],['k'],Y,Y,['space'],Y,,,,,,,M,21,
14,4,158,1,1,4,['d'],['d'],Y,Y,None,N,,,,,,,M,21,
14,5,159,3,3,4,['d'],['d'],Y,Y,['space'],Y,,,,,,,M,21,
14,6,160,6,6,4,['k'],['k'],Y,Y,None,N,,,,,,,M,21,
14,7,161,4,4,4,['d'],['d'],Y,N,None,Y,,,,,,,M,21,
14,8,162,5,5,4,['k'],['k'],Y,Y,['space'],Y,,,,,,,M,21,
14,9,163,6,6,4,['k'],['k'],Y,N,None,Y,,,,,,,M,21,
14,10,164,10,10,4,['k'],['d'],N,N,None,Y,,,,,,,M,21,
15,0,165,0,0,4,['d'],['d'],Y,Y,['space'],Y,,,,,,,M,21,
15,1,166,0,0,4,['k'],['k'],Y,N,None,Y,,,,,,,M,21,
15,2,167,4,4,4,['k'],['d'],N,N,None,Y,,,,,,,M,21,
15,3,168,3,3,4,['d'],['d'],Y,Y,None,N,,,,,,,M,21,
15,4,169,9,9,4,['d'],['d'],Y,N,None,Y,,,,,,,M,21,
15,5,170,3,3,4,['k'],['k'],Y,N,None,Y,,,,,,,M,21,
15,6,171,9,9,4,['d'],['d'],Y,N,None,Y,,,,,,,M,21,
15,7,172,7,7,4,['d'],['d'],Y,Y,['space'],Y,,,,,,,M,21,
15,8,173,9,9,4,['k'],['k'],Y,N,None,Y,,,,,,,M,21,
15,9,174,9,9,4,['k'],['k'],Y,Y,['space'],Y,,,,,,,M,21,
15,10,175,5,5,4,['k'],['k'],Y,N,None,Y,,,,,,,M,21,
16,0,176,3,3,4,['d'],['k'],N,Y,['space'],Y,,,,,,,M,21,
16,1,177,4,4,4,['d'],['d'],Y,Y,None,N,,,,,,,M,21,
16,2,178,1,1,4,['k'],['k'],Y,N,None,Y,,,,,,,M,21,
16,3,179,1,1,4,['k'],['k'],Y,Y,['space'],Y,,,,,,,M,21,
16,4,180,0,0,4,['d'],['d'],Y,Y,['space'],Y,,,,,,,M,21,
16,5,181,4,4,4,['d'],['d'],Y,Y,['space'],Y,,,,,,,M,21,
16,6,182,6,6,4,['d'],['d'],Y,N,None,Y,,,,,,,M,21,
16,7,183,5,5,4,['k'],['d'],N,Y,['space'],Y,,,,,,,M,21,
16,8,184,2,2,4,['k'],['k'],Y,N,None,Y,,,,,,,M,21,
16,9,185,0,0,4,['k'],['k'],Y,Y,None,N,,,,,,,M,21,
16,10,186,8,8,4,['k'],['d'],N,N,None,Y,,,,,,,M,21,
17,0,187,3,3,4,['d'],['d'],Y,N,['o'],N,,,,,,,M,21,
17,1,188,8,8,4,['k'],['k'],Y,N,None,Y,,,,,,,M,21,
17,2,189,10,10,4,['k'],['k'],Y,Y,None,N,,,,,,,M,21,
17,3,190,0,0,4,['d'],['d'],Y,N,None,Y,,,,,,,M,21,
17,4,191,3,3,4,['k'],['k'],Y,N,None,Y,,,,,,,M,21,
17,5,192,10,10,4,['k'],['k'],Y,N,None,Y,,,,,,,M,21,
17,6,193,6,6,4,['d'],['d'],Y,Y,['space'],Y,,,,,,,M,21,
17,7,194,2,2,4,['k'],['d'],N,N,None,Y,,,,,,,M,21,
17,8,195,1,1,4,['d'],['d'],Y,Y,['space'],Y,,,,,,,M,21,
17,9,196,2,2,4,['k'],['k'],Y,N,None,Y,,,,,,,M,21,
17,10,197,1,1,4,['k'],['k'],Y,N,None,Y,,,,,,,M,21,
18,0,198,7,7,4,['k'],['k'],Y,Y,['space'],Y,,,,,,,M,21,
18,1,199,7,7,4,['k'],['k'],Y,N,None,Y,44,41,23,,,,M,21,
18,2,200,4,4,5,['d'],['d'],Y,,,,,,,,,,M,21,
18,3,201,7,7,5,['d'],['d'],Y,,,,,,,,,,M,21,
18,4,202,5,5,5,['k'],['k'],Y,Y,None,N,,,,,,,M,21,
18,5,203,3,3,5,['k'],['k'],Y,N,['space'],N,,,,,,,M,21,
18,6,204,7,7,5,['d'],['k'],N,Y,None,N,,,,,,,M,21,
18,7,205,4,4,5,['d'],['d'],Y,N,None,Y,,,,,,,M,21,
18,8,206,4,4,5,['d'],['d'],Y,N,None,Y,,,,,,,M,21,
18,9,207,10,10,5,['d'],['d'],Y,Y,None,N,,,,,,,M,21,
18,10,208,7,7,5,['k'],['k'],Y,N,None,Y,,,,,,,M,21,
19,0,209,5,5,5,['k'],['d'],N,Y,None,N,,,,,,,M,21,
19,1,210,7,7,5,['k'],['k'],Y,N,None,Y,,,,,,,M,21,
19,2,211,7,7,5,['k'],['d'],N,N,None,Y,,,,,,,M,21,
19,3,212,5,5,5,['k'],['k'],Y,Y,['space'],Y,,,,,,,M,21,
19,4,213,0,0,5,['d'],['d'],Y,Y,['space'],Y,,,,,,,M,21,
19,5,214,3,3,5,['d'],['d'],Y,Y,['space'],Y,,,,,,,M,21,
19,6,215,2,2,5,['k'],['k'],Y,N,None,Y,,,,,,,M,21,
19,7,216,8,8,5,['d'],['d'],Y,Y,['space'],Y,,,,,,,M,21,
19,8,217,9,9,5,['k'],['d'],N,N,None,Y,,,,,,,M,21,
19,9,218,4,4,5,['k'],['k'],Y,N,None,Y,,,,,,,M,21,
19,10,219,4,4,5,['d'],['d'],Y,Y,['space'],Y,,,,,,,M,21,
20,0,220,8,8,5,['d'],['d'],Y,N,None,Y,,,,,,,M,21,
20,1,221,8,8,5,['k'],['k'],Y,Y,None,N,,,,,,,M,21,
20,2,222,10,10,5,['d'],['d'],Y,N,None,Y,,,,,,,M,21,
20,3,223,5,5,5,['d'],['d'],Y,N,None,Y,,,,,,,M,21,
20,4,224,7,7,5,['d'],['d'],Y,N,None,Y,,,,,,,M,21,
20,5,225,9,9,5,['d'],['d'],Y,Y,None,N,,,,,,,M,21,
20,6,226,1,1,5,['d'],['d'],Y,Y,['space'],Y,,,,,,,M,21,
20,7,227,6,6,5,['k'],['k'],Y,Y,['space'],Y,,,,,,,M,21,
20,8,228,4,4,5,['k'],['d'],N,Y,['space'],Y,,,,,,,M,21,
20,9,229,1,1,5,['k'],['k'],Y,N,None,Y,,,,,,,M,21,
20,10,230,9,9,5,['k'],['k'],Y,Y,['space'],Y,,,,,,,M,21,
21,0,231,10,10,5,['k'],['d'],N,N,None,Y,,,,,,,M,21,
21,1,232,10,10,5,['d'],['d'],Y,Y,['space'],Y,,,,,,,M,21,
21,2,233,10,10,5,['k'],['k'],Y,N,None,Y,,,,,,,M,21,
21,3,234,3,3,5,['k'],['k'],Y,N,None,Y,,,,,,,M,21,
21,4,235,6,6,5,['k'],['d'],N,N,None,Y,,,,,,,M,21,
21,5,236,7,7,5,['k'],['k'],Y,N,None,Y,,,,,,,M,21,
21,6,237,1,1,5,['k'],['k'],Y,Y,['space'],Y,,,,,,,M,21,
21,7,238,2,2,5,['k'],['k'],Y,N,None,Y,,,,,,,M,21,
21,8,239,2,2,5,['k'],['k'],Y,N,None,Y,,,,,,,M,21,
21,9,240,10,10,5,['d'],['d'],Y,N,None,Y,,,,,,,M,21,
21,10,241,7,7,5,['k'],['d'],N,Y,['space'],Y,,,,,,,M,21,
22,0,242,3,3,5,['k'],['d'],N,Y,None,N,,,,,,,M,21,
22,1,243,10,10,5,['k'],['k'],Y,N,['space'],N,,,,,,,M,21,
22,2,244,10,10,5,['k'],['k'],Y,Y,None,N,,,,,,,M,21,
22,3,245,8,8,5,['k'],['k'],Y,Y,['space'],Y,,,,,,,M,21,
22,4,246,3,3,5,['d'],['d'],Y,N,None,Y,,,,,,,M,21,
22,5,247,8,8,5,['d'],['d'],Y,Y,['space'],Y,,,,,,,M,21,
22,6,248,6,6,5,['d'],['d'],Y,Y,['space'],Y,,,,,,,M,21,
22,7,249,7,7,5,['d'],['d'],Y,Y,None,N,41,37,24,,,,M,21,
22,8,250,3,3,6,['k'],['k'],Y,,,,,,,,,,M,21,
22,9,251,2,2,6,['k'],['k'],Y,,,,,,,,,,M,21,
22,10,252,7,7,6,['k'],['k'],Y,Y,None,N,,,,,,,M,21,
23,0,253,5,5,6,['d'],['d'],Y,Y,None,N,,,,,,,M,21,
23,1,254,8,8,6,['k'],['k'],Y,Y,None,N,,,,,,,M,21,
23,2,255,0,0,6,['d'],['d'],Y,Y,['space'],Y,,,,,,,M,21,
23,3,256,1,1,6,['k'],['k'],Y,N,None,Y,,,,,,,M,21,
23,4,257,6,6,6,['k'],['d'],N,Y,None,N,,,,,,,M,21,
23,5,258,1,1,6,['k'],['k'],Y,N,None,Y,,,,,,,M,21,
23,6,259,7,7,6,['k'],['k'],Y,N,None,Y,,,,,,,M,21,
23,7,260,0,0,6,['k'],['k'],Y,Y,['space'],Y,,,,,,,M,21,
23,8,261,9,9,6,['d'],['k'],N,N,None,Y,,,,,,,M,21,
23,9,262,2,2,6,['k'],['k'],Y,Y,None,N,,,,,,,M,21,
23,10,263,8,8,6,['d'],['d'],Y,N,None,Y,,,,,,,M,21,
24,0,264,7,7,6,['d'],['d'],Y,Y,['space'],Y,,,,,,,M,21,
24,1,265,3,3,6,['d'],['d'],Y,Y,['space'],Y,,,,,,,M,21,
24,2,266,5,5,6,['k'],['k'],Y,N,None,Y,,,,,,,M,21,
24,3,267,7,7,6,['d'],['d'],Y,N,None,Y,,,,,,,M,21,
24,4,268,1,1,6,['k'],['k'],Y,N,None,Y,,,,,,,M,21,
24,5,269,6,6,6,['k'],['k'],Y,Y,['space'],Y,,,,,,,M,21,
24,6,270,4,4,6,['k'],['d'],N,N,None,Y,,,,,,,M,21,
24,7,271,2,2,6,['k'],['k'],Y,Y,None,N,,,,,,,M,21,
24,8,272,4,4,6,['k'],['k'],Y,N,None,Y,,,,,,,M,21,
24,9,273,3,3,6,['k'],['k'],Y,N,None,Y,,,,,,,M,21,
24,10,274,9,9,6,['k'],['k'],Y,Y,['space'],Y,,,,,,,M,21,
25,0,275,5,5,6,['k'],['k'],Y,N,None,Y,,,,,,,M,21,
25,1,276,3,3,6,['k'],['k'],Y,N,None,Y,,,,,,,M,21,
25,2,277,1,1,6,['d'],['d'],Y,Y,['space'],Y,,,,,,,M,21,
25,3,278,5,5,6,['k'],['k'],Y,N,None,Y,,,,,,,M,21,
25,4,279,10,10,6,['k'],['k'],Y,N,None,Y,,,,,,,M,21,
25,5,280,5,5,6,['k'],['k'],Y,Y,['space'],Y,,,,,,,M,21,
25,6,281,0,0,6,['d'],['d'],Y,N,None,Y,,,,,,,M,21,
25,7,282,6,6,6,['k'],['k'],Y,Y,['space'],Y,,,,,,,M,21,
25,8,283,7,7,6,['k'],['k'],Y,N,None,Y,,,,,,,M,21,
25,9,284,2,2,6,['k'],['k'],Y,Y,['space'],Y,,,,,,,M,21,
25,10,285,6,6,6,['k'],['k'],Y,N,None,Y,,,,,,,M,21,
26,0,286,8,8,6,['k'],['k'],Y,Y,['space'],Y,,,,,,,M,21,
26,1,287,0,0,6,['d'],['d'],Y,Y,None,N,,,,,,,M,21,
26,2,288,9,9,6,['k'],['d'],N,Y,None,N,,,,,,,M,21,
26,3,289,8,8,6,['k'],['k'],Y,Y,['space'],Y,,,,,,,M,21,
26,4,290,0,0,6,['d'],['k'],N,N,None,Y,,,,,,,M,21,
26,5,291,0,0,6,['k'],['d'],N,Y,None,N,,,,,,,M,21,
26,6,292,5,5,6,['k'],['k'],Y,N,None,Y,,,,,,,M,21,
26,7,293,6,6,6,['d'],['d'],Y,N,None,Y,,,,,,,M,21,
26,8,294,4,4,6,['d'],['d'],Y,Y,None,N,,,,,,,M,21,
26,9,295,8,8,6,['k'],['k'],Y,Y,None,N,,,,,,,M,21,
26,10,296,5,5,6,['k'],['d'],N,N,['space'],N,,,,,,,M,21,
27,0,297,8,8,6,['d'],['d'],Y,N,None,Y,,,,,,,M,21,
27,1,298,0,0,6,['k'],['k'],Y,Y,['space'],Y,,,,,,,M,21,
27,2,299,3,3,6,['d'],['d'],Y,N,None,Y,43,36,24,,,,M,21,
27,3,300,8,8,7,['d'],['d'],Y,,,,,,,,,,M,21,
27,4,301,7,7,7,['d'],['d'],Y,,,,,,,,,,M,21,
27,5,302,3,3,7,['d'],['d'],Y,Y,['space'],Y,,,,,,,M,21,
27,6,303,6,6,7,['k'],['d'],N,Y,None,N,,,,,,,M,21,
27,7,304,10,10,7,['k'],['k'],Y,Y,None,N,,,,,,,M,21,
27,8,305,6,6,7,['d'],['d'],Y,N,None,Y,,,,,,,M,21,
27,9,306,8,8,7,['d'],['d'],Y,N,None,Y,,,,,,,M,21,
27,10,307,4,4,7,['k'],['k'],Y,N,None,Y,,,,,,,M,21,
28,0,308,0,0,7,['k'],['k'],Y,Y,['space'],Y,,,,,,,M,21,
28,1,309,0,0,7,['k'],['k'],Y,Y,['space'],Y,,,,,,,M,21,
28,2,310,2,2,7,['k'],['d'],N,N,None,Y,,,,,,,M,21,
28,3,311,9,9,7,['d'],['d'],Y,N,None,Y,,,,,,,M,21,
28,4,312,4,4,7,['d'],['d'],Y,N,None,Y,,,,,,,M,21,
28,5,313,1,1,7,['d'],['d'],Y,Y,['space'],Y,,,,,,,M,21,
28,6,314,5,5,7,['d'],['d'],Y,Y,['space'],Y,,,,,,,M,21,
28,7,315,6,6,7,['d'],['d'],Y,Y,['space'],Y,,,,,,,M,21,
28,8,316,5,5,7,['d'],['k'],N,Y,['space'],Y,,,,,,,M,21,
28,9,317,5,5,7,['d'],['d'],Y,N,None,Y,,,,,,,M,21,
28,10,318,8,8,7,['k'],['d'],N,Y,['space'],Y,,,,,,,M,21,
29,0,319,6,6,7,['d'],['d'],Y,Y,['space'],Y,,,,,,,M,21,
29,1,320,7,7,7,['d'],['d'],Y,Y,None,N,,,,,,,M,21,
29,2,321,2,2,7,['d'],['d'],Y,Y,None,N,,,,,,,M,21,
29,3,322,10,10,7,['d'],['d'],Y,Y,['space'],Y,,,,,,,M,21,
29,4,323,4,4,7,['d'],['d'],Y,Y,['space'],Y,,,,,,,M,21,
29,5,324,6,6,7,['d'],['d'],Y,Y,None,N,,,,,,,M,21,
29,6,325,4,4,7,['k'],['k'],Y,Y,['space'],Y,,,,,,,M,21,
29,7,326,10,10,7,['d'],['d'],Y,Y,['space'],Y,,,,,,,M,21,
29,8,327,7,7,7,['d'],['d'],Y,Y,['space'],Y,,,,,,,M,21,
29,9,328,4,4,7,['k'],['k'],Y,N,None,Y,,,,,,,M,21,
29,10,329,10,10,7,['d'],['d'],Y,Y,None,N,,,,,,,M,21,
30,0,330,9,9,7,['k'],['k'],Y,N,None,Y,,,,,,,M,21,
30,1,331,5,5,7,['d'],['d'],Y,Y,['space'],Y,,,,,,,M,21,
30,2,332,0,0,7,['d'],['d'],Y,Y,['space'],Y,,,,,,,M,21,
30,3,333,1,1,7,['k'],['k'],Y,Y,None,N,,,,,,,M,21,
30,4,334,2,2,7,['d'],['d'],Y,N,None,Y,,,,,,,M,21,
30,5,335,7,7,7,['d'],['d'],Y,N,None,Y,,,,,,,M,21,
30,6,336,6,6,7,['k'],['d'],N,N,None,Y,,,,,,,M,21,
30,7,337,9,9,7,['d'],['k'],N,Y,['space'],Y,,,,,,,M,21,
30,8,338,3,3,7,['k'],['k'],Y,Y,['space'],Y,,,,,,,M,21,
30,9,339,3,3,7,['d'],['d'],Y,N,None,Y,,,,,,,M,21,
30,10,340,7,7,7,['d'],['d'],Y,N,None,Y,,,,,,,M,21,
31,0,341,2,2,7,['k'],['k'],Y,N,None,Y,,,,,,,M,21,
31,1,342,9,9,7,['k'],['d'],N,N,None,Y,,,,,,,M,21,
31,2,343,0,0,7,['d'],['d'],Y,N,None,Y,,,,,,,M,21,
31,3,344,10,10,7,['k'],['k'],Y,N,None,Y,,,,,,,M,21,
31,4,345,4,4,7,['d'],['d'],Y,N,None,Y,,,,,,,M,21,
31,5,346,1,1,7,['k'],['d'],N,N,['space'],N,,,,,,,M,21,
31,6,347,0,0,7,['d'],['d'],Y,N,None,Y,,,,,,,M,21,
31,7,348,0,0,7,['k'],['k'],Y,N,None,Y,,,,,,,M,21,
31,8,349,9,9,7,['k'],['k'],Y,N,None,Y,42,40,25,,,,M,21,
31,9,350,5,5,8,['d'],['d'],Y,,,,,,,,,,M,21,
31,10,351,6,6,8,['d'],['d'],Y,,,,,,,,,,M,21,
32,0,352,10,10,8,['k'],['k'],Y,Y,['space'],Y,,,,,,,M,21,
32,1,353,7,7,8,['k'],['k'],Y,Y,['space'],Y,,,,,,,M,21,
32,2,354,9,9,8,['d'],['k'],N,Y,['space'],Y,,,,,,,M,21,
32,3,355,7,7,8,['d'],['d'],Y,Y,['space'],Y,,,,,,,M,21,
32,4,356,7,7,8,['k'],['k'],Y,N,None,Y,,,,,,,M,21,
32,5,357,6,6,8,['k'],['k'],Y,N,None,Y,,,,,,,M,21,
32,6,358,8,8,8,['d'],['d'],Y,N,None,Y,,,,,,,M,21,
32,7,359,6,6,8,['k'],['k'],Y,N,None,Y,,,,,,,M,21,
32,8,360,2,2,8,['k'],['d'],N,N,None,Y,,,,,,,M,21,
32,9,361,8,8,8,['k'],['k'],Y,N,None,Y,,,,,,,M,21,
32,10,362,5,5,8,['d'],['d'],Y,Y,['space'],Y,,,,,,,M,21,
33,0,363,2,2,8,['k'],['d'],N,N,None,Y,,,,,,,M,21,
33,1,364,0,0,8,['k'],['k'],Y,Y,None,N,,,,,,,M,21,
33,2,365,7,7,8,['d'],['k'],N,Y,['space'],Y,,,,,,,M,21,
33,3,366,6,6,8,['d'],['d'],Y,Y,['space'],Y,,,,,,,M,21,
33,4,367,10,10,8,['k'],['d'],N,Y,['space'],Y,,,,,,,M,21,
33,5,368,5,5,8,['d'],['d'],Y,N,None,Y,,,,,,,M,21,
33,6,369,1,1,8,['d'],['d'],Y,N,None,Y,,,,,,,M,21,
33,7,370,4,4,8,['k'],['k'],Y,N,None,Y,,,,,,,M,21,
33,8,371,9,9,8,['d'],['d'],Y,N,None,Y,,,,,,,M,21,
33,9,372,7,7,8,['k'],['k'],Y,N,None,Y,,,,,,,M,21,
33,10,373,7,7,8,['d'],['d'],Y,N,None,Y,,,,,,,M,21,
34,0,374,7,7,8,['k'],['k'],Y,N,None,Y,,,,,,,M,21,
34,1,375,0,0,8,['d'],['d'],Y,Y,['space'],Y,,,,,,,M,21,
34,2,376,5,5,8,['d'],['d'],Y,Y,['space'],Y,,,,,,,M,21,
34,3,377,0,0,8,['k'],['k'],Y,Y,['space'],Y,,,,,,,M,21,
34,4,378,6,6,8,['k'],['k'],Y,N,None,Y,,,,,,,M,21,
34,5,379,3,3,8,['k'],['k'],Y,Y,None,N,,,,,,,M,21,
34,6,380,4,4,8,['k'],['k'],Y,N,None,Y,,,,,,,M,21,
34,7,381,6,6,8,['k'],['d'],N,N,None,Y,,,,,,,M,21,
34,8,382,1,1,8,['d'],['d'],Y,N,None,Y,,,,,,,M,21,
34,9,383,9,9,8,['d'],['d'],Y,N,None,Y,,,,,,,M,21,
34,10,384,5,5,8,['d'],['d'],Y,Y,['space'],Y,,,,,,,M,21,
35,0,385,1,1,8,['d'],['d'],Y,Y,['space'],Y,,,,,,,M,21,
35,1,386,6,6,8,['d'],['d'],Y,N,None,Y,,,,,,,M,21,
35,2,387,4,4,8,['k'],['d'],N,Y,['space'],Y,,,,,,,M,21,
35,3,388,7,7,8,['k'],['k'],Y,Y,None,N,,,,,,,M,21,
35,4,389,0,0,8,['k'],['k'],Y,N,None,Y,,,,,,,M,21,
35,5,390,2,2,8,['d'],['d'],Y,N,None,Y,,,,,,,M,21,
35,6,391,5,5,8,['k'],['k'],Y,N,None,Y,,,,,,,M,21,
35,7,392,3,3,8,['d'],['d'],Y,Y,['space'],Y,,,,,,,M,21,
35,8,393,9,9,8,['k'],['k'],Y,N,None,Y,,,,,,,M,21,
35,9,394,3,3,8,['d'],['d'],Y,Y,['space'],Y,,,,,,,M,21,
35,10,395,3,3,8,['k'],['d'],N,N,None,Y,,,,,,,M,21,
36,0,396,2,2,8,['k'],['k'],Y,Y,['space'],Y,,,,,,,M,21,
36,1,397,3,3,8,['d'],['d'],Y,Y,['space'],Y,,,,,,,M,21,
36,2,398,1,1,8,['k'],['k'],Y,N,None,Y,,,,,,,M,21,
36,3,399,2,2,8,['k'],['k'],Y,Y,None,N,42,44,22,,,,M,21,
36,4,400,2,2,9,['d'],['d'],Y,,,,,,,,,,M,21,
36,5,401,7,7,9,['d'],['d'],Y,,,,,,,,,,M,21,
36,6,402,10,10,9,['d'],['d'],Y,N,None,Y,,,,,,,M,21,
36,7,403,9,9,9,['d'],['d'],Y,N,None,Y,,,,,,,M,21,
36,8,404,9,9,9,['k'],['k'],Y,N,None,Y,,,,,,,M,21,
36,9,405,1,1,9,['k'],['k'],Y,N,None,Y,,,,,,,M,21,
36,10,406,5,5,9,['d'],['d'],Y,N,None,Y,,,,,,,M,21,
37,0,407,0,0,9,['d'],['d'],Y,N,None,Y,,,,,,,M,21,
37,1,408,4,4,9,['k'],['k'],Y,N,None,Y,,,,,,,M,21,
37,2,409,1,1,9,['d'],['k'],N,Y,['space'],Y,,,,,,,M,21,
37,3,410,8,8,9,['k'],['k'],Y,N,None,Y,,,,,,,M,21,
37,4,411,5,5,9,['k'],['k'],Y,N,None,Y,,,,,,,M,21,
37,5,412,2,2,9,['k'],['k'],Y,Y,['space'],Y,,,,,,,M,21,
37,6,413,4,4,9,['d'],['d'],Y,Y,['space'],Y,,,,,,,M,21,
37,7,414,4,4,9,['k'],['k'],Y,Y,['space'],Y,,,,,,,M,21,
37,8,415,4,4,9,['d'],['d'],Y,N,None,Y,,,,,,,M,21,
37,9,416,4,4,9,['k'],['k'],Y,N,None,Y,,,,,,,M,21,
37,10,417,3,3,9,['k'],['k'],Y,Y,['space'],Y,,,,,,,M,21,
38,0,418,0,0,9,['k'],['k'],Y,Y,['space'],Y,,,,,,,M,21,
38,1,419,4,4,9,['k'],['k'],Y,Y,['space'],Y,,,,,,,M,21,
38,2,420,8,8,9,['d'],['d'],Y,Y,['space'],Y,,,,,,,M,21,
38,3,421,1,1,9,['d'],['d'],Y,Y,['space'],Y,,,,,,,M,21,
38,4,422,10,10,9,['k'],['k'],Y,N,None,Y,,,,,,,M,21,
38,5,423,3,3,9,['d'],['d'],Y,N,None,Y,,,,,,,M,21,
38,6,424,9,9,9,['k'],['k'],Y,Y,['space'],Y,,,,,,,M,21,
38,7,425,2,2,9,['k'],['d'],N,N,None,Y,,,,,,,M,21,
38,8,426,4,4,9,['k'],['d'],N,Y,['space'],Y,,,,,,,M,21,
38,9,427,10,10,9,['k'],['k'],Y,N,None,Y,,,,,,,M,21,
38,10,428,7,7,9,['k'],['d'],N,Y,['space'],Y,,,,,,,M,21,
39,0,429,0,0,9,['k'],['k'],Y,Y,['space'],Y,,,,,,,M,21,
39,1,430,6,6,9,['d'],['d'],Y,N,None,Y,,,,,,,M,21,
39,2,431,6,6,9,['k'],['k'],Y,Y,['space'],Y,,,,,,,M,21,
39,3,432,0,0,9,['k'],['k'],Y,N,None,Y,,,,,,,M,21,
39,4,433,2,2,9,['d'],['d'],Y,N,None,Y,,,,,,,M,21,
39,5,434,7,7,9,['d'],['d'],Y,N,None,Y,,,,,,,M,21,
39,6,435,2,2,9,['d'],['d'],Y,Y,['space'],Y,,,,,,,M,21,
39,7,436,2,2,9,['d'],['d'],Y,Y,None,N,,,,,,,M,21,
39,8,437,9,9,9,['k'],['k'],Y,N,None,Y,,,,,,,M,21,
39,9,438,6,6,9,['d'],['d'],Y,Y,['space'],Y,,,,,,,M,21,
39,10,439,1,1,9,['d'],['d'],Y,N,None,Y,,,,,,,M,21,
40,0,440,7,7,9,['d'],['d'],Y,N,None,Y,,,,,,,M,21,
40,1,441,8,8,9,['d'],['d'],Y,N,None,Y,,,,,,,M,21,
40,2,442,9,9,9,['d'],['k'],N,N,None,Y,,,,,,,M,21,
40,3,443,6,6,9,['k'],['k'],Y,Y,['space'],Y,,,,,,,M,21,
40,4,444,4,4,9,['k'],['k'],Y,Y,None,N,,,,,,,M,21,
40,5,445,2,2,9,['k'],['k'],Y,Y,None,N,,,,,,,M,21,
40,6,446,10,10,9,['d'],['d'],Y,N,None,Y,,,,,,,M,21,
40,7,447,6,6,9,['d'],['d'],Y,Y,None,N,,,,,,,M,21,
40,8,448,4,4,9,['k'],['k'],Y,N,None,Y,,,,,,,M,21,
40,9,449,4,4,9,['k'],['k'],Y,Y,None,N,45,43,22,,,,M,21,
40,10,450,8,8,10,['k'],['d'],N,,,,,,,,,,M,21,
41,0,451,9,9,10,['d'],['d'],Y,,,,,,,,,,M,21,
41,1,452,1,1,10,['k'],['d'],N,N,None,Y,,,,,,,M,21,
41,2,453,1,1,10,['k'],['k'],Y,N,None,Y,,,,,,,M,21,
41,3,454,5,5,10,['k'],['k'],Y,Y,['space'],Y,,,,,,,M,21,
41,4,455,9,9,10,['k'],['k'],Y,N,None,Y,,,,,,,M,21,
41,5,456,5,5,10,['d'],['k'],N,N,None,Y,,,,,,,M,21,
41,6,457,7,7,10,['d'],['k'],N,N,None,Y,,,,,,,M,21,
41,7,458,0,0,10,['d'],['d'],Y,N,None,Y,,,,,,,M,21,
41,8,459,2,2,10,['k'],['k'],Y,Y,['space'],Y,,,,,,,M,21,
41,9,460,6,6,10,['d'],['d'],Y,N,None,Y,,,,,,,M,21,
41,10,461,7,7,10,['k'],['d'],N,N,None,Y,,,,,,,M,21,
42,0,462,8,8,10,['k'],['k'],Y,N,None,Y,,,,,,,M,21,
42,1,463,2,2,10,['k'],['k'],Y,N,None,Y,,,,,,,M,21,
42,2,464,5,5,10,['k'],['k'],Y,N,None,Y,,,,,,,M,21,
42,3,465,10,10,10,['k'],['k'],Y,N,None,Y,,,,,,,M,21,
42,4,466,7,7,10,['k'],['k'],Y,Y,['space'],Y,,,,,,,M,21,
42,5,467,4,4,10,['k'],['k'],Y,N,None,Y,,,,,,,M,21,
42,6,468,0,0,10,['d'],['k'],N,Y,['space'],Y,,,,,,,M,21,
42,7,469,4,4,10,['d'],['d'],Y,N,None,Y,,,,,,,M,21,
42,8,470,7,7,10,['d'],['d'],Y,N,None,Y,,,,,,,M,21,
42,9,471,9,9,10,['k'],['k'],Y,Y,['space'],Y,,,,,,,M,21,
42,10,472,8,8,10,['d'],['d'],Y,N,None,Y,,,,,,,M,21,
43,0,473,2,2,10,['d'],['d'],Y,Y,None,N,,,,,,,M,21,
43,1,474,3,3,10,['k'],['k'],Y,N,None,Y,,,,,,,M,21,
43,2,475,10,10,10,['d'],['d'],Y,Y,['space'],Y,,,,,,,M,21,
43,3,476,10,10,10,['k'],['k'],Y,N,None,Y,,,,,,,M,21,
43,4,477,6,6,10,['k'],['d'],N,N,None,Y,,,,,,,M,21,
43,5,478,10,10,10,['k'],['k'],Y,Y,None,N,,,,,,,M,21,
43,6,479,4,4,10,['d'],['d'],Y,N,None,Y,,,,,,,M,21,
43,7,480,2,2,10,['d'],['k'],N,N,None,Y,,,,,,,M,21,
43,8,481,6,6,10,['k'],['k'],Y,Y,None,N,,,,,,,M,21,
43,9,482,2,2,10,['d'],['d'],Y,Y,['space'],Y,,,,,,,M,21,
43,10,483,6,6,10,['d'],['d'],Y,N,None,Y,,,,,,,M,21,
44,0,484,6,6,10,['k'],['k'],Y,N,None,Y,,,,,,,M,21,
44,1,485,5,5,10,['d'],['d'],Y,Y,['space'],Y,,,,,,,M,21,
44,2,486,0,0,10,['d'],['k'],N,Y,['space'],Y,,,,,,,M,21,
44,3,487,7,7,10,['k'],['k'],Y,Y,['space'],Y,,,,,,,M,21,
44,4,488,5,5,10,['d'],['d'],Y,N,None,Y,,,,,,,M,21,
44,5,489,5,5,10,['k'],['k'],Y,Y,['space'],Y,,,,,,,M,21,
44,6,490,0,0,10,['k'],['k'],Y,N,None,Y,,,,,,,M,21,
44,7,491,1,1,10,['d'],['d'],Y,Y,['space'],Y,,,,,,,M,21,
44,8,492,4,4,10,['k'],['k'],Y,N,None,Y,,,,,,,M,21,
44,9,493,1,1,10,['d'],['d'],Y,Y,['space'],Y,,,,,,,M,21,
44,10,494,5,5,10,['k'],['k'],Y,Y,None,N,,,,,,,M,21,
45,0,495,7,7,10,['k'],['k'],Y,Y,None,N,,,,,,,M,21,
45,1,496,3,3,10,['k'],['k'],Y,N,None,Y,,,,,,,M,21,
45,2,497,6,6,10,['d'],['d'],Y,Y,['space'],Y,,,,,,,M,21,
45,3,498,1,1,10,['k'],['k'],Y,N,None,Y,,,,,,,M,21,
45,4,499,9,9,10,['k'],['k'],Y,Y,None,N,41,42,20,,,,M,21,
45,5,500,10,10,11,['d'],['k'],Y,,,,,,,Y,Y,Y,M,21,
45,6,501,9,9,11,['k'],['d'],Y,,,,,,,,Y,Y,M,21,
45,7,502,5,5,11,['d'],['k'],Y,N,None,Y,,,,,Y,Y,M,21,
45,8,503,2,2,11,['d'],['k'],Y,Y,['space'],Y,,,,,Y,Y,M,21,
45,9,504,3,3,11,['k'],['d'],Y,Y,['space'],Y,,,,,Y,Y,M,21,
45,10,505,10,10,11,['k'],['d'],Y,Y,['space'],Y,,,,,Y,Y,M,21,
46,0,506,1,1,11,['d'],['k'],Y,N,None,Y,,,,,Y,Y,M,21,
46,1,507,9,9,11,['k'],['d'],Y,N,None,Y,,,,,Y,Y,M,21,
46,2,508,9,9,11,['k'],['d'],Y,N,None,Y,,,,,Y,Y,M,21,
46,3,509,5,5,11,['d'],['k'],Y,N,None,Y,,,,,Y,Y,M,21,
46,4,510,8,8,11,['d'],['k'],Y,Y,['space'],Y,,,,,Y,Y,M,21,
46,5,511,7,7,11,['d'],['k'],Y,Y,['space'],Y,,,,,Y,Y,M,21,
46,6,512,2,2,11,['k'],['d'],Y,N,None,Y,,,,,Y,Y,M,21,
46,7,513,8,8,11,['d'],['k'],Y,Y,['space'],Y,,,,,Y,Y,M,21,
46,8,514,10,10,11,['k'],['d'],Y,Y,['space'],Y,,,,,Y,Y,M,21,
46,9,515,8,8,11,['k'],['d'],Y,Y,['space'],Y,,,,,Y,Y,M,21,
46,10,516,2,2,11,['k'],['d'],Y,Y,['space'],Y,,,,,Y,Y,M,21,
47,0,517,4,4,11,['k'],['d'],Y,Y,['space'],Y,,,,,Y,Y,M,21,
47,1,518,2,2,11,['d'],['d'],N,Y,['space'],Y,,,,,Y,Y,M,21,
47,2,519,9,9,11,['d'],['k'],Y,N,None,Y,,,,,Y,Y,M,21,
47,3,520,5,5,11,['d'],['d'],N,N,['space'],N,,,,,Y,Y,M,21,
47,4,521,10,10,11,['d'],['k'],Y,Y,None,N,,,,,Y,Y,M,21,
47,5,522,0,0,11,['d'],['d'],N,Y,['space'],Y,,,,,Y,Y,M,21,
47,6,523,3,3,11,['k'],['d'],Y,Y,['space'],Y,,,,,Y,Y,M,21,
47,7,524,10,10,11,['d'],['k'],Y,Y,None,N,,,,,Y,Y,M,21,
47,8,525,8,8,11,['k'],['d'],Y,Y,None,N,,,,,Y,Y,M,21,
47,9,526,1,1,11,['k'],['d'],Y,Y,['space'],Y,,,,,Y,Y,M,21,
47,10,527,2,2,11,['k'],['d'],Y,N,None,Y,,,,,Y,Y,M,21,
48,0,528,2,2,11,['d'],['k'],Y,Y,None,N,,,,,Y,Y,M,21,
48,1,529,0,0,11,None,,Timed out,Y,['space'],Y,,,,,Y,Y,M,21,
48,2,530,6,6,11,['d'],['d'],N,Y,None,N,,,,,Y,Y,M,21,
48,3,531,3,3,11,['k'],['d'],Y,Y,None,N,,,,,Y,Y,M,21,
48,4,532,10,10,11,['d'],['k'],Y,N,None,Y,,,,,Y,Y,M,21,
48,5,533,3,3,11,['d'],['k'],Y,Y,['space'],Y,,,,,Y,Y,M,21,
48,6,534,10,10,11,['d'],['k'],Y,N,None,Y,,,,,Y,Y,M,21,
48,7,535,7,7,11,['k'],['d'],Y,Y,None,N,,,,,Y,Y,M,21,
48,8,536,0,0,11,['d'],['k'],Y,N,None,Y,,,,,Y,Y,M,21,
48,9,537,5,5,11,['k'],['k'],N,N,None,Y,,,,,Y,Y,M,21,
48,10,538,6,6,11,['d'],['k'],Y,Y,['space'],Y,,,,,Y,Y,M,21,
49,0,539,7,7,11,['d'],['k'],Y,Y,['space'],Y,,,,,Y,Y,M,21,
49,1,540,5,5,11,['d'],['k'],Y,N,None,Y,,,,,Y,Y,M,21,
49,2,541,8,8,11,['d'],['d'],N,N,None,Y,,,,,Y,Y,M,21,
49,3,542,3,3,11,['k'],['d'],Y,N,None,Y,,,,,Y,Y,M,21,
49,4,543,6,6,11,['d'],['d'],N,N,None,Y,,,,,Y,Y,M,21,
49,5,544,0,0,11,['d'],['k'],Y,N,None,Y,,,,,Y,Y,M,21,
49,6,545,3,3,11,['k'],['d'],Y,N,None,Y,,,,,Y,Y,M,21,
49,7,546,8,8,11,['d'],['k'],Y,N,None,Y,,,,,Y,Y,M,21,
49,8,547,10,10,11,['d'],['k'],Y,N,None,Y,,,,,Y,Y,M,21,
49,9,548,8,8,11,['k'],['d'],Y,N,None,Y,,,,,Y,Y,M,21,
49,10,549,6,6,11,['d'],['k'],Y,N,None,Y,42,40,25,,Y,Y,M,21,
50,0,550,8,8,12,['k'],['k'],N,,,,,,,,Y,Y,M,21,
50,1,551,1,1,12,['d'],['d'],N,,,,,,,,Y,Y,M,21,
50,2,552,9,9,12,['k'],['d'],Y,Y,['space'],Y,,,,,Y,Y,M,21,
50,3,553,4,4,12,['d'],['k'],Y,Y,['space'],Y,,,,,Y,Y,M,21,
50,4,554,3,3,12,['d'],['k'],Y,N,None,Y,,,,,Y,Y,M,21,
50,5,555,8,8,12,['d'],['d'],N,N,None,Y,,,,,Y,Y,M,21,
50,6,556,6,6,12,['d'],['k'],Y,N,None,Y,,,,,Y,Y,M,21,
50,7,557,9,9,12,['k'],['k'],N,Y,['space'],Y,,,,,Y,Y,M,21,
50,8,558,8,8,12,['d'],['k'],Y,N,None,Y,,,,,Y,Y,M,21,
50,9,559,2,2,12,['d'],['k'],Y,Y,['space'],Y,,,,,Y,Y,M,21,
50,10,560,3,3,12,['d'],['k'],Y,N,None,Y,,,,,Y,Y,M,21,
51,0,561,1,1,12,['k'],['d'],Y,N,None,Y,,,,,Y,Y,M,21,
51,1,562,7,7,12,['d'],['k'],Y,Y,['space'],Y,,,,,Y,Y,M,21,
51,2,563,1,1,12,['k'],['d'],Y,Y,['space'],Y,,,,,Y,Y,M,21,
51,3,564,1,1,12,['d'],['k'],Y,N,None,Y,,,,,Y,Y,M,21,
51,4,565,2,2,12,['k'],['d'],Y,Y,None,N,,,,,Y,Y,M,21,
51,5,566,5,5,12,['d'],['k'],Y,Y,['space'],Y,,,,,Y,Y,M,21,
51,6,567,2,2,12,['k'],['d'],Y,N,None,Y,,,,,Y,Y,M,21,
51,7,568,2,2,12,['k'],['d'],Y,Y,['space'],Y,,,,,Y,Y,M,21,
51,8,569,8,8,12,['k'],['d'],Y,N,None,Y,,,,,Y,Y,M,21,
51,9,570,1,1,12,['k'],['d'],Y,N,None,Y,,,,,Y,Y,M,21,
51,10,571,1,1,12,['k'],['d'],Y,N,None,Y,,,,,Y,Y,M,21,
52,0,572,3,3,12,['k'],['d'],Y,N,None,Y,,,,,Y,Y,M,21,
52,1,573,4,4,12,['d'],['k'],Y,N,None,Y,,,,,Y,Y,M,21,
52,2,574,9,9,12,['d'],['k'],Y,N,None,Y,,,,,Y,Y,M,21,
52,3,575,0,0,12,['d'],['k'],Y,Y,['space'],Y,,,,,Y,Y,M,21,
52,4,576,3,3,12,['d'],['k'],Y,N,None,Y,,,,,Y,Y,M,21,
52,5,577,5,5,12,['k'],['d'],Y,N,None,Y,,,,,Y,Y,M,21,
52,6,578,5,5,12,['k'],['d'],Y,N,None,Y,,,,,Y,Y,M,21,
52,7,579,3,3,12,['k'],['d'],Y,N,None,Y,,,,,Y,Y,M,21,
52,8,580,5,5,12,['k'],['d'],Y,Y,['space'],Y,,,,,Y,Y,M,21,
52,9,581,1,1,12,['d'],['k'],Y,Y,['space'],Y,,,,,Y,Y,M,21,
52,10,582,4,4,12,['d'],['d'],N,N,None,Y,,,,,Y,Y,M,21,
53,0,583,2,2,12,['k'],['d'],Y,Y,None,N,,,,,Y,Y,M,21,
53,1,584,1,1,12,['d'],['k'],Y,N,None,Y,,,,,Y,Y,M,21,
53,2,585,5,5,12,['d'],['k'],Y,N,None,Y,,,,,Y,Y,M,21,
53,3,586,8,8,12,['k'],['d'],Y,N,None,Y,,,,,Y,Y,M,21,
53,4,587,10,10,12,['d'],['k'],Y,N,None,Y,,,,,Y,Y,M,21,
53,5,588,2,2,12,['d'],['k'],Y,Y,['space'],Y,,,,,Y,Y,M,21,
53,6,589,1,1,12,['k'],['d'],Y,Y,['space'],Y,,,,,Y,Y,M,21,
53,7,590,2,2,12,['k'],['d'],Y,Y,['space'],Y,,,,,Y,Y,M,21,
53,8,591,6,6,12,['k'],['d'],Y,N,None,Y,,,,,Y,Y,M,21,
53,9,592,0,0,12,['d'],['k'],Y,Y,['space'],Y,,,,,Y,Y,M,21,
53,10,593,4,4,12,['k'],['d'],Y,Y,['space'],Y,,,,,Y,Y,M,21,
54,0,594,1,1,12,['d'],['k'],Y,N,None,Y,,,,,Y,Y,M,21,
54,1,595,6,6,12,['d'],['k'],Y,N,None,Y,,,,,Y,Y,M,21,
54,2,596,3,3,12,['k'],['d'],Y,Y,['space'],Y,,,,,Y,Y,M,21,
54,3,597,4,4,12,['k'],['d'],Y,N,None,Y,,,,,Y,Y,M,21,
54,4,598,1,1,12,['k'],['k'],N,Y,['space'],Y,,,,,Y,Y,M,21,
54,5,599,5,5,12,['d'],['k'],Y,N,None,Y,44,46,20,,Y,Y,M,21,
