.thisRepN,.thisTrialN,.thisN,.thisIndex,.thisTrial,Block Number,Key pressed,Category,Correct?,Int Match?,Int Response,Int Correct?,Line Accuracy,Interference Accuracy,Matching Interferences,New instruction shown?,Buttons switched?,Fast?,gender,age
0,0,0,10,10,1,['k'],['k'],Y,,,,,,,,,,M,18
0,1,1,2,2,1,['k'],['k'],Y,,,,,,,,,,M,18
0,2,2,9,9,1,['k'],['k'],Y,N,None,Y,,,,,,,M,18
0,3,3,2,2,1,['k'],['k'],Y,Y,['space'],Y,,,,,,,M,18
0,4,4,10,10,1,['d'],['d'],Y,N,None,Y,,,,,,,M,18
0,5,5,2,2,1,['d'],['k'],N,N,None,Y,,,,,,,M,18
0,6,6,14,14,1,['d'],['d'],Y,Y,['space'],Y,,,,,,,M,18
0,7,7,4,4,1,['k'],['k'],Y,Y,['space'],Y,,,,,,,M,18
0,8,8,11,11,1,['d'],['k'],N,Y,None,N,,,,,,,M,18
0,9,9,10,10,1,['k'],['k'],Y,N,None,Y,,,,,,,M,18
0,10,10,1,1,1,['k'],['d'],N,N,None,Y,,,,,,,M,18
0,11,11,5,5,1,['d'],['d'],Y,N,['space'],N,,,,,,,M,18
0,12,12,0,0,1,['k'],['k'],Y,Y,['space'],Y,,,,,,,M,18
0,13,13,6,6,1,['d'],['d'],Y,Y,None,N,,,,,,,M,18
0,14,14,4,4,1,['k'],['d'],N,Y,None,N,,,,,,,M,18
1,0,15,14,14,1,['k'],['k'],Y,N,None,Y,,,,,,,M,18
1,1,16,3,3,1,['d'],['d'],Y,Y,['space'],Y,,,,,,,M,18
1,2,17,5,5,1,['d'],['d'],Y,N,['space'],N,,,,,,,M,18
1,3,18,9,9,1,['k'],['k'],Y,N,None,Y,,,,,,,M,18
1,4,19,2,2,1,['k'],['k'],Y,N,None,Y,,,,,,,M,18
1,5,20,3,3,1,['d'],['d'],Y,Y,None,N,,,,,,,M,18
1,6,21,1,1,1,['d'],['d'],Y,Y,None,N,,,,,,,M,18
1,7,22,5,5,1,['d'],['k'],N,N,None,Y,,,,,,,M,18
1,8,23,13,13,1,['k'],['k'],Y,N,None,Y,,,,,,,M,18
1,9,24,6,6,1,['k'],['k'],Y,N,None,Y,,,,,,,M,18
1,10,25,9,9,1,['d'],['d'],Y,N,None,Y,,,,,,,M,18
1,11,26,12,12,1,['d'],['d'],Y,N,None,Y,,,,,,,M,18
1,12,27,3,3,1,['k'],['k'],Y,N,None,Y,,,,,,,M,18
1,13,28,12,12,1,['d'],['d'],Y,N,None,Y,,,,,,,M,18
1,14,29,4,4,1,['k'],['k'],Y,Y,None,N,,,,,,,M,18
2,0,30,14,14,1,['k'],['k'],Y,N,None,Y,,,,,,,M,18
2,1,31,6,6,1,['k'],['k'],Y,Y,None,N,,,,,,,M,18
2,2,32,8,8,1,['d'],['d'],Y,N,None,Y,,,,,,,M,18
2,3,33,0,0,1,['k'],['k'],Y,Y,['space'],Y,,,,,,,M,18
2,4,34,5,5,1,['k'],['k'],Y,Y,['space'],Y,,,,,,,M,18
2,5,35,8,8,1,['d'],['d'],Y,N,None,Y,,,,,,,M,18
2,6,36,0,0,1,['k'],['d'],N,Y,None,N,,,,,,,M,18
2,7,37,4,4,1,['k'],['k'],Y,Y,['space'],Y,,,,,,,M,18
2,8,38,12,12,1,['d'],['d'],Y,Y,['space'],Y,,,,,,,M,18
2,9,39,1,1,1,['d'],['d'],Y,N,None,Y,,,,,,,M,18
2,10,40,0,0,1,['k'],['k'],Y,Y,['space'],Y,,,,,,,M,18
2,11,41,0,0,1,['d'],['d'],Y,N,None,Y,,,,,,,M,18
2,12,42,0,0,1,['d'],['d'],Y,Y,['space'],Y,,,,,,,M,18
2,13,43,5,5,1,['d'],['d'],Y,N,None,Y,,,,,,,M,18
2,14,44,0,0,1,['k'],['k'],Y,Y,['space'],Y,,,,,,,M,18
3,0,45,0,0,1,['k'],['k'],Y,Y,None,N,,,,,,,M,18
3,1,46,11,11,1,['k'],['k'],Y,Y,['space'],Y,,,,,,,M,18
3,2,47,8,8,1,['d'],['d'],Y,Y,['space'],Y,,,,,,,M,18
3,3,48,12,12,1,['k'],['d'],N,Y,['space'],Y,,,,,,,M,18
3,4,49,11,11,1,['k'],['k'],Y,N,None,Y,43,37,24,,,,M,18
3,5,50,13,13,2,['k'],['d'],N,,,,,,,,,,M,18
3,6,51,3,3,2,['k'],['d'],N,,,,,,,,,,M,18
3,7,52,7,7,2,['k'],['k'],Y,Y,['space'],Y,,,,,,,M,18
3,8,53,11,11,2,['k'],['k'],Y,Y,['space'],Y,,,,,,,M,18
3,9,54,10,10,2,['k'],['k'],Y,Y,None,N,,,,,,,M,18
3,10,55,7,7,2,['k'],['k'],Y,N,None,Y,,,,,,,M,18
3,11,56,9,9,2,['k'],['k'],Y,N,None,Y,,,,,,,M,18
3,12,57,9,9,2,['d'],['d'],Y,N,['space'],N,,,,,,,M,18
3,13,58,13,13,2,['k'],['d'],N,Y,None,N,,,,,,,M,18
3,14,59,11,11,2,['k'],['k'],Y,Y,['space'],Y,,,,,,,M,18
4,0,60,10,10,2,['d'],['d'],Y,N,None,Y,,,,,,,M,18
4,1,61,2,2,2,['d'],['k'],N,Y,['space'],Y,,,,,,,M,18
4,2,62,2,2,2,['d'],['d'],Y,Y,['space'],Y,,,,,,,M,18
4,3,63,7,7,2,['k'],['k'],Y,Y,['space'],Y,,,,,,,M,18
4,4,64,11,11,2,['k'],['k'],Y,Y,['space'],Y,,,,,,,M,18
4,5,65,1,1,2,['k'],['k'],Y,N,None,Y,,,,,,,M,18
4,6,66,3,3,2,['k'],['k'],Y,N,None,Y,,,,,,,M,18
4,7,67,8,8,2,['k'],['k'],Y,Y,['space'],Y,,,,,,,M,18
4,8,68,14,14,2,['d'],['d'],Y,Y,['space'],Y,,,,,,,M,18
4,9,69,3,3,2,['k'],['k'],Y,Y,None,N,,,,,,,M,18
4,10,70,0,0,2,['d'],['d'],Y,Y,None,N,,,,,,,M,18
4,11,71,7,7,2,['k'],['d'],N,N,None,Y,,,,,,,M,18
4,12,72,3,3,2,['k'],['k'],Y,Y,['space'],Y,,,,,,,M,18
4,13,73,1,1,2,['k'],['k'],Y,Y,['space'],Y,,,,,,,M,18
4,14,74,6,6,2,['d'],['d'],Y,Y,None,N,,,,,,,M,18
5,0,75,9,9,2,['d'],['d'],Y,N,None,Y,,,,,,,M,18
5,1,76,7,7,2,['d'],['d'],Y,Y,None,N,,,,,,,M,18
5,2,77,7,7,2,['k'],['d'],N,Y,['space'],Y,,,,,,,M,18
5,3,78,2,2,2,['k'],['k'],Y,N,None,Y,,,,,,,M,18
5,4,79,3,3,2,['k'],['k'],Y,N,['space'],N,,,,,,,M,18
5,5,80,14,14,2,['k'],['k'],Y,N,None,Y,,,,,,,M,18
5,6,81,14,14,2,['k'],['d'],N,Y,None,N,,,,,,,M,18
5,7,82,12,12,2,['d'],['d'],Y,Y,None,N,,,,,,,M,18
5,8,83,4,4,2,['k'],['d'],N,Y,['space'],Y,,,,,,,M,18
5,9,84,7,7,2,['d'],['d'],Y,N,['space'],N,,,,,,,M,18
5,10,85,14,14,2,['d'],['d'],Y,N,['space'],N,,,,,,,M,18
5,11,86,10,10,2,['d'],['d'],Y,Y,['space'],Y,,,,,,,M,18
5,12,87,6,6,2,['d'],['d'],Y,N,None,Y,,,,,,,M,18
5,13,88,4,4,2,['d'],['d'],Y,Y,['space'],Y,,,,,,,M,18
5,14,89,12,12,2,['d'],['d'],Y,Y,['space'],Y,,,,,,,M,18
6,0,90,9,9,2,['k'],['k'],Y,N,None,Y,,,,,,,M,18
6,1,91,4,4,2,['d'],['d'],Y,N,None,Y,,,,,,,M,18
6,2,92,6,6,2,['k'],['k'],Y,Y,['space'],Y,,,,,,,M,18
6,3,93,7,7,2,['d'],['d'],Y,N,None,Y,,,,,,,M,18
6,4,94,9,9,2,['k'],['k'],Y,N,None,Y,,,,,,,M,18
6,5,95,9,9,2,['k'],['k'],Y,N,None,Y,,,,,,,M,18
6,6,96,2,2,2,['d'],['d'],Y,N,None,Y,,,,,,,M,18
6,7,97,4,4,2,['k'],['k'],Y,N,None,Y,,,,,,,M,18
6,8,98,10,10,2,['k'],['k'],Y,N,None,Y,,,,,,,M,18
6,9,99,6,6,2,['d'],['k'],N,N,None,Y,41,36,25,,,,M,18
6,10,100,9,9,3,['d'],['d'],Y,,,,,,,,,,M,18
6,11,101,9,9,3,['k'],['k'],Y,,,,,,,,,,M,18
6,12,102,7,7,3,['d'],['d'],Y,Y,['space'],Y,,,,,,,M,18
6,13,103,13,13,3,['k'],['k'],Y,N,None,Y,,,,,,,M,18
6,14,104,4,4,3,['k'],['d'],N,N,None,Y,,,,,,,M,18
7,0,105,14,14,3,['k'],['d'],N,Y,['space'],Y,,,,,,,M,18
7,1,106,12,12,3,['k'],['k'],Y,N,None,Y,,,,,,,M,18
7,2,107,13,13,3,['k'],['k'],Y,Y,None,N,,,,,,,M,18
7,3,108,5,5,3,['k'],['k'],Y,N,None,Y,,,,,,,M,18
7,4,109,13,13,3,['k'],['k'],Y,N,None,Y,,,,,,,M,18
7,5,110,8,8,3,['k'],['k'],Y,N,None,Y,,,,,,,M,18
7,6,111,7,7,3,['k'],['k'],Y,N,None,Y,,,,,,,M,18
7,7,112,10,10,3,['k'],['k'],Y,Y,['space'],Y,,,,,,,M,18
7,8,113,9,9,3,['k'],['k'],Y,N,None,Y,,,,,,,M,18
7,9,114,1,1,3,['k'],['k'],Y,Y,['space'],Y,,,,,,,M,18
7,10,115,6,6,3,['d'],['d'],Y,Y,['space'],Y,,,,,,,M,18
7,11,116,5,5,3,['k'],['k'],Y,N,None,Y,,,,,,,M,18
7,12,117,10,10,3,['k'],['k'],Y,N,None,Y,,,,,,,M,18
7,13,118,11,11,3,['d'],['d'],Y,Y,['space'],Y,,,,,,,M,18
7,14,119,9,9,3,['d'],['d'],Y,Y,['space'],Y,,,,,,,M,18
8,0,120,8,8,3,['d'],['d'],Y,N,None,Y,,,,,,,M,18
8,1,121,4,4,3,['k'],['d'],N,Y,['space'],Y,,,,,,,M,18
8,2,122,1,1,3,['d'],['d'],Y,Y,['space'],Y,,,,,,,M,18
8,3,123,1,1,3,['k'],['k'],Y,Y,['space'],Y,,,,,,,M,18
8,4,124,12,12,3,['k'],['k'],Y,Y,['space'],Y,,,,,,,M,18
8,5,125,13,13,3,['k'],['d'],N,N,None,Y,,,,,,,M,18
8,6,126,6,6,3,['d'],['k'],N,N,None,Y,,,,,,,M,18
8,7,127,0,0,3,['k'],['d'],N,Y,['space'],Y,,,,,,,M,18
8,8,128,5,5,3,['k'],['k'],Y,N,None,Y,,,,,,,M,18
8,9,129,6,6,3,['k'],['k'],Y,N,['space'],N,,,,,,,M,18
8,10,130,13,13,3,['d'],['d'],Y,N,['space'],N,,,,,,,M,18
8,11,131,7,7,3,['k'],['k'],Y,Y,['space'],Y,,,,,,,M,18
8,12,132,8,8,3,['d'],['d'],Y,N,['space'],N,,,,,,,M,18
8,13,133,6,6,3,['k'],['d'],N,N,None,Y,,,,,,,M,18
8,14,134,12,12,3,['k'],['d'],N,N,None,Y,,,,,,,M,18
9,0,135,8,8,3,['d'],['d'],Y,Y,['space'],Y,,,,,,,M,18
9,1,136,3,3,3,['d'],['d'],Y,Y,['space'],Y,,,,,,,M,18
9,2,137,1,1,3,['d'],['k'],N,N,None,Y,,,,,,,M,18
9,3,138,4,4,3,['k'],['k'],Y,N,None,Y,,,,,,,M,18
9,4,139,12,12,3,['d'],['d'],Y,N,None,Y,,,,,,,M,18
9,5,140,5,5,3,['k'],['k'],Y,Y,['space'],Y,,,,,,,M,18
9,6,141,3,3,3,['d'],['d'],Y,N,None,Y,,,,,,,M,18
9,7,142,13,13,3,['d'],['d'],Y,N,None,Y,,,,,,,M,18
9,8,143,3,3,3,['k'],['k'],Y,Y,None,N,,,,,,,M,18
9,9,144,6,6,3,['k'],['d'],N,Y,['space'],Y,,,,,,,M,18
9,10,145,3,3,3,['d'],['d'],Y,Y,['space'],Y,,,,,,,M,18
9,11,146,6,6,3,['k'],['k'],Y,Y,['space'],Y,,,,,,,M,18
9,12,147,3,3,3,['d'],['d'],Y,N,None,Y,,,,,,,M,18
9,13,148,0,0,3,['k'],['k'],Y,Y,['space'],Y,,,,,,,M,18
9,14,149,13,13,3,['d'],['d'],Y,N,None,Y,40,43,22,,,,M,18
10,0,150,7,7,4,['d'],['d'],Y,,,,,,,,,,M,18
10,1,151,13,13,4,['k'],['k'],Y,,,,,,,,,,M,18
10,2,152,9,9,4,['k'],['d'],N,Y,['space'],Y,,,,,,,M,18
10,3,153,3,3,4,['k'],['k'],Y,N,None,Y,,,,,,,M,18
10,4,154,8,8,4,['k'],['k'],Y,N,['space'],N,,,,,,,M,18
10,5,155,0,0,4,['d'],['d'],Y,Y,['space'],Y,,,,,,,M,18
10,6,156,8,8,4,['d'],['d'],Y,Y,['space'],Y,,,,,,,M,18
10,7,157,11,11,4,['k'],['k'],Y,Y,['space'],Y,,,,,,,M,18
10,8,158,7,7,4,['d'],['d'],Y,Y,['space'],Y,,,,,,,M,18
10,9,159,7,7,4,['d'],['d'],Y,Y,['space'],Y,,,,,,,M,18
10,10,160,10,10,4,['k'],['k'],Y,N,None,Y,,,,,,,M,18
10,11,161,0,0,4,['d'],['d'],Y,Y,['space'],Y,,,,,,,M,18
10,12,162,2,2,4,['d'],['d'],Y,Y,['space'],Y,,,,,,,M,18
10,13,163,11,11,4,['k'],['k'],Y,N,None,Y,,,,,,,M,18
10,14,164,7,7,4,['k'],['k'],Y,N,None,Y,,,,,,,M,18
11,0,165,6,6,4,['d'],['d'],Y,Y,['space'],Y,,,,,,,M,18
11,1,166,12,12,4,['k'],['k'],Y,N,None,Y,,,,,,,M,18
11,2,167,1,1,4,['k'],['k'],Y,Y,['space'],Y,,,,,,,M,18
11,3,168,0,0,4,['d'],['d'],Y,Y,['space'],Y,,,,,,,M,18
11,4,169,0,0,4,['k'],['d'],N,N,None,Y,,,,,,,M,18
11,5,170,10,10,4,['k'],['k'],Y,N,None,Y,,,,,,,M,18
11,6,171,8,8,4,['k'],['k'],Y,N,None,Y,,,,,,,M,18
11,7,172,0,0,4,['d'],['d'],Y,Y,['space'],Y,,,,,,,M,18
11,8,173,4,4,4,['k'],['d'],N,N,None,Y,,,,,,,M,18
11,9,174,12,12,4,['k'],['d'],N,Y,['space'],Y,,,,,,,M,18
11,10,175,7,7,4,['d'],['d'],Y,Y,['space'],Y,,,,,,,M,18
11,11,176,8,8,4,['k'],['k'],Y,N,None,Y,,,,,,,M,18
11,12,177,14,14,4,['k'],['k'],Y,N,None,Y,,,,,,,M,18
11,13,178,2,2,4,['d'],['d'],Y,Y,['space'],Y,,,,,,,M,18
11,14,179,4,4,4,['d'],['d'],Y,Y,['space'],Y,,,,,,,M,18
12,0,180,8,8,4,['d'],['k'],N,Y,['space'],Y,,,,,,,M,18
12,1,181,5,5,4,['d'],['k'],N,Y,['space'],Y,,,,,,,M,18
12,2,182,8,8,4,['d'],['d'],Y,N,None,Y,,,,,,,M,18
12,3,183,12,12,4,['d'],['d'],Y,N,None,Y,,,,,,,M,18
12,4,184,9,9,4,['k'],['k'],Y,N,None,Y,,,,,,,M,18
12,5,185,13,13,4,['d'],['d'],Y,Y,['space'],Y,,,,,,,M,18
12,6,186,10,10,4,['d'],['k'],N,N,None,Y,,,,,,,M,18
12,7,187,10,10,4,['d'],['d'],Y,Y,None,N,,,,,,,M,18
12,8,188,9,9,4,['d'],['d'],Y,Y,['space'],Y,,,,,,,M,18
12,9,189,8,8,4,['k'],['k'],Y,N,None,Y,,,,,,,M,18
12,10,190,3,3,4,['d'],['d'],Y,N,None,Y,,,,,,,M,18
12,11,191,2,2,4,['k'],['d'],N,N,None,Y,,,,,,,M,18
12,12,192,14,14,4,['k'],['k'],Y,N,None,Y,,,,,,,M,18
12,13,193,11,11,4,['k'],['k'],Y,N,None,Y,,,,,,,M,18
12,14,194,8,8,4,['d'],['d'],Y,N,None,Y,,,,,,,M,18
13,0,195,3,3,4,['d'],['k'],N,Y,['space'],Y,,,,,,,M,18
13,1,196,14,14,4,['k'],['k'],Y,Y,['space'],Y,,,,,,,M,18
13,2,197,1,1,4,['k'],['d'],N,Y,['space'],Y,,,,,,,M,18
13,3,198,12,12,4,['d'],['k'],N,N,None,Y,,,,,,,M,18
13,4,199,14,14,4,['d'],['d'],Y,Y,['space'],Y,39,46,25,,,,M,18
13,5,200,13,13,5,['k'],['k'],Y,,,,,,,,,,M,18
13,6,201,10,10,5,['k'],['k'],Y,,,,,,,,,,M,18
13,7,202,1,1,5,['k'],['d'],N,N,None,Y,,,,,,,M,18
13,8,203,5,5,5,['d'],['d'],Y,N,None,Y,,,,,,,M,18
13,9,204,3,3,5,['k'],['k'],Y,N,None,Y,,,,,,,M,18
13,10,205,8,8,5,['d'],['d'],Y,Y,None,N,,,,,,,M,18
13,11,206,6,6,5,['d'],['d'],Y,Y,['space'],Y,,,,,,,M,18
13,12,207,4,4,5,['d'],['d'],Y,N,None,Y,,,,,,,M,18
13,13,208,4,4,5,['d'],['k'],N,Y,None,N,,,,,,,M,18
13,14,209,1,1,5,['d'],['d'],Y,Y,['space'],Y,,,,,,,M,18
14,0,210,7,7,5,['d'],['d'],Y,N,None,Y,,,,,,,M,18
14,1,211,2,2,5,['d'],['d'],Y,Y,['space'],Y,,,,,,,M,18
14,2,212,3,3,5,['d'],['d'],Y,N,None,Y,,,,,,,M,18
14,3,213,0,0,5,['d'],['d'],Y,Y,['space'],Y,,,,,,,M,18
14,4,214,2,2,5,['d'],['d'],Y,N,None,Y,,,,,,,M,18
14,5,215,4,4,5,['k'],['d'],N,N,None,Y,,,,,,,M,18
14,6,216,9,9,5,['k'],['k'],Y,Y,['space'],Y,,,,,,,M,18
14,7,217,0,0,5,['k'],['d'],N,N,None,Y,,,,,,,M,18
14,8,218,1,1,5,['d'],['d'],Y,Y,['space'],Y,,,,,,,M,18
14,9,219,11,11,5,['d'],['d'],Y,Y,['space'],Y,,,,,,,M,18
14,10,220,5,5,5,['k'],['k'],Y,Y,['space'],Y,,,,,,,M,18
14,11,221,7,7,5,['d'],['d'],Y,Y,None,N,,,,,,,M,18
14,12,222,2,2,5,['k'],['d'],N,Y,None,N,,,,,,,M,18
14,13,223,10,10,5,['k'],['d'],N,Y,['space'],Y,,,,,,,M,18
14,14,224,7,7,5,['d'],['d'],Y,Y,['space'],Y,,,,,,,M,18
15,0,225,2,2,5,['d'],['d'],Y,Y,['space'],Y,,,,,,,M,18
15,1,226,5,5,5,['d'],['d'],Y,N,None,Y,,,,,,,M,18
15,2,227,5,5,5,['k'],['k'],Y,N,['space'],N,,,,,,,M,18
15,3,228,8,8,5,['k'],['k'],Y,Y,['space'],Y,,,,,,,M,18
15,4,229,11,11,5,['d'],['d'],Y,N,None,Y,,,,,,,M,18
15,5,230,14,14,5,['k'],['k'],Y,Y,['space'],Y,,,,,,,M,18
15,6,231,8,8,5,['k'],['d'],N,Y,['space'],Y,,,,,,,M,18
15,7,232,0,0,5,['d'],['d'],Y,Y,['space'],Y,,,,,,,M,18
15,8,233,6,6,5,['d'],['d'],Y,N,None,Y,,,,,,,M,18
15,9,234,12,12,5,['k'],['k'],Y,N,None,Y,,,,,,,M,18
15,10,235,12,12,5,['d'],['d'],Y,Y,['space'],Y,,,,,,,M,18
15,11,236,8,8,5,['d'],['d'],Y,N,None,Y,,,,,,,M,18
15,12,237,11,11,5,['d'],['d'],Y,N,None,Y,,,,,,,M,18
15,13,238,3,3,5,['k'],['k'],Y,Y,['space'],Y,,,,,,,M,18
15,14,239,6,6,5,['k'],['k'],Y,N,None,Y,,,,,,,M,18
16,0,240,4,4,5,['d'],['d'],Y,Y,['space'],Y,,,,,,,M,18
16,1,241,7,7,5,['k'],['k'],Y,Y,['space'],Y,,,,,,,M,18
16,2,242,3,3,5,['d'],['d'],Y,N,None,Y,,,,,,,M,18
16,3,243,13,13,5,['k'],['k'],Y,Y,['space'],Y,,,,,,,M,18
16,4,244,13,13,5,['k'],['k'],Y,Y,['space'],Y,,,,,,,M,18
16,5,245,1,1,5,['d'],['d'],Y,N,None,Y,,,,,,,M,18
16,6,246,12,12,5,['k'],['k'],Y,N,None,Y,,,,,,,M,18
16,7,247,14,14,5,['d'],['d'],Y,N,None,Y,,,,,,,M,18
16,8,248,4,4,5,['k'],['k'],Y,N,None,Y,,,,,,,M,18
16,9,249,6,6,5,['d'],['d'],Y,N,None,Y,43,43,25,,,,M,18
16,10,250,8,8,6,['d'],['d'],Y,,,,,,,,,,M,18
16,11,251,8,8,6,['k'],['d'],N,,,,,,,,,,M,18
16,12,252,2,2,6,['d'],['d'],Y,N,None,Y,,,,,,,M,18
16,13,253,0,0,6,['k'],['k'],Y,N,None,Y,,,,,,,M,18
16,14,254,1,1,6,['d'],['k'],N,N,None,Y,,,,,,,M,18
17,0,255,11,11,6,None,,Timed out,N,['space'],N,,,,,,,M,18
17,1,256,6,6,6,['k'],['k'],Y,Y,None,N,,,,,,,M,18
17,2,257,7,7,6,['k'],['k'],Y,N,None,Y,,,,,,,M,18
17,3,258,10,10,6,['k'],['k'],Y,N,None,Y,,,,,,,M,18
17,4,259,0,0,6,['k'],['k'],Y,N,None,Y,,,,,,,M,18
17,5,260,7,7,6,['k'],['k'],Y,N,['space'],N,,,,,,,M,18
17,6,261,3,3,6,['d'],['d'],Y,N,['space'],N,,,,,,,M,18
17,7,262,2,2,6,['d'],['d'],Y,N,['space'],N,,,,,,,M,18
17,8,263,3,3,6,['d'],['d'],Y,N,None,Y,,,,,,,M,18
17,9,264,7,7,6,['k'],['k'],Y,N,None,Y,,,,,,,M,18
17,10,265,0,0,6,['d'],['d'],Y,Y,['space'],Y,,,,,,,M,18
17,11,266,4,4,6,['d'],['d'],Y,Y,['space'],Y,,,,,,,M,18
17,12,267,10,10,6,['k'],['k'],Y,N,None,Y,,,,,,,M,18
17,13,268,14,14,6,['k'],['k'],Y,N,None,Y,,,,,,,M,18
17,14,269,11,11,6,['d'],['d'],Y,Y,['space'],Y,,,,,,,M,18
18,0,270,2,2,6,['k'],['k'],Y,Y,['space'],Y,,,,,,,M,18
18,1,271,6,6,6,['d'],['d'],Y,N,None,Y,,,,,,,M,18
18,2,272,12,12,6,None,,Timed out,N,None,Y,,,,,,,M,18
18,3,273,7,7,6,['k'],['k'],Y,N,None,Y,,,,,,,M,18
18,4,274,7,7,6,['d'],['d'],Y,N,None,Y,,,,,,,M,18
18,5,275,2,2,6,['d'],['k'],N,Y,None,N,,,,,,,M,18
18,6,276,7,7,6,['k'],['k'],Y,N,['k'],N,,,,,,,M,18
18,7,277,8,8,6,['d'],['d'],Y,Y,None,N,,,,,,,M,18
18,8,278,2,2,6,['d'],['d'],Y,N,None,Y,,,,,,,M,18
18,9,279,14,14,6,['k'],['k'],Y,Y,None,N,,,,,,,M,18
18,10,280,13,13,6,['k'],['k'],Y,Y,['space'],Y,,,,,,,M,18
18,11,281,14,14,6,['k'],['k'],Y,N,None,Y,,,,,,,M,18
18,12,282,9,9,6,['d'],['k'],N,Y,None,N,,,,,,,M,18
18,13,283,12,12,6,['k'],['k'],Y,Y,None,N,,,,,,,M,18
18,14,284,0,0,6,['k'],['k'],Y,Y,['space'],Y,,,,,,,M,18
19,0,285,0,0,6,['k'],['k'],Y,Y,None,N,,,,,,,M,18
19,1,286,6,6,6,['d'],['d'],Y,Y,['space'],Y,,,,,,,M,18
19,2,287,6,6,6,['d'],['d'],Y,Y,['space'],Y,,,,,,,M,18
19,3,288,0,0,6,['d'],['k'],N,Y,['space'],Y,,,,,,,M,18
19,4,289,5,5,6,['d'],['d'],Y,Y,['space'],Y,,,,,,,M,18
19,5,290,6,6,6,['k'],['k'],Y,N,None,Y,,,,,,,M,18
19,6,291,3,3,6,['d'],['d'],Y,N,None,Y,,,,,,,M,18
19,7,292,8,8,6,['k'],['d'],N,Y,['space'],Y,,,,,,,M,18
19,8,293,10,10,6,['d'],['d'],Y,N,['space'],N,,,,,,,M,18
19,9,294,3,3,6,['k'],['k'],Y,N,['space'],N,,,,,,,M,18
19,10,295,10,10,6,['d'],['d'],Y,N,None,Y,,,,,,,M,18
19,11,296,9,9,6,['d'],['d'],Y,N,None,Y,,,,,,,M,18
19,12,297,9,9,6,['k'],['d'],N,Y,None,N,,,,,,,M,18
19,13,298,8,8,6,['d'],['d'],Y,N,None,Y,,,,,,,M,18
19,14,299,2,2,6,['k'],['k'],Y,Y,None,N,41,32,20,,,,M,18
20,0,300,5,5,7,['k'],['k'],Y,,,,,,,,,,M,18
20,1,301,1,1,7,['d'],['d'],Y,,,,,,,,,,M,18
20,2,302,0,0,7,['d'],['d'],Y,Y,None,N,,,,,,,M,18
20,3,303,14,14,7,['k'],['k'],Y,Y,None,N,,,,,,,M,18
20,4,304,8,8,7,['k'],['d'],N,Y,['space'],Y,,,,,,,M,18
20,5,305,3,3,7,['k'],['k'],Y,Y,['space'],Y,,,,,,,M,18
20,6,306,1,1,7,['k'],['k'],Y,N,None,Y,,,,,,,M,18
20,7,307,12,12,7,['k'],['k'],Y,N,None,Y,,,,,,,M,18
20,8,308,1,1,7,['k'],['k'],Y,Y,['space'],Y,,,,,,,M,18
20,9,309,14,14,7,['d'],['d'],Y,Y,['space'],Y,,,,,,,M,18
20,10,310,1,1,7,['k'],['k'],Y,Y,None,N,,,,,,,M,18
20,11,311,10,10,7,['k'],['k'],Y,N,None,Y,,,,,,,M,18
20,12,312,5,5,7,['d'],['d'],Y,N,['space'],N,,,,,,,M,18
20,13,313,1,1,7,['d'],['d'],Y,Y,['space'],Y,,,,,,,M,18
20,14,314,5,5,7,['k'],['k'],Y,Y,None,N,,,,,,,M,18
21,0,315,5,5,7,['k'],['k'],Y,Y,['space'],Y,,,,,,,M,18
21,1,316,5,5,7,['d'],['d'],Y,Y,None,N,,,,,,,M,18
21,2,317,5,5,7,['k'],['k'],Y,Y,None,N,,,,,,,M,18
21,3,318,11,11,7,['k'],['k'],Y,N,None,Y,,,,,,,M,18
21,4,319,13,13,7,['k'],['k'],Y,Y,['space'],Y,,,,,,,M,18
21,5,320,12,12,7,None,,Timed out,N,None,Y,,,,,,,M,18
21,6,321,2,2,7,['d'],['d'],Y,N,None,Y,,,,,,,M,18
21,7,322,7,7,7,['d'],['d'],Y,Y,None,N,,,,,,,M,18
21,8,323,8,8,7,['k'],['k'],Y,N,['space'],N,,,,,,,M,18
21,9,324,14,14,7,['k'],['k'],Y,N,None,Y,,,,,,,M,18
21,10,325,11,11,7,None,,Timed out,Y,['space'],Y,,,,,,,M,18
21,11,326,12,12,7,['d'],['d'],Y,Y,None,N,,,,,,,M,18
21,12,327,11,11,7,['k'],['k'],Y,Y,None,N,,,,,,,M,18
21,13,328,11,11,7,['k'],['d'],N,N,None,Y,,,,,,,M,18
21,14,329,4,4,7,['d'],['d'],Y,Y,['space'],Y,,,,,,,M,18
22,0,330,1,1,7,['k'],['k'],Y,N,None,Y,,,,,,,M,18
22,1,331,7,7,7,['d'],['k'],N,N,None,Y,,,,,,,M,18
22,2,332,13,13,7,['d'],['d'],Y,N,None,Y,,,,,,,M,18
22,3,333,13,13,7,['d'],['d'],Y,N,None,Y,,,,,,,M,18
22,4,334,5,5,7,['d'],['d'],Y,Y,['space'],Y,,,,,,,M,18
22,5,335,10,10,7,['d'],['d'],Y,Y,['space'],Y,,,,,,,M,18
22,6,336,7,7,7,['k'],['k'],Y,Y,['space'],Y,,,,,,,M,18
22,7,337,6,6,7,['d'],['k'],N,N,None,Y,,,,,,,M,18
22,8,338,6,6,7,['d'],['d'],Y,N,['space'],N,,,,,,,M,18
22,9,339,0,0,7,['d'],['d'],Y,Y,['space'],Y,,,,,,,M,18
22,10,340,1,1,7,['d'],['d'],Y,N,None,Y,,,,,,,M,18
22,11,341,8,8,7,['d'],['d'],Y,N,None,Y,,,,,,,M,18
22,12,342,5,5,7,['k'],['k'],Y,Y,None,N,,,,,,,M,18
22,13,343,10,10,7,['k'],['k'],Y,N,None,Y,,,,,,,M,18
22,14,344,4,4,7,['k'],['k'],Y,Y,None,N,,,,,,,M,18
23,0,345,4,4,7,['k'],['k'],Y,Y,None,N,,,,,,,M,18
23,1,346,4,4,7,['k'],['k'],Y,N,None,Y,,,,,,,M,18
23,2,347,9,9,7,['k'],['k'],Y,N,None,Y,,,,,,,M,18
23,3,348,8,8,7,['d'],['k'],N,N,None,Y,,,,,,,M,18
23,4,349,11,11,7,['k'],['d'],N,N,None,Y,42,33,25,,,,M,18
23,5,350,13,13,8,['d'],['d'],Y,,,,,,,,,,M,18
23,6,351,14,14,8,['k'],['k'],Y,,,,,,,,,,M,18
23,7,352,7,7,8,['d'],['d'],Y,Y,None,N,,,,,,,M,18
23,8,353,13,13,8,['d'],['k'],N,Y,None,N,,,,,,,M,18
23,9,354,1,1,8,['d'],['d'],Y,N,None,Y,,,,,,,M,18
23,10,355,5,5,8,['k'],['k'],Y,N,None,Y,,,,,,,M,18
23,11,356,10,10,8,['d'],['d'],Y,N,None,Y,,,,,,,M,18
23,12,357,5,5,8,['d'],['d'],Y,N,None,Y,,,,,,,M,18
23,13,358,1,1,8,['d'],['d'],Y,N,None,Y,,,,,,,M,18
23,14,359,8,8,8,['d'],['d'],Y,Y,['space'],Y,,,,,,,M,18
24,0,360,12,12,8,['d'],['d'],Y,N,None,Y,,,,,,,M,18
24,1,361,5,5,8,['d'],['d'],Y,N,None,Y,,,,,,,M,18
24,2,362,13,13,8,['k'],['d'],N,N,None,Y,,,,,,,M,18
24,3,363,1,1,8,['k'],['k'],Y,N,None,Y,,,,,,,M,18
24,4,364,11,11,8,['k'],['k'],Y,N,None,Y,,,,,,,M,18
24,5,365,4,4,8,['k'],['k'],Y,Y,['space'],Y,,,,,,,M,18
24,6,366,6,6,8,['d'],['d'],Y,N,None,Y,,,,,,,M,18
24,7,367,9,9,8,['d'],['d'],Y,Y,None,N,,,,,,,M,18
24,8,368,11,11,8,['k'],['k'],Y,N,['space'],N,,,,,,,M,18
24,9,369,13,13,8,['d'],['d'],Y,N,['space'],N,,,,,,,M,18
24,10,370,4,4,8,['k'],['k'],Y,Y,None,N,,,,,,,M,18
24,11,371,9,9,8,['d'],['d'],Y,N,None,Y,,,,,,,M,18
24,12,372,14,14,8,['d'],['d'],Y,Y,['space'],Y,,,,,,,M,18
24,13,373,7,7,8,['k'],['d'],N,N,None,Y,,,,,,,M,18
24,14,374,6,6,8,['k'],['k'],Y,Y,['space'],Y,,,,,,,M,18
25,0,375,8,8,8,['d'],['d'],Y,N,['space'],N,,,,,,,M,18
25,1,376,3,3,8,['k'],['k'],Y,Y,None,N,,,,,,,M,18
25,2,377,2,2,8,['k'],['k'],Y,N,None,Y,,,,,,,M,18
25,3,378,12,12,8,['k'],['k'],Y,Y,['space'],Y,,,,,,,M,18
25,4,379,0,0,8,['d'],['d'],Y,N,None,Y,,,,,,,M,18
25,5,380,4,4,8,['d'],['d'],Y,Y,None,N,,,,,,,M,18
25,6,381,10,10,8,None,,Timed out,N,None,Y,,,,,,,M,18
25,7,382,14,14,8,['k'],['k'],Y,Y,None,N,,,,,,,M,18
25,8,383,9,9,8,['k'],['d'],N,N,None,Y,,,,,,,M,18
25,9,384,12,12,8,['k'],['k'],Y,Y,['space'],Y,,,,,,,M,18
25,10,385,10,10,8,['d'],['d'],Y,N,None,Y,,,,,,,M,18
25,11,386,10,10,8,['d'],['d'],Y,N,None,Y,,,,,,,M,18
25,12,387,3,3,8,['d'],['d'],Y,Y,['space'],Y,,,,,,,M,18
25,13,388,0,0,8,['d'],['d'],Y,Y,['space'],Y,,,,,,,M,18
25,14,389,10,10,8,None,,Timed out,Y,['space'],Y,,,,,,,M,18
26,0,390,6,6,8,['d'],['d'],Y,Y,None,N,,,,,,,M,18
26,1,391,13,13,8,['k'],['k'],Y,N,['space'],N,,,,,,,M,18
26,2,392,10,10,8,['k'],['k'],Y,Y,['k'],N,,,,,,,M,18
26,3,393,13,13,8,['k'],['k'],Y,Y,None,N,,,,,,,M,18
26,4,394,11,11,8,['k'],['k'],Y,Y,None,N,,,,,,,M,18
26,5,395,1,1,8,['k'],['k'],Y,Y,None,N,,,,,,,M,18
26,6,396,8,8,8,None,,Timed out,Y,None,N,,,,,,,M,18
26,7,397,12,12,8,['d'],['d'],Y,N,['space'],N,,,,,,,M,18
26,8,398,8,8,8,None,,Timed out,Y,None,N,,,,,,,M,18
26,9,399,3,3,8,['k'],['d'],N,N,None,Y,41,29,23,,,,M,18
26,10,400,0,0,9,['k'],['k'],Y,,,,,,,,,,M,18
26,11,401,9,9,9,['d'],['d'],Y,,,,,,,,,,M,18
26,12,402,14,14,9,['d'],['k'],N,Y,None,N,,,,,,,M,18
26,13,403,10,10,9,['d'],['d'],Y,N,None,Y,,,,,,,M,18
26,14,404,8,8,9,['d'],['d'],Y,Y,None,N,,,,,,,M,18
27,0,405,1,1,9,['k'],['k'],Y,N,None,Y,,,,,,,M,18
27,1,406,11,11,9,['k'],['k'],Y,Y,None,N,,,,,,,M,18
27,2,407,4,4,9,['k'],['k'],Y,Y,['space'],Y,,,,,,,M,18
27,3,408,0,0,9,['d'],['k'],N,Y,['space'],Y,,,,,,,M,18
27,4,409,5,5,9,['k'],['k'],Y,N,None,Y,,,,,,,M,18
27,5,410,4,4,9,['k'],['k'],Y,N,None,Y,,,,,,,M,18
27,6,411,5,5,9,['k'],['k'],Y,Y,None,N,,,,,,,M,18
27,7,412,12,12,9,['d'],['d'],Y,N,None,Y,,,,,,,M,18
27,8,413,8,8,9,['k'],['k'],Y,Y,None,N,,,,,,,M,18
27,9,414,9,9,9,['d'],['d'],Y,N,None,Y,,,,,,,M,18
27,10,415,1,1,9,['k'],['k'],Y,Y,['space'],Y,,,,,,,M,18
27,11,416,3,3,9,['k'],['d'],N,Y,None,N,,,,,,,M,18
27,12,417,13,13,9,None,,Timed out,Y,['d'],N,,,,,,,M,18
27,13,418,2,2,9,['k'],['k'],Y,N,None,Y,,,,,,,M,18
27,14,419,13,13,9,['k'],['d'],N,N,['space'],N,,,,,,,M,18
28,0,420,11,11,9,None,,Timed out,N,None,Y,,,,,,,M,18
28,1,421,2,2,9,None,,Timed out,N,None,Y,,,,,,,M,18
28,2,422,8,8,9,['d'],['d'],Y,Y,None,N,,,,,,,M,18
28,3,423,11,11,9,None,,Timed out,Y,None,N,,,,,,,M,18
28,4,424,13,13,9,['k'],['k'],Y,N,None,Y,,,,,,,M,18
28,5,425,12,12,9,['k'],['k'],Y,N,None,Y,,,,,,,M,18
28,6,426,7,7,9,['d'],['d'],Y,Y,None,N,,,,,,,M,18
28,7,427,3,3,9,['k'],['k'],Y,N,None,Y,,,,,,,M,18
28,8,428,11,11,9,None,,Timed out,N,None,Y,,,,,,,M,18
28,9,429,0,0,9,None,,Timed out,Y,None,N,,,,,,,M,18
28,10,430,1,1,9,['d'],['d'],Y,N,None,Y,,,,,,,M,18
28,11,431,0,0,9,None,,Timed out,Y,None,N,,,,,,,M,18
28,12,432,13,13,9,None,,Timed out,Y,None,N,,,,,,,M,18
28,13,433,11,11,9,['k'],['k'],Y,Y,None,N,,,,,,,M,18
28,14,434,13,13,9,['k'],['d'],N,Y,None,N,,,,,,,M,18
29,0,435,12,12,9,None,,Timed out,N,None,Y,,,,,,,M,18
29,1,436,12,12,9,['k'],['k'],Y,Y,None,N,,,,,,,M,18
29,2,437,14,14,9,['k'],['k'],Y,Y,['space'],Y,,,,,,,M,18
29,3,438,4,4,9,['d'],['d'],Y,Y,None,N,,,,,,,M,18
29,4,439,5,5,9,['k'],['k'],Y,Y,None,N,,,,,,,M,18
29,5,440,10,10,9,['k'],['k'],Y,Y,['space'],Y,,,,,,,M,18
29,6,441,12,12,9,['k'],['d'],N,Y,None,N,,,,,,,M,18
29,7,442,9,9,9,['k'],['k'],Y,Y,['space'],Y,,,,,,,M,18
29,8,443,2,2,9,['k'],['k'],Y,N,None,Y,,,,,,,M,18
29,9,444,5,5,9,['d'],['d'],Y,N,None,Y,,,,,,,M,18
29,10,445,4,4,9,['d'],['d'],Y,N,None,Y,,,,,,,M,18
29,11,446,10,10,9,['k'],['k'],Y,N,None,Y,,,,,,,M,18
29,12,447,14,14,9,None,,Timed out,N,None,Y,,,,,,,M,18
29,13,448,8,8,9,['d'],['d'],Y,N,None,Y,,,,,,,M,18
29,14,449,9,9,9,['d'],['d'],Y,N,['space'],N,34,27,25,,,,M,18
30,0,450,8,8,10,['d'],['d'],Y,,,,,,,,,,M,18
30,1,451,5,5,10,['k'],['k'],Y,,,,,,,,,,M,18
30,2,452,1,1,10,['k'],['k'],Y,N,None,Y,,,,,,,M,18
30,3,453,7,7,10,['k'],['k'],Y,Y,None,N,,,,,,,M,18
30,4,454,3,3,10,['d'],['d'],Y,Y,['h'],N,,,,,,,M,18
30,5,455,1,1,10,['k'],['k'],Y,N,None,Y,,,,,,,M,18
30,6,456,6,6,10,None,,Timed out,Y,None,N,,,,,,,M,18
30,7,457,1,1,10,None,,Timed out,N,None,Y,,,,,,,M,18
30,8,458,9,9,10,['k'],['k'],Y,N,None,Y,,,,,,,M,18
30,9,459,14,14,10,['k'],['k'],Y,N,None,Y,,,,,,,M,18
30,10,460,5,5,10,None,,Timed out,N,None,Y,,,,,,,M,18
30,11,461,5,5,10,None,,Timed out,N,None,Y,,,,,,,M,18
30,12,462,3,3,10,['k'],['d'],N,Y,['space'],Y,,,,,,,M,18
30,13,463,1,1,10,None,,Timed out,Y,None,N,,,,,,,M,18
30,14,464,9,9,10,['d'],['d'],Y,Y,None,N,,,,,,,M,18
31,0,465,2,2,10,['k'],['k'],Y,N,None,Y,,,,,,,M,18
31,1,466,7,7,10,['k'],['k'],Y,Y,None,N,,,,,,,M,18
31,2,467,13,13,10,['k'],['k'],Y,N,['space'],N,,,,,,,M,18
31,3,468,5,5,10,None,,Timed out,Y,None,N,,,,,,,M,18
31,4,469,12,12,10,['d'],['d'],Y,N,None,Y,,,,,,,M,18
31,5,470,1,1,10,['k'],['k'],Y,N,None,Y,,,,,,,M,18
31,6,471,14,14,10,['d'],['d'],Y,Y,None,N,,,,,,,M,18
31,7,472,4,4,10,['k'],['k'],Y,Y,['space'],Y,,,,,,,M,18
31,8,473,6,6,10,['k'],['k'],Y,N,None,Y,,,,,,,M,18
31,9,474,13,13,10,['k'],['k'],Y,Y,None,N,,,,,,,M,18
31,10,475,7,7,10,['k'],['d'],N,Y,['space'],Y,,,,,,,M,18
31,11,476,7,7,10,['d'],['d'],Y,Y,['space'],Y,,,,,,,M,18
31,12,477,9,9,10,['k'],['k'],Y,Y,['space'],Y,,,,,,,M,18
31,13,478,11,11,10,['d'],['d'],Y,N,None,Y,,,,,,,M,18
31,14,479,13,13,10,['k'],['d'],N,N,None,Y,,,,,,,M,18
32,0,480,6,6,10,['d'],['d'],Y,Y,None,N,,,,,,,M,18
32,1,481,10,10,10,['k'],['k'],Y,Y,None,N,,,,,,,M,18
32,2,482,2,2,10,['d'],['d'],Y,N,None,Y,,,,,,,M,18
32,3,483,14,14,10,['k'],['d'],N,Y,['space'],Y,,,,,,,M,18
32,4,484,2,2,10,['k'],['k'],Y,Y,['space'],Y,,,,,,,M,18
32,5,485,11,11,10,None,,Timed out,Y,None,N,,,,,,,M,18
32,6,486,4,4,10,['k'],['d'],N,N,None,Y,,,,,,,M,18
32,7,487,2,2,10,['d'],['d'],Y,N,['d'],N,,,,,,,M,18
32,8,488,9,9,10,['k'],['d'],N,Y,None,N,,,,,,,M,18
32,9,489,8,8,10,['d'],['d'],Y,N,None,Y,,,,,,,M,18
32,10,490,4,4,10,None,,Timed out,N,None,Y,,,,,,,M,18
32,11,491,12,12,10,['k'],['d'],N,N,None,Y,,,,,,,M,18
32,12,492,3,3,10,['d'],['d'],Y,Y,None,N,,,,,,,M,18
32,13,493,3,3,10,['k'],['d'],N,Y,None,N,,,,,,,M,18
32,14,494,5,5,10,['k'],['k'],Y,N,None,Y,,,,,,,M,18
33,0,495,9,9,10,['k'],['k'],Y,Y,None,N,,,,,,,M,18
33,1,496,4,4,10,None,,Timed out,N,None,Y,,,,,,,M,18
33,2,497,9,9,10,['k'],['k'],Y,N,None,Y,,,,,,,M,18
33,3,498,3,3,10,['k'],['k'],Y,Y,None,N,,,,,,,M,18
33,4,499,14,14,10,['k'],['k'],Y,N,None,Y,33,29,24,,,,M,18
33,5,500,10,10,11,['d'],['k'],Y,,,,,,,Y,Y,Y,M,18
33,6,501,4,4,11,['d'],['k'],Y,,,,,,,,Y,Y,M,18
33,7,502,10,10,11,['k'],['d'],Y,N,['space'],N,,,,,Y,Y,M,18
33,8,503,14,14,11,None,,Timed out,N,None,Y,,,,,Y,Y,M,18
33,9,504,4,4,11,None,,Timed out,Y,None,N,,,,,Y,Y,M,18
33,10,505,1,1,11,None,,Timed out,Y,None,N,,,,,Y,Y,M,18
33,11,506,14,14,11,['k'],['k'],N,N,None,Y,,,,,Y,Y,M,18
33,12,507,7,7,11,None,,Timed out,Y,None,N,,,,,Y,Y,M,18
33,13,508,11,11,11,None,,Timed out,Y,None,N,,,,,Y,Y,M,18
33,14,509,5,5,11,None,,Timed out,Y,None,N,,,,,Y,Y,M,18
34,0,510,5,5,11,['k'],['k'],N,N,None,Y,,,,,Y,Y,M,18
34,1,511,11,11,11,['k'],['d'],Y,N,None,Y,,,,,Y,Y,M,18
34,2,512,10,10,11,['k'],['k'],N,N,None,Y,,,,,Y,Y,M,18
34,3,513,11,11,11,None,,Timed out,N,None,Y,,,,,Y,Y,M,18
34,4,514,0,0,11,None,,Timed out,Y,None,N,,,,,Y,Y,M,18
34,5,515,3,3,11,None,,Timed out,Y,None,N,,,,,Y,Y,M,18
34,6,516,1,1,11,['k'],['d'],Y,N,None,Y,,,,,Y,Y,M,18
34,7,517,4,4,11,['k'],['k'],N,N,None,Y,,,,,Y,Y,M,18
34,8,518,6,6,11,['k'],['d'],Y,N,None,Y,,,,,Y,Y,M,18
34,9,519,2,2,11,None,,Timed out,Y,None,N,,,,,Y,Y,M,18
34,10,520,0,0,11,None,,Timed out,Y,None,N,,,,,Y,Y,M,18
34,11,521,11,11,11,['d'],['k'],Y,Y,None,N,,,,,Y,Y,M,18
34,12,522,1,1,11,['k'],['d'],Y,Y,None,N,,,,,Y,Y,M,18
34,13,523,2,2,11,['k'],['d'],Y,Y,None,N,,,,,Y,Y,M,18
34,14,524,10,10,11,['d'],['k'],Y,Y,None,N,,,,,Y,Y,M,18
35,0,525,12,12,11,['d'],['d'],N,Y,None,N,,,,,Y,Y,M,18
35,1,526,9,9,11,None,,Timed out,N,None,Y,,,,,Y,Y,M,18
35,2,527,3,3,11,['d'],['k'],Y,Y,None,N,,,,,Y,Y,M,18
35,3,528,12,12,11,['k'],['d'],Y,N,None,Y,,,,,Y,Y,M,18
35,4,529,2,2,11,None,,Timed out,Y,['space'],Y,,,,,Y,Y,M,18
35,5,530,5,5,11,None,,Timed out,Y,None,N,,,,,Y,Y,M,18
35,6,531,11,11,11,['d'],['k'],Y,Y,None,N,,,,,Y,Y,M,18
35,7,532,14,14,11,['k'],['d'],Y,Y,None,N,,,,,Y,Y,M,18
35,8,533,11,11,11,['d'],['k'],Y,Y,['space'],Y,,,,,Y,Y,M,18
35,9,534,0,0,11,['d'],['k'],Y,N,['space'],N,,,,,Y,Y,M,18
35,10,535,6,6,11,['k'],['d'],Y,N,None,Y,,,,,Y,Y,M,18
35,11,536,10,10,11,['k'],['k'],N,N,None,Y,,,,,Y,Y,M,18
35,12,537,6,6,11,None,,Timed out,Y,None,N,,,,,Y,Y,M,18
35,13,538,0,0,11,['k'],['d'],Y,N,None,Y,,,,,Y,Y,M,18
35,14,539,6,6,11,['d'],['k'],Y,N,None,Y,,,,,Y,Y,M,18
36,0,540,14,14,11,None,,Timed out,Y,None,N,,,,,Y,Y,M,18
36,1,541,9,9,11,None,,Timed out,Y,None,N,,,,,Y,Y,M,18
36,2,542,11,11,11,['d'],['d'],N,N,None,Y,,,,,Y,Y,M,18
36,3,543,12,12,11,['k'],['k'],N,Y,['space'],Y,,,,,Y,Y,M,18
36,4,544,5,5,11,None,,Timed out,N,None,Y,,,,,Y,Y,M,18
36,5,545,13,13,11,['d'],['d'],N,N,None,Y,,,,,Y,Y,M,18
36,6,546,10,10,11,None,,Timed out,N,None,Y,,,,,Y,Y,M,18
36,7,547,13,13,11,None,,Timed out,Y,None,N,,,,,Y,Y,M,18
36,8,548,4,4,11,['d'],['k'],Y,N,None,Y,,,,,Y,Y,M,18
36,9,549,13,13,11,['d'],['k'],Y,N,None,Y,21,24,25,,Y,Y,M,18
36,10,550,7,7,12,['k'],['d'],Y,,,,,,,,Y,Y,M,18
36,11,551,14,14,12,['k'],['d'],Y,,,,,,,,Y,Y,M,18
36,12,552,11,11,12,['d'],['k'],Y,Y,None,N,,,,,Y,Y,M,18
36,13,553,14,14,12,['d'],['k'],Y,Y,['space'],Y,,,,,Y,Y,M,18
36,14,554,3,3,12,['k'],['d'],Y,N,None,Y,,,,,Y,Y,M,18
37,0,555,7,7,12,['d'],['k'],Y,Y,None,N,,,,,Y,Y,M,18
37,1,556,12,12,12,['k'],['d'],Y,Y,['space'],Y,,,,,Y,Y,M,18
37,2,557,14,14,12,['d'],['d'],N,N,None,Y,,,,,Y,Y,M,18
37,3,558,1,1,12,['d'],['k'],Y,Y,['space'],Y,,,,,Y,Y,M,18
37,4,559,9,9,12,['k'],['k'],N,N,None,Y,,,,,Y,Y,M,18
37,5,560,10,10,12,['k'],['d'],Y,Y,None,N,,,,,Y,Y,M,18
37,6,561,2,2,12,['k'],['d'],Y,N,None,Y,,,,,Y,Y,M,18
37,7,562,5,5,12,['d'],['d'],N,N,None,Y,,,,,Y,Y,M,18
37,8,563,0,0,12,['d'],['k'],Y,N,None,Y,,,,,Y,Y,M,18
37,9,564,12,12,12,['d'],['k'],Y,N,None,Y,,,,,Y,Y,M,18
37,10,565,13,13,12,['d'],['k'],Y,N,None,Y,,,,,Y,Y,M,18
37,11,566,2,2,12,['d'],['k'],Y,Y,None,N,,,,,Y,Y,M,18
37,12,567,6,6,12,['d'],['k'],Y,N,None,Y,,,,,Y,Y,M,18
37,13,568,8,8,12,['d'],['k'],Y,N,None,Y,,,,,Y,Y,M,18
37,14,569,6,6,12,None,,Timed out,Y,None,N,,,,,Y,Y,M,18
38,0,570,9,9,12,None,,Timed out,Y,None,N,,,,,Y,Y,M,18
38,1,571,7,7,12,['k'],['d'],Y,N,None,Y,,,,,Y,Y,M,18
38,2,572,4,4,12,['d'],['k'],Y,N,None,Y,,,,,Y,Y,M,18
38,3,573,4,4,12,['k'],['d'],Y,N,['space'],N,,,,,Y,Y,M,18
38,4,574,14,14,12,['d'],['d'],N,Y,None,N,,,,,Y,Y,M,18
38,5,575,13,13,12,['k'],['d'],Y,N,None,Y,,,,,Y,Y,M,18
38,6,576,3,3,12,['d'],['k'],Y,Y,None,N,,,,,Y,Y,M,18
38,7,577,10,10,12,None,,Timed out,Y,['k'],N,,,,,Y,Y,M,18
38,8,578,6,6,12,None,,Timed out,N,None,Y,,,,,Y,Y,M,18
38,9,579,11,11,12,['d'],['k'],Y,Y,['space'],Y,,,,,Y,Y,M,18
38,10,580,13,13,12,None,,Timed out,N,None,Y,,,,,Y,Y,M,18
38,11,581,9,9,12,None,,Timed out,N,None,Y,,,,,Y,Y,M,18
38,12,582,6,6,12,['d'],['k'],Y,N,None,Y,,,,,Y,Y,M,18
38,13,583,0,0,12,['k'],['d'],Y,Y,None,N,,,,,Y,Y,M,18
38,14,584,12,12,12,['k'],['d'],Y,Y,['space'],Y,,,,,Y,Y,M,18
39,0,585,14,14,12,['d'],['d'],N,N,None,Y,,,,,Y,Y,M,18
39,1,586,14,14,12,['k'],['d'],Y,N,None,Y,,,,,Y,Y,M,18
39,2,587,13,13,12,['k'],['d'],Y,N,None,Y,,,,,Y,Y,M,18
39,3,588,9,9,12,['d'],['k'],Y,N,None,Y,,,,,Y,Y,M,18
39,4,589,2,2,12,None,,Timed out,N,None,Y,,,,,Y,Y,M,18
39,5,590,2,2,12,None,,Timed out,N,None,Y,,,,,Y,Y,M,18
39,6,591,2,2,12,None,,Timed out,N,None,Y,,,,,Y,Y,M,18
39,7,592,3,3,12,['k'],['d'],Y,Y,['space'],Y,,,,,Y,Y,M,18
39,8,593,1,1,12,['d'],['k'],Y,Y,None,N,,,,,Y,Y,M,18
39,9,594,0,0,12,['k'],['d'],Y,N,None,Y,,,,,Y,Y,M,18
39,10,595,2,2,12,['d'],['k'],Y,N,None,Y,,,,,Y,Y,M,18
39,11,596,6,6,12,['k'],['d'],Y,Y,None,N,,,,,Y,Y,M,18
39,12,597,2,2,12,['d'],['k'],Y,Y,['space'],Y,,,,,Y,Y,M,18
39,13,598,12,12,12,['k'],['k'],N,Y,None,N,,,,,Y,Y,M,18
39,14,599,11,11,12,['k'],['k'],N,N,None,Y,34,34,20,,Y,Y,M,18
