.thisRepN,.thisTrialN,.thisN,.thisIndex,.thisTrial,Block Number,Key pressed,Category,Correct?,Int Match?,Int Response,Int Correct?,Line Accuracy,Interference Accuracy,Matching Interferences,New instruction shown?,Buttons switched?,Fast?,gender,age,
0,0,0,0,0,1,['k'],['k'],Y,,,,,,,,,,F,19,
0,1,1,9,9,1,['d'],['k'],N,,,,,,,,,,F,19,
0,2,2,13,13,1,['k'],['k'],Y,N,['k'],N,,,,,,,F,19,
0,3,3,14,14,1,['d'],['d'],Y,N,None,Y,,,,,,,F,19,
0,4,4,1,1,1,['k'],['k'],Y,Y,['space'],Y,,,,,,,F,19,
0,5,5,13,13,1,['d'],['k'],N,N,['space'],N,,,,,,,F,19,
0,6,6,6,6,1,['k'],['d'],N,N,['space'],N,,,,,,,F,19,
0,7,7,13,13,1,['d'],['k'],N,N,None,Y,,,,,,,F,19,
0,8,8,1,1,1,['k'],['k'],Y,Y,None,N,,,,,,,F,19,
0,9,9,14,14,1,['d'],['d'],Y,Y,['space'],Y,,,,,,,F,19,
0,10,10,4,4,1,['k'],['k'],Y,N,None,Y,,,,,,,F,19,
0,11,11,14,14,1,['d'],['k'],N,Y,['space'],Y,,,,,,,F,19,
0,12,12,8,8,1,['k'],['d'],N,N,['space'],N,,,,,,,F,19,
0,13,13,12,12,1,['k'],['d'],N,N,None,Y,,,,,,,F,19,
0,14,14,7,7,1,['k'],['k'],Y,Y,None,N,,,,,,,F,19,
1,0,15,6,6,1,['d'],['d'],Y,Y,['space'],Y,,,,,,,F,19,
1,1,16,2,2,1,['d'],['d'],Y,N,None,Y,,,,,,,F,19,
1,2,17,0,0,1,['k'],['k'],Y,N,None,Y,,,,,,,F,19,
1,3,18,6,6,1,['d'],['d'],Y,Y,['space'],Y,,,,,,,F,19,
1,4,19,12,12,1,['k'],['k'],Y,N,None,Y,,,,,,,F,19,
1,5,20,5,5,1,['k'],['d'],N,Y,['space'],Y,,,,,,,F,19,
1,6,21,6,6,1,['k'],['k'],Y,N,['space'],N,,,,,,,F,19,
1,7,22,2,2,1,['d'],['d'],Y,N,None,Y,,,,,,,F,19,
1,8,23,6,6,1,['k'],['d'],N,N,None,Y,,,,,,,F,19,
1,9,24,8,8,1,['d'],['d'],Y,Y,None,N,,,,,,,F,19,
1,10,25,4,4,1,['k'],['d'],N,Y,['space'],Y,,,,,,,F,19,
1,11,26,10,10,1,['d'],['k'],N,N,None,Y,,,,,,,F,19,
1,12,27,2,2,1,['k'],['k'],Y,N,None,Y,,,,,,,F,19,
1,13,28,13,13,1,['d'],['d'],Y,Y,['space'],Y,,,,,,,F,19,
1,14,29,14,14,1,['k'],['d'],N,N,['space'],N,,,,,,,F,19,
2,0,30,11,11,1,['k'],['d'],N,Y,['d'],N,,,,,,,F,19,
2,1,31,5,5,1,['d'],['d'],Y,Y,['space'],Y,,,,,,,F,19,
2,2,32,1,1,1,['d'],['d'],Y,Y,None,N,,,,,,,F,19,
2,3,33,7,7,1,['k'],['k'],Y,N,None,Y,,,,,,,F,19,
2,4,34,14,14,1,['d'],['d'],Y,Y,['space'],Y,,,,,,,F,19,
2,5,35,11,11,1,['d'],['d'],Y,Y,['space'],Y,,,,,,,F,19,
2,6,36,3,3,1,['k'],['k'],Y,Y,None,N,,,,,,,F,19,
2,7,37,5,5,1,['k'],['k'],Y,Y,None,N,,,,,,,F,19,
2,8,38,9,9,1,['d'],['d'],Y,Y,['space'],Y,,,,,,,F,19,
2,9,39,5,5,1,['k'],['d'],N,N,['space'],N,,,,,,,F,19,
2,10,40,11,11,1,['k'],['k'],Y,Y,['space'],Y,,,,,,,F,19,
2,11,41,14,14,1,['d'],['k'],N,N,None,Y,,,,,,,F,19,
2,12,42,5,5,1,['k'],['k'],Y,N,None,Y,,,,,,,F,19,
2,13,43,1,1,1,['d'],['d'],Y,Y,['space'],Y,,,,,,,F,19,
2,14,44,9,9,1,['d'],['d'],Y,N,None,Y,,,,,,,F,19,
3,0,45,0,0,1,['k'],['k'],Y,Y,['space'],Y,,,,,,,F,19,
3,1,46,5,5,1,['d'],['d'],Y,Y,['d'],N,,,,,,,F,19,
3,2,47,8,8,1,['d'],['d'],Y,Y,['space'],Y,,,,,,,F,19,
3,3,48,12,12,1,['k'],['k'],Y,Y,['space'],Y,,,,,,,F,19,
3,4,49,14,14,1,['k'],['k'],Y,N,None,Y,35,33,25,,,,F,19,
3,5,50,8,8,2,['k'],['d'],N,,,,,,,,,,F,19,
3,6,51,14,14,2,['d'],['d'],Y,,,,,,,,,,F,19,
3,7,52,14,14,2,['k'],['d'],N,N,None,Y,,,,,,,F,19,
3,8,53,13,13,2,['d'],['k'],N,Y,None,N,,,,,,,F,19,
3,9,54,8,8,2,['k'],['d'],N,Y,['space'],Y,,,,,,,F,19,
3,10,55,11,11,2,['d'],['k'],N,Y,None,N,,,,,,,F,19,
3,11,56,1,1,2,['k'],['k'],Y,Y,None,N,,,,,,,F,19,
3,12,57,14,14,2,['k'],['k'],Y,N,None,Y,,,,,,,F,19,
3,13,58,12,12,2,['d'],['d'],Y,N,None,Y,,,,,,,F,19,
3,14,59,7,7,2,['k'],['d'],N,Y,['space'],Y,,,,,,,F,19,
4,0,60,4,4,2,['k'],['d'],N,N,None,Y,,,,,,,F,19,
4,1,61,6,6,2,['d'],['d'],Y,Y,None,N,,,,,,,F,19,
4,2,62,12,12,2,['k'],['d'],N,Y,['space'],Y,,,,,,,F,19,
4,3,63,7,7,2,['d'],['k'],N,N,None,Y,,,,,,,F,19,
4,4,64,4,4,2,['k'],['k'],Y,Y,['space'],Y,,,,,,,F,19,
4,5,65,6,6,2,['k'],['d'],N,N,None,Y,,,,,,,F,19,
4,6,66,5,5,2,['d'],['d'],Y,N,None,Y,,,,,,,F,19,
4,7,67,11,11,2,['k'],['d'],N,N,None,Y,,,,,,,F,19,
4,8,68,4,4,2,['d'],['d'],Y,Y,['space'],Y,,,,,,,F,19,
4,9,69,1,1,2,['k'],['d'],N,N,None,Y,,,,,,,F,19,
4,10,70,11,11,2,['k'],['k'],Y,Y,['space'],Y,,,,,,,F,19,
4,11,71,12,12,2,['k'],['d'],N,N,None,Y,,,,,,,F,19,
4,12,72,14,14,2,['d'],['d'],Y,N,None,Y,,,,,,,F,19,
4,13,73,7,7,2,['k'],['k'],Y,Y,['space'],Y,,,,,,,F,19,
4,14,74,1,1,2,['k'],['k'],Y,Y,None,N,,,,,,,F,19,
5,0,75,2,2,2,['d'],['d'],Y,Y,None,N,,,,,,,F,19,
5,1,76,4,4,2,['d'],['d'],Y,N,None,Y,,,,,,,F,19,
5,2,77,14,14,2,['d'],['d'],Y,Y,['space'],Y,,,,,,,F,19,
5,3,78,10,10,2,['k'],['k'],Y,Y,['space'],Y,,,,,,,F,19,
5,4,79,1,1,2,['k'],['k'],Y,Y,None,N,,,,,,,F,19,
5,5,80,9,9,2,['d'],['d'],Y,Y,['d'],N,,,,,,,F,19,
5,6,81,7,7,2,['k'],['d'],N,Y,['space'],Y,,,,,,,F,19,
5,7,82,11,11,2,['k'],['k'],Y,Y,['space'],Y,,,,,,,F,19,
5,8,83,10,10,2,['d'],['d'],Y,N,None,Y,,,,,,,F,19,
5,9,84,3,3,2,['k'],['k'],Y,Y,None,N,,,,,,,F,19,
5,10,85,4,4,2,['k'],['k'],Y,Y,['space'],Y,,,,,,,F,19,
5,11,86,7,7,2,['d'],['d'],Y,N,None,Y,,,,,,,F,19,
5,12,87,11,11,2,['k'],['k'],Y,Y,['space'],Y,,,,,,,F,19,
5,13,88,7,7,2,['k'],['k'],Y,N,None,Y,,,,,,,F,19,
5,14,89,1,1,2,['k'],['k'],Y,Y,['space'],Y,,,,,,,F,19,
6,0,90,9,9,2,['k'],['k'],Y,N,None,Y,,,,,,,F,19,
6,1,91,2,2,2,['k'],['k'],Y,N,None,Y,,,,,,,F,19,
6,2,92,14,14,2,['k'],['k'],Y,Y,['space'],Y,,,,,,,F,19,
6,3,93,5,5,2,['k'],['d'],N,N,None,Y,,,,,,,F,19,
6,4,94,9,9,2,['k'],['k'],Y,Y,['k'],N,,,,,,,F,19,
6,5,95,3,3,2,['d'],['d'],Y,N,None,Y,,,,,,,F,19,
6,6,96,14,14,2,['d'],['d'],Y,N,None,Y,,,,,,,F,19,
6,7,97,12,12,2,['d'],['d'],Y,N,None,Y,,,,,,,F,19,
6,8,98,13,13,2,['k'],['d'],N,N,None,Y,,,,,,,F,19,
6,9,99,4,4,2,['k'],['k'],Y,N,None,Y,34,38,25,,,,F,19,
6,10,100,6,6,3,['d'],['k'],N,,,,,,,,,,F,19,
6,11,101,7,7,3,['k'],['k'],Y,,,,,,,,,,F,19,
6,12,102,12,12,3,['d'],['k'],N,N,None,Y,,,,,,,F,19,
6,13,103,1,1,3,['k'],['d'],N,N,None,Y,,,,,,,F,19,
6,14,104,0,0,3,['k'],['d'],N,N,None,Y,,,,,,,F,19,
7,0,105,10,10,3,['d'],['k'],N,N,None,Y,,,,,,,F,19,
7,1,106,2,2,3,['k'],['d'],N,N,None,Y,,,,,,,F,19,
7,2,107,3,3,3,['k'],['k'],Y,N,None,Y,,,,,,,F,19,
7,3,108,12,12,3,['k'],['d'],N,Y,['space'],Y,,,,,,,F,19,
7,4,109,1,1,3,['d'],['d'],Y,N,None,Y,,,,,,,F,19,
7,5,110,6,6,3,['d'],['d'],Y,N,['space'],N,,,,,,,F,19,
7,6,111,8,8,3,['k'],['k'],Y,Y,None,N,,,,,,,F,19,
7,7,112,7,7,3,['d'],['d'],Y,N,None,Y,,,,,,,F,19,
7,8,113,4,4,3,['d'],['d'],Y,N,None,Y,,,,,,,F,19,
7,9,114,6,6,3,['k'],['k'],Y,Y,['space'],Y,,,,,,,F,19,
7,10,115,4,4,3,['d'],['k'],N,Y,['d'],N,,,,,,,F,19,
7,11,116,14,14,3,['k'],['d'],N,Y,['space'],Y,,,,,,,F,19,
7,12,117,13,13,3,['k'],['k'],Y,N,None,Y,,,,,,,F,19,
7,13,118,9,9,3,['d'],['k'],N,N,None,Y,,,,,,,F,19,
7,14,119,3,3,3,['d'],['d'],Y,N,None,Y,,,,,,,F,19,
8,0,120,8,8,3,['k'],['k'],Y,N,None,Y,,,,,,,F,19,
8,1,121,9,9,3,['k'],['k'],Y,N,['space'],N,,,,,,,F,19,
8,2,122,0,0,3,['d'],['k'],N,Y,None,N,,,,,,,F,19,
8,3,123,5,5,3,['k'],['k'],Y,N,None,Y,,,,,,,F,19,
8,4,124,2,2,3,['d'],['d'],Y,Y,None,N,,,,,,,F,19,
8,5,125,10,10,3,['k'],['k'],Y,N,None,Y,,,,,,,F,19,
8,6,126,13,13,3,['d'],['d'],Y,Y,None,N,,,,,,,F,19,
8,7,127,0,0,3,['d'],['k'],N,Y,['space'],Y,,,,,,,F,19,
8,8,128,7,7,3,['k'],['k'],Y,Y,['space'],Y,,,,,,,F,19,
8,9,129,2,2,3,['d'],['d'],Y,N,None,Y,,,,,,,F,19,
8,10,130,0,0,3,['d'],['k'],N,N,None,Y,,,,,,,F,19,
8,11,131,6,6,3,['d'],['d'],Y,N,None,Y,,,,,,,F,19,
8,12,132,7,7,3,['d'],['d'],Y,Y,['space'],Y,,,,,,,F,19,
8,13,133,11,11,3,['d'],['d'],Y,Y,['space'],Y,,,,,,,F,19,
8,14,134,10,10,3,['k'],['k'],Y,N,None,Y,,,,,,,F,19,
9,0,135,3,3,3,['k'],['k'],Y,Y,['space'],Y,,,,,,,F,19,
9,1,136,10,10,3,['k'],['k'],Y,N,None,Y,,,,,,,F,19,
9,2,137,9,9,3,['k'],['k'],Y,N,None,Y,,,,,,,F,19,
9,3,138,3,3,3,['k'],['d'],N,N,None,Y,,,,,,,F,19,
9,4,139,9,9,3,['k'],['k'],Y,N,None,Y,,,,,,,F,19,
9,5,140,1,1,3,['k'],['k'],Y,N,None,Y,,,,,,,F,19,
9,6,141,6,6,3,['k'],['d'],N,N,None,Y,,,,,,,F,19,
9,7,142,3,3,3,['k'],['k'],Y,Y,None,N,,,,,,,F,19,
9,8,143,0,0,3,['k'],['k'],Y,N,None,Y,,,,,,,F,19,
9,9,144,1,1,3,['d'],['d'],Y,N,None,Y,,,,,,,F,19,
9,10,145,13,13,3,['k'],['k'],Y,N,None,Y,,,,,,,F,19,
9,11,146,13,13,3,['k'],['d'],N,Y,['space'],Y,,,,,,,F,19,
9,12,147,8,8,3,['d'],['d'],Y,Y,['d'],N,,,,,,,F,19,
9,13,148,1,1,3,['d'],['d'],Y,Y,['space'],Y,,,,,,,F,19,
9,14,149,6,6,3,['k'],['d'],N,N,None,Y,33,39,17,,,,F,19,
10,0,150,1,1,4,['k'],['k'],Y,,,,,,,,,,F,19,
10,1,151,9,9,4,['k'],['k'],Y,,,,,,,,,,F,19,
10,2,152,11,11,4,['d'],['d'],Y,Y,None,N,,,,,,,F,19,
10,3,153,10,10,4,['k'],['k'],Y,Y,['space'],Y,,,,,,,F,19,
10,4,154,2,2,4,['d'],['d'],Y,Y,None,N,,,,,,,F,19,
10,5,155,13,13,4,['k'],['k'],Y,N,None,Y,,,,,,,F,19,
10,6,156,2,2,4,['k'],['k'],Y,Y,['space'],Y,,,,,,,F,19,
10,7,157,1,1,4,['k'],['k'],Y,N,['space'],N,,,,,,,F,19,
10,8,158,1,1,4,['d'],['d'],Y,Y,None,N,,,,,,,F,19,
10,9,159,2,2,4,['k'],['k'],Y,Y,None,N,,,,,,,F,19,
10,10,160,9,9,4,['k'],['k'],Y,N,None,Y,,,,,,,F,19,
10,11,161,8,8,4,['k'],['k'],Y,Y,['space'],Y,,,,,,,F,19,
10,12,162,10,10,4,['k'],['k'],Y,N,None,Y,,,,,,,F,19,
10,13,163,9,9,4,['k'],['d'],N,Y,['space'],Y,,,,,,,F,19,
10,14,164,7,7,4,['d'],['d'],Y,N,None,Y,,,,,,,F,19,
11,0,165,5,5,4,['k'],['d'],N,N,None,Y,,,,,,,F,19,
11,1,166,0,0,4,['k'],['k'],Y,Y,['space'],Y,,,,,,,F,19,
11,2,167,3,3,4,['d'],['d'],Y,Y,['d'],N,,,,,,,F,19,
11,3,168,4,4,4,['k'],['d'],N,Y,['space'],Y,,,,,,,F,19,
11,4,169,11,11,4,['k'],['d'],N,N,None,Y,,,,,,,F,19,
11,5,170,7,7,4,['d'],['d'],Y,Y,['space'],Y,,,,,,,F,19,
11,6,171,8,8,4,['d'],['d'],Y,Y,None,N,,,,,,,F,19,
11,7,172,11,11,4,['k'],['k'],Y,N,None,Y,,,,,,,F,19,
11,8,173,4,4,4,['k'],['k'],Y,Y,None,N,,,,,,,F,19,
11,9,174,13,13,4,['k'],['k'],Y,Y,['space'],Y,,,,,,,F,19,
11,10,175,6,6,4,['k'],['k'],Y,N,None,Y,,,,,,,F,19,
11,11,176,7,7,4,['k'],['k'],Y,Y,['space'],Y,,,,,,,F,19,
11,12,177,8,8,4,['k'],['k'],Y,N,None,Y,,,,,,,F,19,
11,13,178,14,14,4,['k'],['k'],Y,N,None,Y,,,,,,,F,19,
11,14,179,8,8,4,['k'],['d'],N,Y,['space'],Y,,,,,,,F,19,
12,0,180,5,5,4,['d'],['d'],Y,N,['space'],N,,,,,,,F,19,
12,1,181,3,3,4,['k'],['k'],Y,Y,['space'],Y,,,,,,,F,19,
12,2,182,5,5,4,['k'],['k'],Y,N,None,Y,,,,,,,F,19,
12,3,183,7,7,4,['d'],['d'],Y,Y,['space'],Y,,,,,,,F,19,
12,4,184,4,4,4,['k'],['k'],Y,Y,['space'],Y,,,,,,,F,19,
12,5,185,9,9,4,['d'],['d'],Y,N,None,Y,,,,,,,F,19,
12,6,186,8,8,4,['k'],['k'],Y,N,None,Y,,,,,,,F,19,
12,7,187,2,2,4,['k'],['k'],Y,Y,['space'],Y,,,,,,,F,19,
12,8,188,4,4,4,['k'],['d'],N,Y,None,N,,,,,,,F,19,
12,9,189,12,12,4,['d'],['d'],Y,Y,['space'],Y,,,,,,,F,19,
12,10,190,6,6,4,['k'],['k'],Y,Y,['space'],Y,,,,,,,F,19,
12,11,191,13,13,4,['d'],['d'],Y,N,None,Y,,,,,,,F,19,
12,12,192,3,3,4,['k'],['d'],N,N,None,Y,,,,,,,F,19,
12,13,193,0,0,4,['k'],['k'],Y,N,None,Y,,,,,,,F,19,
12,14,194,5,5,4,['k'],['k'],Y,N,None,Y,,,,,,,F,19,
13,0,195,10,10,4,['d'],['d'],Y,N,None,Y,,,,,,,F,19,
13,1,196,10,10,4,['d'],['d'],Y,Y,['space'],Y,,,,,,,F,19,
13,2,197,4,4,4,['d'],['d'],Y,N,None,Y,,,,,,,F,19,
13,3,198,4,4,4,['d'],['d'],Y,N,None,Y,,,,,,,F,19,
13,4,199,11,11,4,['d'],['d'],Y,N,None,Y,43,38,25,,,,F,19,
13,5,200,12,12,5,['k'],['k'],Y,,,,,,,,,,F,19,
13,6,201,6,6,5,['k'],['k'],Y,,,,,,,,,,F,19,
13,7,202,3,3,5,['d'],['d'],Y,Y,['space'],Y,,,,,,,F,19,
13,8,203,11,11,5,['k'],['k'],Y,N,None,Y,,,,,,,F,19,
13,9,204,0,0,5,['d'],['d'],Y,N,None,Y,,,,,,,F,19,
13,10,205,3,3,5,['k'],['k'],Y,N,None,Y,,,,,,,F,19,
13,11,206,4,4,5,['d'],['d'],Y,Y,None,N,,,,,,,F,19,
13,12,207,4,4,5,['d'],['d'],Y,Y,None,N,,,,,,,F,19,
13,13,208,14,14,5,['k'],['d'],N,N,None,Y,,,,,,,F,19,
13,14,209,10,10,5,['k'],['k'],Y,N,None,Y,,,,,,,F,19,
14,0,210,11,11,5,['d'],['k'],N,Y,None,N,,,,,,,F,19,
14,1,211,6,6,5,['k'],['k'],Y,N,None,Y,,,,,,,F,19,
14,2,212,5,5,5,['d'],['d'],Y,Y,['k'],N,,,,,,,F,19,
14,3,213,1,1,5,['k'],['k'],Y,Y,['space'],Y,,,,,,,F,19,
14,4,214,5,5,5,['d'],['k'],N,Y,None,N,,,,,,,F,19,
14,5,215,10,10,5,['k'],['k'],Y,N,['space'],N,,,,,,,F,19,
14,6,216,10,10,5,['k'],['k'],Y,N,None,Y,,,,,,,F,19,
14,7,217,10,10,5,['k'],['k'],Y,Y,['space'],Y,,,,,,,F,19,
14,8,218,0,0,5,['k'],['d'],N,N,None,Y,,,,,,,F,19,
14,9,219,13,13,5,['k'],['k'],Y,N,None,Y,,,,,,,F,19,
14,10,220,14,14,5,['k'],['k'],Y,N,None,Y,,,,,,,F,19,
14,11,221,7,7,5,['d'],['d'],Y,Y,None,N,,,,,,,F,19,
14,12,222,3,3,5,['k'],['k'],Y,N,None,Y,,,,,,,F,19,
14,13,223,9,9,5,['d'],['d'],Y,Y,['space'],Y,,,,,,,F,19,
14,14,224,12,12,5,['k'],['k'],Y,Y,['space'],Y,,,,,,,F,19,
15,0,225,6,6,5,['d'],['d'],Y,N,None,Y,,,,,,,F,19,
15,1,226,5,5,5,['d'],['d'],Y,N,['space'],N,,,,,,,F,19,
15,2,227,12,12,5,['d'],['d'],Y,Y,['k'],N,,,,,,,F,19,
15,3,228,13,13,5,['k'],['k'],Y,N,['d'],N,,,,,,,F,19,
15,4,229,8,8,5,['d'],['d'],Y,N,['space'],N,,,,,,,F,19,
15,5,230,2,2,5,['k'],['k'],Y,N,None,Y,,,,,,,F,19,
15,6,231,11,11,5,['d'],['d'],Y,Y,None,N,,,,,,,F,19,
15,7,232,3,3,5,['k'],['d'],N,Y,['space'],Y,,,,,,,F,19,
15,8,233,14,14,5,['d'],['d'],Y,Y,['d'],N,,,,,,,F,19,
15,9,234,10,10,5,['d'],['d'],Y,N,None,Y,,,,,,,F,19,
15,10,235,3,3,5,['k'],['d'],N,Y,['space'],Y,,,,,,,F,19,
15,11,236,4,4,5,['d'],['d'],Y,Y,['space'],Y,,,,,,,F,19,
15,12,237,6,6,5,['d'],['d'],Y,Y,['space'],Y,,,,,,,F,19,
15,13,238,6,6,5,['k'],['k'],Y,N,None,Y,,,,,,,F,19,
15,14,239,11,11,5,['d'],['d'],Y,N,None,Y,,,,,,,F,19,
16,0,240,8,8,5,['k'],['k'],Y,Y,['space'],Y,,,,,,,F,19,
16,1,241,8,8,5,['k'],['d'],N,Y,['space'],Y,,,,,,,F,19,
16,2,242,5,5,5,['d'],['d'],Y,N,['k'],N,,,,,,,F,19,
16,3,243,2,2,5,['k'],['k'],Y,N,None,Y,,,,,,,F,19,
16,4,244,10,10,5,['d'],['d'],Y,Y,None,N,,,,,,,F,19,
16,5,245,0,0,5,['k'],['k'],Y,N,None,Y,,,,,,,F,19,
16,6,246,6,6,5,['k'],['d'],N,N,None,Y,,,,,,,F,19,
16,7,247,3,3,5,['k'],['k'],Y,N,None,Y,,,,,,,F,19,
16,8,248,9,9,5,['d'],['d'],Y,N,None,Y,,,,,,,F,19,
16,9,249,5,5,5,['k'],['d'],N,Y,['space'],Y,41,33,22,,,,F,19,
16,10,250,12,12,6,['k'],['d'],N,,,,,,,,,,F,19,
16,11,251,1,1,6,['k'],['k'],Y,,,,,,,,,,F,19,
16,12,252,12,12,6,['d'],['d'],Y,N,None,Y,,,,,,,F,19,
16,13,253,4,4,6,['k'],['k'],Y,N,None,Y,,,,,,,F,19,
16,14,254,11,11,6,['d'],['d'],Y,N,['space'],N,,,,,,,F,19,
17,0,255,0,0,6,['d'],['d'],Y,Y,['space'],Y,,,,,,,F,19,
17,1,256,2,2,6,['k'],['k'],Y,Y,None,N,,,,,,,F,19,
17,2,257,14,14,6,['d'],['d'],Y,Y,['space'],Y,,,,,,,F,19,
17,3,258,13,13,6,['k'],['k'],Y,N,None,Y,,,,,,,F,19,
17,4,259,10,10,6,['d'],['d'],Y,Y,['space'],Y,,,,,,,F,19,
17,5,260,0,0,6,['k'],['k'],Y,Y,['space'],Y,,,,,,,F,19,
17,6,261,8,8,6,['d'],['d'],Y,Y,['space'],Y,,,,,,,F,19,
17,7,262,4,4,6,['k'],['k'],Y,Y,['space'],Y,,,,,,,F,19,
17,8,263,11,11,6,['k'],['k'],Y,Y,['space'],Y,,,,,,,F,19,
17,9,264,9,9,6,['k'],['k'],Y,Y,['space'],Y,,,,,,,F,19,
17,10,265,6,6,6,['d'],['d'],Y,Y,None,N,,,,,,,F,19,
17,11,266,2,2,6,['d'],['d'],Y,N,None,Y,,,,,,,F,19,
17,12,267,10,10,6,['k'],['k'],Y,Y,['k'],N,,,,,,,F,19,
17,13,268,3,3,6,['d'],['k'],N,Y,['space'],Y,,,,,,,F,19,
17,14,269,11,11,6,['d'],['d'],Y,Y,['space'],Y,,,,,,,F,19,
18,0,270,11,11,6,['k'],['d'],N,Y,['space'],Y,,,,,,,F,19,
18,1,271,11,11,6,['d'],['d'],Y,N,None,Y,,,,,,,F,19,
18,2,272,14,14,6,['k'],['d'],N,N,None,Y,,,,,,,F,19,
18,3,273,12,12,6,['d'],['k'],N,N,['space'],N,,,,,,,F,19,
18,4,274,7,7,6,['k'],['k'],Y,N,None,Y,,,,,,,F,19,
18,5,275,10,10,6,['d'],['d'],Y,Y,['space'],Y,,,,,,,F,19,
18,6,276,0,0,6,['d'],['d'],Y,Y,['space'],Y,,,,,,,F,19,
18,7,277,6,6,6,['k'],['d'],N,N,None,Y,,,,,,,F,19,
18,8,278,11,11,6,['k'],['d'],N,N,None,Y,,,,,,,F,19,
18,9,279,12,12,6,['k'],['k'],Y,Y,['space'],Y,,,,,,,F,19,
18,10,280,10,10,6,['d'],['d'],Y,N,None,Y,,,,,,,F,19,
18,11,281,5,5,6,['k'],['k'],Y,N,None,Y,,,,,,,F,19,
18,12,282,10,10,6,['d'],['k'],N,N,['space'],N,,,,,,,F,19,
18,13,283,8,8,6,['d'],['d'],Y,Y,['k'],N,,,,,,,F,19,
18,14,284,13,13,6,['d'],['k'],N,Y,['k'],N,,,,,,,F,19,
19,0,285,11,11,6,['k'],['k'],Y,N,['space'],N,,,,,,,F,19,
19,1,286,10,10,6,['k'],['k'],Y,N,None,Y,,,,,,,F,19,
19,2,287,1,1,6,['d'],['d'],Y,N,None,Y,,,,,,,F,19,
19,3,288,7,7,6,['d'],['k'],N,Y,['space'],Y,,,,,,,F,19,
19,4,289,0,0,6,['k'],['d'],N,N,None,Y,,,,,,,F,19,
19,5,290,0,0,6,['d'],['k'],N,Y,['space'],Y,,,,,,,F,19,
19,6,291,1,1,6,['k'],['k'],Y,Y,['space'],Y,,,,,,,F,19,
19,7,292,0,0,6,['k'],['k'],Y,Y,['space'],Y,,,,,,,F,19,
19,8,293,9,9,6,['d'],['d'],Y,N,None,Y,,,,,,,F,19,
19,9,294,9,9,6,['k'],['k'],Y,N,['space'],N,,,,,,,F,19,
19,10,295,1,1,6,['d'],['d'],Y,Y,['space'],Y,,,,,,,F,19,
19,11,296,2,2,6,['k'],['k'],Y,Y,None,N,,,,,,,F,19,
19,12,297,6,6,6,['k'],['d'],N,N,None,Y,,,,,,,F,19,
19,13,298,9,9,6,['k'],['k'],Y,N,None,Y,,,,,,,F,19,
19,14,299,6,6,6,['d'],['d'],Y,N,['space'],N,37,36,25,,,,F,19,
20,0,300,11,11,7,['k'],['d'],N,,,,,,,,,,F,19,
20,1,301,3,3,7,['d'],['d'],Y,,,,,,,,,,F,19,
20,2,302,6,6,7,['k'],['k'],Y,Y,['space'],Y,,,,,,,F,19,
20,3,303,14,14,7,['k'],['k'],Y,Y,['d'],N,,,,,,,F,19,
20,4,304,5,5,7,['k'],['d'],N,Y,['d'],N,,,,,,,F,19,
20,5,305,8,8,7,['k'],['k'],Y,Y,['space'],Y,,,,,,,F,19,
20,6,306,3,3,7,['k'],['k'],Y,N,['space'],N,,,,,,,F,19,
20,7,307,3,3,7,['d'],['d'],Y,Y,None,N,,,,,,,F,19,
20,8,308,14,14,7,['d'],['d'],Y,N,None,Y,,,,,,,F,19,
20,9,309,12,12,7,['k'],['k'],Y,Y,['space'],Y,,,,,,,F,19,
20,10,310,6,6,7,['k'],['d'],N,N,None,Y,,,,,,,F,19,
20,11,311,6,6,7,['k'],['k'],Y,Y,['space'],Y,,,,,,,F,19,
20,12,312,8,8,7,['k'],['d'],N,Y,['space'],Y,,,,,,,F,19,
20,13,313,13,13,7,['d'],['d'],Y,N,None,Y,,,,,,,F,19,
20,14,314,6,6,7,['k'],['k'],Y,N,None,Y,,,,,,,F,19,
21,0,315,12,12,7,['k'],['k'],Y,Y,['space'],Y,,,,,,,F,19,
21,1,316,6,6,7,['d'],['k'],N,N,None,Y,,,,,,,F,19,
21,2,317,2,2,7,['k'],['d'],N,N,None,Y,,,,,,,F,19,
21,3,318,7,7,7,['k'],['k'],Y,Y,['space'],Y,,,,,,,F,19,
21,4,319,8,8,7,['k'],['k'],Y,N,None,Y,,,,,,,F,19,
21,5,320,11,11,7,['k'],['k'],Y,Y,['space'],Y,,,,,,,F,19,
21,6,321,8,8,7,['k'],['k'],Y,Y,['space'],Y,,,,,,,F,19,
21,7,322,10,10,7,['k'],['d'],N,Y,['space'],Y,,,,,,,F,19,
21,8,323,7,7,7,['d'],['d'],Y,N,None,Y,,,,,,,F,19,
21,9,324,9,9,7,['k'],['d'],N,N,None,Y,,,,,,,F,19,
21,10,325,11,11,7,['d'],['d'],Y,N,None,Y,,,,,,,F,19,
21,11,326,10,10,7,['d'],['d'],Y,Y,['k'],N,,,,,,,F,19,
21,12,327,9,9,7,['k'],['k'],Y,Y,['space'],Y,,,,,,,F,19,
21,13,328,13,13,7,['k'],['k'],Y,N,['space'],N,,,,,,,F,19,
21,14,329,14,14,7,['d'],['k'],N,Y,None,N,,,,,,,F,19,
22,0,330,5,5,7,['k'],['d'],N,Y,['space'],Y,,,,,,,F,19,
22,1,331,11,11,7,['k'],['d'],N,Y,None,N,,,,,,,F,19,
22,2,332,7,7,7,['d'],['d'],Y,N,None,Y,,,,,,,F,19,
22,3,333,9,9,7,['k'],['d'],N,Y,['space'],Y,,,,,,,F,19,
22,4,334,13,13,7,['k'],['d'],N,Y,['space'],Y,,,,,,,F,19,
22,5,335,6,6,7,['k'],['k'],Y,Y,['space'],Y,,,,,,,F,19,
22,6,336,14,14,7,['d'],['k'],N,Y,['space'],Y,,,,,,,F,19,
22,7,337,8,8,7,['k'],['d'],N,N,['space'],N,,,,,,,F,19,
22,8,338,3,3,7,['d'],['d'],Y,N,None,Y,,,,,,,F,19,
22,9,339,2,2,7,['k'],['d'],N,Y,['space'],Y,,,,,,,F,19,
22,10,340,12,12,7,['d'],['k'],N,N,None,Y,,,,,,,F,19,
22,11,341,10,10,7,['k'],['d'],N,Y,None,N,,,,,,,F,19,
22,12,342,12,12,7,['d'],['d'],Y,N,None,Y,,,,,,,F,19,
22,13,343,10,10,7,['k'],['k'],Y,Y,['space'],Y,,,,,,,F,19,
22,14,344,9,9,7,['k'],['k'],Y,N,None,Y,,,,,,,F,19,
23,0,345,8,8,7,['k'],['d'],N,N,['space'],N,,,,,,,F,19,
23,1,346,4,4,7,['k'],['k'],Y,N,None,Y,,,,,,,F,19,
23,2,347,4,4,7,['k'],['k'],Y,N,None,Y,,,,,,,F,19,
23,3,348,8,8,7,['d'],['d'],Y,N,None,Y,,,,,,,F,19,
23,4,349,11,11,7,['k'],['d'],N,N,None,Y,30,37,25,,,,F,19,
23,5,350,12,12,8,['k'],['k'],Y,,,,,,,,,,F,19,
23,6,351,6,6,8,['d'],['d'],Y,,,,,,,,,,F,19,
23,7,352,9,9,8,['k'],['k'],Y,Y,['space'],Y,,,,,,,F,19,
23,8,353,3,3,8,['k'],['k'],Y,N,None,Y,,,,,,,F,19,
23,9,354,11,11,8,['d'],['k'],N,Y,['space'],Y,,,,,,,F,19,
23,10,355,8,8,8,['k'],['d'],N,N,None,Y,,,,,,,F,19,
23,11,356,1,1,8,['k'],['k'],Y,Y,['k'],N,,,,,,,F,19,
23,12,357,7,7,8,['k'],['k'],Y,Y,['k'],N,,,,,,,F,19,
23,13,358,11,11,8,['k'],['d'],N,Y,['space'],Y,,,,,,,F,19,
23,14,359,3,3,8,['k'],['d'],N,N,None,Y,,,,,,,F,19,
24,0,360,1,1,8,['d'],['d'],Y,Y,['space'],Y,,,,,,,F,19,
24,1,361,7,7,8,['k'],['d'],N,Y,['space'],Y,,,,,,,F,19,
24,2,362,0,0,8,['d'],['d'],Y,N,['space'],N,,,,,,,F,19,
24,3,363,12,12,8,['k'],['k'],Y,Y,['space'],Y,,,,,,,F,19,
24,4,364,4,4,8,['k'],['k'],Y,N,None,Y,,,,,,,F,19,
24,5,365,3,3,8,['d'],['d'],Y,Y,None,N,,,,,,,F,19,
24,6,366,6,6,8,['d'],['k'],N,N,None,Y,,,,,,,F,19,
24,7,367,9,9,8,['d'],['d'],Y,Y,['space'],Y,,,,,,,F,19,
24,8,368,11,11,8,['d'],['k'],N,Y,None,N,,,,,,,F,19,
24,9,369,0,0,8,['d'],['d'],Y,Y,None,N,,,,,,,F,19,
24,10,370,12,12,8,['d'],['d'],Y,Y,['space'],Y,,,,,,,F,19,
24,11,371,0,0,8,['d'],['d'],Y,N,None,Y,,,,,,,F,19,
24,12,372,0,0,8,['d'],['d'],Y,N,None,Y,,,,,,,F,19,
24,13,373,4,4,8,['d'],['d'],Y,Y,['space'],Y,,,,,,,F,19,
24,14,374,12,12,8,['k'],['k'],Y,N,None,Y,,,,,,,F,19,
25,0,375,5,5,8,['d'],['d'],Y,Y,['space'],Y,,,,,,,F,19,
25,1,376,7,7,8,['k'],['k'],Y,N,None,Y,,,,,,,F,19,
25,2,377,4,4,8,['d'],['d'],Y,Y,['space'],Y,,,,,,,F,19,
25,3,378,10,10,8,['d'],['d'],Y,Y,['space'],Y,,,,,,,F,19,
25,4,379,1,1,8,['k'],['k'],Y,Y,['space'],Y,,,,,,,F,19,
25,5,380,3,3,8,['k'],['k'],Y,Y,['space'],Y,,,,,,,F,19,
25,6,381,0,0,8,['d'],['d'],Y,N,None,Y,,,,,,,F,19,
25,7,382,13,13,8,['k'],['d'],N,N,None,Y,,,,,,,F,19,
25,8,383,9,9,8,['k'],['k'],Y,N,None,Y,,,,,,,F,19,
25,9,384,3,3,8,['k'],['k'],Y,Y,['space'],Y,,,,,,,F,19,
25,10,385,13,13,8,['d'],['k'],N,N,['space'],N,,,,,,,F,19,
25,11,386,7,7,8,['d'],['d'],Y,N,None,Y,,,,,,,F,19,
25,12,387,9,9,8,['d'],['d'],Y,Y,['space'],Y,,,,,,,F,19,
25,13,388,0,0,8,['d'],['d'],Y,N,None,Y,,,,,,,F,19,
25,14,389,5,5,8,['d'],['d'],Y,N,['space'],N,,,,,,,F,19,
26,0,390,3,3,8,['k'],['k'],Y,Y,['space'],Y,,,,,,,F,19,
26,1,391,9,9,8,['k'],['k'],Y,Y,['space'],Y,,,,,,,F,19,
26,2,392,11,11,8,['d'],['d'],Y,Y,['space'],Y,,,,,,,F,19,
26,3,393,13,13,8,['d'],['d'],Y,N,['space'],N,,,,,,,F,19,
26,4,394,2,2,8,['k'],['k'],Y,N,None,Y,,,,,,,F,19,
26,5,395,6,6,8,['k'],['k'],Y,N,None,Y,,,,,,,F,19,
26,6,396,13,13,8,['k'],['k'],Y,Y,['space'],Y,,,,,,,F,19,
26,7,397,13,13,8,['k'],['k'],Y,N,['space'],N,,,,,,,F,19,
26,8,398,3,3,8,['k'],['k'],Y,N,None,Y,,,,,,,F,19,
26,9,399,12,12,8,['k'],['d'],N,N,['space'],N,40,37,25,,,,F,19,
26,10,400,4,4,9,['k'],['k'],Y,,,,,,,,,,F,19,
26,11,401,12,12,9,['k'],['k'],Y,,,,,,,,,,F,19,
26,12,402,13,13,9,['d'],['d'],Y,N,None,Y,,,,,,,F,19,
26,13,403,5,5,9,['k'],['k'],Y,Y,['space'],Y,,,,,,,F,19,
26,14,404,4,4,9,['k'],['d'],N,Y,['space'],Y,,,,,,,F,19,
27,0,405,2,2,9,['d'],['d'],Y,N,None,Y,,,,,,,F,19,
27,1,406,3,3,9,['k'],['k'],Y,Y,['space'],Y,,,,,,,F,19,
27,2,407,12,12,9,['k'],['k'],Y,Y,['space'],Y,,,,,,,F,19,
27,3,408,10,10,9,['d'],['d'],Y,N,None,Y,,,,,,,F,19,
27,4,409,5,5,9,['k'],['k'],Y,Y,None,N,,,,,,,F,19,
27,5,410,13,13,9,['d'],['k'],N,N,None,Y,,,,,,,F,19,
27,6,411,13,13,9,['d'],['d'],Y,Y,['space'],Y,,,,,,,F,19,
27,7,412,5,5,9,['k'],['k'],Y,Y,None,N,,,,,,,F,19,
27,8,413,1,1,9,['d'],['k'],N,N,None,Y,,,,,,,F,19,
27,9,414,3,3,9,['k'],['d'],N,Y,['space'],Y,,,,,,,F,19,
27,10,415,4,4,9,['k'],['d'],N,N,None,Y,,,,,,,F,19,
27,11,416,14,14,9,['d'],['k'],N,Y,['d'],N,,,,,,,F,19,
27,12,417,5,5,9,['k'],['k'],Y,Y,['space'],Y,,,,,,,F,19,
27,13,418,13,13,9,['k'],['k'],Y,N,['d'],N,,,,,,,F,19,
27,14,419,12,12,9,['d'],['d'],Y,N,None,Y,,,,,,,F,19,
28,0,420,5,5,9,['d'],['d'],Y,Y,None,N,,,,,,,F,19,
28,1,421,13,13,9,['d'],['d'],Y,Y,None,N,,,,,,,F,19,
28,2,422,2,2,9,['d'],['k'],N,N,['space'],N,,,,,,,F,19,
28,3,423,4,4,9,['k'],['k'],Y,Y,['space'],Y,,,,,,,F,19,
28,4,424,13,13,9,['d'],['k'],N,Y,['space'],Y,,,,,,,F,19,
28,5,425,4,4,9,['d'],['k'],N,Y,['space'],Y,,,,,,,F,19,
28,6,426,3,3,9,['k'],['k'],Y,N,None,Y,,,,,,,F,19,
28,7,427,2,2,9,['k'],['d'],N,Y,None,N,,,,,,,F,19,
28,8,428,7,7,9,['k'],['d'],N,Y,['space'],Y,,,,,,,F,19,
28,9,429,0,0,9,['d'],['d'],Y,Y,['space'],Y,,,,,,,F,19,
28,10,430,0,0,9,['k'],['k'],Y,N,None,Y,,,,,,,F,19,
28,11,431,1,1,9,['d'],['d'],Y,N,None,Y,,,,,,,F,19,
28,12,432,1,1,9,['d'],['d'],Y,Y,['space'],Y,,,,,,,F,19,
28,13,433,7,7,9,['k'],['d'],N,N,None,Y,,,,,,,F,19,
28,14,434,14,14,9,['d'],['d'],Y,Y,['space'],Y,,,,,,,F,19,
29,0,435,0,0,9,['k'],['k'],Y,N,['k'],N,,,,,,,F,19,
29,1,436,3,3,9,['k'],['k'],Y,N,['space'],N,,,,,,,F,19,
29,2,437,14,14,9,['k'],['k'],Y,N,['lalt'],N,,,,,,,F,19,
29,3,438,11,11,9,['k'],['k'],Y,Y,['lalt'],N,,,,,,,F,19,
29,4,439,0,0,9,['k'],['d'],N,N,None,Y,,,,,,,F,19,
29,5,440,6,6,9,['k'],['k'],Y,N,None,Y,,,,,,,F,19,
29,6,441,0,0,9,['k'],['d'],N,Y,['lalt'],N,,,,,,,F,19,
29,7,442,9,9,9,['k'],['k'],Y,Y,['lalt'],N,,,,,,,F,19,
29,8,443,6,6,9,['k'],['d'],N,Y,['lalt'],N,,,,,,,F,19,
29,9,444,5,5,9,['k'],['d'],N,Y,['lalt'],N,,,,,,,F,19,
29,10,445,14,14,9,['d'],['d'],Y,N,['lalt'],N,,,,,,,F,19,
29,11,446,7,7,9,['k'],['k'],Y,N,['space'],N,,,,,,,F,19,
29,12,447,13,13,9,['k'],['k'],Y,N,['space'],N,,,,,,,F,19,
29,13,448,7,7,9,['d'],['d'],Y,N,None,Y,,,,,,,F,19,
29,14,449,4,4,9,['k'],['k'],Y,N,None,Y,34,29,25,,,,F,19,
30,0,450,5,5,10,['k'],['k'],Y,,,,,,,,,,F,19,
30,1,451,1,1,10,['d'],['d'],Y,,,,,,,,,,F,19,
30,2,452,13,13,10,['k'],['k'],Y,N,['space'],N,,,,,,,F,19,
30,3,453,7,7,10,['k'],['k'],Y,N,None,Y,,,,,,,F,19,
30,4,454,3,3,10,['k'],['k'],Y,Y,['space'],Y,,,,,,,F,19,
30,5,455,5,5,10,['d'],['d'],Y,Y,['space'],Y,,,,,,,F,19,
30,6,456,13,13,10,['k'],['d'],N,N,None,Y,,,,,,,F,19,
30,7,457,9,9,10,['k'],['d'],N,N,['space'],N,,,,,,,F,19,
30,8,458,1,1,10,['k'],['k'],Y,N,['d'],N,,,,,,,F,19,
30,9,459,0,0,10,['d'],['d'],Y,Y,['space'],Y,,,,,,,F,19,
30,10,460,2,2,10,['k'],['d'],N,N,['space'],N,,,,,,,F,19,
30,11,461,0,0,10,['d'],['d'],Y,Y,['space'],Y,,,,,,,F,19,
30,12,462,8,8,10,['k'],['d'],N,N,None,Y,,,,,,,F,19,
30,13,463,7,7,10,['d'],['d'],Y,Y,['space'],Y,,,,,,,F,19,
30,14,464,12,12,10,['d'],['k'],N,Y,['k'],N,,,,,,,F,19,
31,0,465,10,10,10,['d'],['k'],N,Y,['space'],Y,,,,,,,F,19,
31,1,466,14,14,10,['d'],['k'],N,N,['d'],N,,,,,,,F,19,
31,2,467,13,13,10,['k'],['d'],N,Y,['space'],Y,,,,,,,F,19,
31,3,468,14,14,10,['d'],['k'],N,N,['space'],N,,,,,,,F,19,
31,4,469,5,5,10,['k'],['d'],N,N,['k'],N,,,,,,,F,19,
31,5,470,4,4,10,['d'],['k'],N,N,None,Y,,,,,,,F,19,
31,6,471,10,10,10,['d'],['k'],N,Y,None,N,,,,,,,F,19,
31,7,472,7,7,10,['k'],['d'],N,Y,['space'],Y,,,,,,,F,19,
31,8,473,6,6,10,['d'],['k'],N,N,None,Y,,,,,,,F,19,
31,9,474,11,11,10,['d'],['d'],Y,Y,['space'],Y,,,,,,,F,19,
31,10,475,10,10,10,['d'],['d'],Y,Y,None,N,,,,,,,F,19,
31,11,476,12,12,10,['d'],['d'],Y,Y,['space'],Y,,,,,,,F,19,
31,12,477,7,7,10,['k'],['k'],Y,N,None,Y,,,,,,,F,19,
31,13,478,11,11,10,['d'],['d'],Y,Y,['space'],Y,,,,,,,F,19,
31,14,479,5,5,10,['k'],['k'],Y,Y,['space'],Y,,,,,,,F,19,
32,0,480,8,8,10,['d'],['d'],Y,Y,['space'],Y,,,,,,,F,19,
32,1,481,10,10,10,['d'],['k'],N,N,None,Y,,,,,,,F,19,
32,2,482,12,12,10,['d'],['d'],Y,Y,['k'],N,,,,,,,F,19,
32,3,483,8,8,10,['d'],['k'],N,Y,None,N,,,,,,,F,19,
32,4,484,4,4,10,['k'],['d'],N,N,None,Y,,,,,,,F,19,
32,5,485,12,12,10,['d'],['k'],N,Y,['space'],Y,,,,,,,F,19,
32,6,486,2,2,10,['k'],['k'],Y,Y,['space'],Y,,,,,,,F,19,
32,7,487,14,14,10,['k'],['k'],Y,N,None,Y,,,,,,,F,19,
32,8,488,10,10,10,['k'],['k'],Y,Y,['space'],Y,,,,,,,F,19,
32,9,489,8,8,10,['d'],['d'],Y,Y,['k'],N,,,,,,,F,19,
32,10,490,3,3,10,['d'],['d'],Y,Y,['space'],Y,,,,,,,F,19,
32,11,491,5,5,10,['k'],['k'],Y,Y,['space'],Y,,,,,,,F,19,
32,12,492,2,2,10,['d'],['d'],Y,Y,['space'],Y,,,,,,,F,19,
32,13,493,1,1,10,['k'],['k'],Y,N,None,Y,,,,,,,F,19,
32,14,494,9,9,10,['d'],['d'],Y,N,['space'],N,,,,,,,F,19,
33,0,495,2,2,10,['k'],['k'],Y,N,['space'],N,,,,,,,F,19,
33,1,496,5,5,10,['k'],['k'],Y,N,None,Y,,,,,,,F,19,
33,2,497,10,10,10,['d'],['k'],N,N,None,Y,,,,,,,F,19,
33,3,498,12,12,10,['k'],['d'],N,N,None,Y,,,,,,,F,19,
33,4,499,5,5,10,['k'],['k'],Y,N,['d'],N,30,32,25,,,,F,19,
33,5,500,0,0,11,['k'],['d'],Y,,,,,,,Y,Y,Y,F,19,
33,6,501,8,8,11,['d'],['d'],N,,,,,,,,Y,Y,F,19,
33,7,502,8,8,11,['d'],['k'],Y,N,['space'],N,,,,,Y,Y,F,19,
33,8,503,0,0,11,['d'],['k'],Y,N,['d'],N,,,,,Y,Y,F,19,
33,9,504,3,3,11,['d'],['d'],N,N,None,Y,,,,,Y,Y,F,19,
33,10,505,2,2,11,['k'],['d'],Y,N,['space'],N,,,,,Y,Y,F,19,
33,11,506,0,0,11,['d'],['k'],Y,Y,['space'],Y,,,,,Y,Y,F,19,
33,12,507,3,3,11,['d'],['k'],Y,Y,['space'],Y,,,,,Y,Y,F,19,
33,13,508,13,13,11,['k'],['d'],Y,Y,['space'],Y,,,,,Y,Y,F,19,
33,14,509,0,0,11,['d'],['d'],N,N,None,Y,,,,,Y,Y,F,19,
34,0,510,7,7,11,['d'],['k'],Y,N,['k'],N,,,,,Y,Y,F,19,
34,1,511,9,9,11,['k'],['d'],Y,Y,None,N,,,,,Y,Y,F,19,
34,2,512,11,11,11,['d'],['k'],Y,Y,None,N,,,,,Y,Y,F,19,
34,3,513,14,14,11,['k'],['k'],N,N,None,Y,,,,,Y,Y,F,19,
34,4,514,10,10,11,['d'],['d'],N,N,None,Y,,,,,Y,Y,F,19,
34,5,515,1,1,11,['d'],['k'],Y,N,None,Y,,,,,Y,Y,F,19,
34,6,516,3,3,11,['d'],['k'],Y,N,['space'],N,,,,,Y,Y,F,19,
34,7,517,1,1,11,['d'],['k'],Y,N,['space'],N,,,,,Y,Y,F,19,
34,8,518,10,10,11,['k'],['d'],Y,N,['space'],N,,,,,Y,Y,F,19,
34,9,519,9,9,11,['d'],['d'],N,N,None,Y,,,,,Y,Y,F,19,
34,10,520,14,14,11,['d'],['k'],Y,N,None,Y,,,,,Y,Y,F,19,
34,11,521,2,2,11,['d'],['k'],Y,Y,None,N,,,,,Y,Y,F,19,
34,12,522,12,12,11,['d'],['k'],Y,Y,None,N,,,,,Y,Y,F,19,
34,13,523,9,9,11,None,,Timed out,N,None,Y,,,,,Y,Y,F,19,
34,14,524,11,11,11,['d'],['k'],Y,N,['space'],N,,,,,Y,Y,F,19,
35,0,525,6,6,11,['d'],['k'],Y,Y,['space'],Y,,,,,Y,Y,F,19,
35,1,526,2,2,11,['d'],['k'],Y,N,None,Y,,,,,Y,Y,F,19,
35,2,527,0,0,11,['d'],['d'],N,N,None,Y,,,,,Y,Y,F,19,
35,3,528,7,7,11,['k'],['d'],Y,Y,['space'],Y,,,,,Y,Y,F,19,
35,4,529,6,6,11,['k'],['d'],Y,N,['space'],N,,,,,Y,Y,F,19,
35,5,530,2,2,11,None,,Timed out,N,['d'],N,,,,,Y,Y,F,19,
35,6,531,13,13,11,['k'],['k'],N,N,['k'],N,,,,,Y,Y,F,19,
35,7,532,10,10,11,['d'],['k'],Y,N,['space'],N,,,,,Y,Y,F,19,
35,8,533,10,10,11,['d'],['d'],N,Y,['space'],Y,,,,,Y,Y,F,19,
35,9,534,8,8,11,['k'],['d'],Y,N,['space'],N,,,,,Y,Y,F,19,
35,10,535,9,9,11,['k'],['d'],Y,N,None,Y,,,,,Y,Y,F,19,
35,11,536,4,4,11,['k'],['d'],Y,N,None,Y,,,,,Y,Y,F,19,
35,12,537,1,1,11,['k'],['d'],Y,Y,['space'],Y,,,,,Y,Y,F,19,
35,13,538,13,13,11,['k'],['d'],Y,Y,['space'],Y,,,,,Y,Y,F,19,
35,14,539,4,4,11,['d'],['k'],Y,N,['space'],N,,,,,Y,Y,F,19,
36,0,540,7,7,11,['d'],['k'],Y,Y,['space'],Y,,,,,Y,Y,F,19,
36,1,541,8,8,11,['k'],['d'],Y,Y,['space'],Y,,,,,Y,Y,F,19,
36,2,542,7,7,11,['k'],['d'],Y,Y,['space'],Y,,,,,Y,Y,F,19,
36,3,543,12,12,11,['k'],['d'],Y,Y,['space'],Y,,,,,Y,Y,F,19,
36,4,544,2,2,11,['d'],['k'],Y,Y,['space'],Y,,,,,Y,Y,F,19,
36,5,545,14,14,11,['d'],['k'],Y,Y,['space'],Y,,,,,Y,Y,F,19,
36,6,546,2,2,11,['d'],['k'],Y,N,None,Y,,,,,Y,Y,F,19,
36,7,547,8,8,11,['k'],['k'],N,Y,['space'],Y,,,,,Y,Y,F,19,
36,8,548,6,6,11,['d'],['k'],Y,Y,['space'],Y,,,,,Y,Y,F,19,
36,9,549,9,9,11,['d'],['k'],Y,Y,['space'],Y,38,30,21,,Y,Y,F,19,
36,10,550,4,4,12,['d'],['k'],Y,,,,,,,,Y,Y,F,19,
36,11,551,4,4,12,['k'],['d'],Y,,,,,,,,Y,Y,F,19,
36,12,552,12,12,12,['k'],['d'],Y,N,None,Y,,,,,Y,Y,F,19,
36,13,553,1,1,12,['d'],['k'],Y,Y,['space'],Y,,,,,Y,Y,F,19,
36,14,554,5,5,12,['k'],['d'],Y,N,None,Y,,,,,Y,Y,F,19,
37,0,555,5,5,12,['k'],['d'],Y,Y,['space'],Y,,,,,Y,Y,F,19,
37,1,556,0,0,12,['d'],['k'],Y,Y,['space'],Y,,,,,Y,Y,F,19,
37,2,557,10,10,12,['d'],['k'],Y,Y,['k'],N,,,,,Y,Y,F,19,
37,3,558,14,14,12,['k'],['k'],N,N,['k'],N,,,,,Y,Y,F,19,
37,4,559,9,9,12,['k'],['k'],N,Y,['space'],Y,,,,,Y,Y,F,19,
37,5,560,14,14,12,['k'],['d'],Y,N,['k'],N,,,,,Y,Y,F,19,
37,6,561,2,2,12,['d'],['d'],N,N,None,Y,,,,,Y,Y,F,19,
37,7,562,2,2,12,['d'],['k'],Y,Y,['space'],Y,,,,,Y,Y,F,19,
37,8,563,12,12,12,['k'],['d'],Y,N,['space'],N,,,,,Y,Y,F,19,
37,9,564,1,1,12,['d'],['k'],Y,N,None,Y,,,,,Y,Y,F,19,
37,10,565,14,14,12,['d'],['k'],Y,Y,None,N,,,,,Y,Y,F,19,
37,11,566,4,4,12,['k'],['k'],N,N,None,Y,,,,,Y,Y,F,19,
37,12,567,9,9,12,['k'],['d'],Y,Y,['space'],Y,,,,,Y,Y,F,19,
37,13,568,0,0,12,['d'],['k'],Y,N,['space'],N,,,,,Y,Y,F,19,
37,14,569,13,13,12,['d'],['d'],N,N,None,Y,,,,,Y,Y,F,19,
38,0,570,13,13,12,['k'],['d'],Y,Y,['space'],Y,,,,,Y,Y,F,19,
38,1,571,3,3,12,['k'],['d'],Y,Y,['space'],Y,,,,,Y,Y,F,19,
38,2,572,1,1,12,['d'],['k'],Y,N,None,Y,,,,,Y,Y,F,19,
38,3,573,2,2,12,['k'],['d'],Y,N,None,Y,,,,,Y,Y,F,19,
38,4,574,12,12,12,['k'],['d'],Y,N,['space'],N,,,,,Y,Y,F,19,
38,5,575,14,14,12,['d'],['k'],Y,Y,['space'],Y,,,,,Y,Y,F,19,
38,6,576,8,8,12,['k'],['d'],Y,Y,['space'],Y,,,,,Y,Y,F,19,
38,7,577,1,1,12,['k'],['d'],Y,Y,['space'],Y,,,,,Y,Y,F,19,
38,8,578,8,8,12,['d'],['k'],Y,N,['space'],N,,,,,Y,Y,F,19,
38,9,579,2,2,12,['k'],['k'],N,Y,['space'],Y,,,,,Y,Y,F,19,
38,10,580,2,2,12,['d'],['k'],Y,Y,['space'],Y,,,,,Y,Y,F,19,
38,11,581,7,7,12,['d'],['k'],Y,Y,['space'],Y,,,,,Y,Y,F,19,
38,12,582,11,11,12,['k'],['d'],Y,N,None,Y,,,,,Y,Y,F,19,
38,13,583,12,12,12,['d'],['k'],Y,N,['space'],N,,,,,Y,Y,F,19,
38,14,584,3,3,12,['k'],['d'],Y,N,['d'],N,,,,,Y,Y,F,19,
39,0,585,8,8,12,['k'],['d'],Y,Y,['space'],Y,,,,,Y,Y,F,19,
39,1,586,2,2,12,['k'],['k'],N,N,['space'],N,,,,,Y,Y,F,19,
39,2,587,8,8,12,['k'],['k'],N,Y,['space'],Y,,,,,Y,Y,F,19,
39,3,588,4,4,12,['k'],['k'],N,N,['d'],N,,,,,Y,Y,F,19,
39,4,589,7,7,12,['d'],['k'],Y,N,['space'],N,,,,,Y,Y,F,19,
39,5,590,8,8,12,['k'],['d'],Y,Y,None,N,,,,,Y,Y,F,19,
39,6,591,1,1,12,['d'],['k'],Y,Y,['space'],Y,,,,,Y,Y,F,19,
39,7,592,0,0,12,['k'],['d'],Y,N,None,Y,,,,,Y,Y,F,19,
39,8,593,5,5,12,['k'],['d'],Y,Y,['space'],Y,,,,,Y,Y,F,19,
39,9,594,14,14,12,['k'],['d'],Y,Y,['space'],Y,,,,,Y,Y,F,19,
39,10,595,9,9,12,['k'],['d'],Y,N,None,Y,,,,,Y,Y,F,19,
39,11,596,2,2,12,['d'],['k'],Y,Y,['space'],Y,,,,,Y,Y,F,19,
39,12,597,1,1,12,['d'],['k'],Y,Y,['space'],Y,,,,,Y,Y,F,19,
39,13,598,11,11,12,['k'],['d'],Y,Y,['space'],Y,,,,,Y,Y,F,19,
39,14,599,5,5,12,['k'],['k'],N,N,None,Y,40,34,25,,Y,Y,F,19,
