.thisRepN,.thisTrialN,.thisN,.thisIndex,.thisTrial,Block Number,Key pressed,Correct?,Category,Int Match?,Int Response,Int Correct?,Line Accuracy,Interference Accuracy,Matching Interferences,New instruction shown?,Buttons switched?,Fast?,gender,age,
0,0,0,6,6,1,None,Timed out,,,,,,,,,,,f,22,
0,1,1,9,9,1,['d'],Y,['d'],,,,,,,,,,f,22,
0,2,2,9,9,1,['k'],N,['d'],N,None,Y,,,,,,,f,22,
0,3,3,4,4,1,['k'],Y,['k'],N,None,Y,,,,,,,f,22,
0,4,4,0,0,1,['d'],Y,['d'],N,None,Y,,,,,,,f,22,
0,5,5,5,5,1,['k'],Y,['k'],N,None,Y,,,,,,,f,22,
0,6,6,7,7,1,['k'],N,['d'],Y,['space'],Y,,,,,,,f,22,
0,7,7,8,8,1,['k'],N,['d'],N,None,Y,,,,,,,f,22,
0,8,8,6,6,1,['d'],Y,['d'],Y,['space'],Y,,,,,,,f,22,
0,9,9,6,6,1,['d'],Y,['d'],Y,None,N,,,,,,,f,22,
0,10,10,2,2,1,['d'],Y,['d'],Y,None,N,,,,,,,f,22,
1,0,11,10,10,1,['k'],Y,['k'],N,None,Y,,,,,,,f,22,
1,1,12,2,2,1,['d'],Y,['d'],Y,None,N,,,,,,,f,22,
1,2,13,1,1,1,['d'],Y,['d'],N,None,Y,,,,,,,f,22,
1,3,14,3,3,1,None,Timed out,,Y,None,N,,,,,,,f,22,
1,4,15,8,8,1,['k'],N,['d'],N,None,Y,,,,,,,f,22,
1,5,16,5,5,1,['d'],Y,['d'],N,None,Y,,,,,,,f,22,
1,6,17,2,2,1,['k'],Y,['k'],N,None,Y,,,,,,,f,22,
1,7,18,6,6,1,['d'],N,['k'],Y,None,N,,,,,,,f,22,
1,8,19,9,9,1,['k'],Y,['k'],N,None,Y,,,,,,,f,22,
1,9,20,3,3,1,['k'],N,['d'],N,None,Y,,,,,,,f,22,
1,10,21,8,8,1,['d'],Y,['d'],Y,None,N,,,,,,,f,22,
2,0,22,0,0,1,['d'],N,['k'],Y,['space'],Y,,,,,,,f,22,
2,1,23,2,2,1,['d'],N,['k'],N,['space'],N,,,,,,,f,22,
2,2,24,1,1,1,['k'],Y,['k'],Y,None,N,,,,,,,f,22,
2,3,25,5,5,1,['d'],N,['k'],Y,['space'],Y,,,,,,,f,22,
2,4,26,9,9,1,['k'],N,['d'],N,['space'],N,,,,,,,f,22,
2,5,27,9,9,1,['k'],Y,['k'],N,None,Y,,,,,,,f,22,
2,6,28,9,9,1,['k'],Y,['k'],N,None,Y,,,,,,,f,22,
2,7,29,5,5,1,['d'],Y,['d'],N,None,Y,,,,,,,f,22,
2,8,30,10,10,1,['d'],N,['k'],Y,None,N,,,,,,,f,22,
2,9,31,6,6,1,['k'],Y,['k'],N,None,Y,,,,,,,f,22,
2,10,32,5,5,1,['d'],Y,['d'],N,None,Y,,,,,,,f,22,
3,0,33,2,2,1,['k'],Y,['k'],Y,None,N,,,,,,,f,22,
3,1,34,2,2,1,['d'],N,['k'],N,None,Y,,,,,,,f,22,
3,2,35,2,2,1,['k'],N,['d'],Y,['space'],Y,,,,,,,f,22,
3,3,36,6,6,1,['d'],N,['k'],N,None,Y,,,,,,,f,22,
3,4,37,9,9,1,['d'],N,['k'],N,None,Y,,,,,,,f,22,
3,5,38,1,1,1,['k'],Y,['k'],Y,None,N,,,,,,,f,22,
3,6,39,9,9,1,['d'],Y,['d'],Y,None,N,,,,,,,f,22,
3,7,40,0,0,1,['k'],Y,['k'],Y,None,N,,,,,,,f,22,
3,8,41,6,6,1,['k'],N,['d'],N,None,Y,,,,,,,f,22,
3,9,42,4,4,1,['d'],N,['k'],Y,None,N,,,,,,,f,22,
3,10,43,3,3,1,['k'],Y,['k'],Y,None,N,,,,,,,f,22,
4,0,44,8,8,1,['d'],N,['k'],N,None,Y,,,,,,,f,22,
4,1,45,8,8,1,['k'],Y,['k'],Y,None,N,,,,,,,f,22,
4,2,46,2,2,1,None,Timed out,,Y,None,N,,,,,,,f,22,
4,3,47,0,0,1,['d'],N,['k'],N,None,Y,,,,,,,f,22,
4,4,48,10,10,1,['k'],Y,['k'],N,None,Y,,,,,,,f,22,
4,5,49,4,4,1,['d'],N,['k'],N,None,Y,27,30,21,,,,f,22,
4,6,50,8,8,2,['k'],Y,['k'],,,,,,,,,,f,22,
4,7,51,0,0,2,['d'],Y,['d'],,,,,,,,,,f,22,
4,8,52,9,9,2,['k'],N,['d'],Y,['space'],Y,,,,,,,f,22,
4,9,53,9,9,2,['d'],Y,['d'],Y,['space'],Y,,,,,,,f,22,
4,10,54,0,0,2,['k'],N,['d'],Y,['space'],Y,,,,,,,f,22,
5,0,55,10,10,2,['k'],N,['d'],Y,['space'],Y,,,,,,,f,22,
5,1,56,2,2,2,['d'],N,['k'],Y,None,N,,,,,,,f,22,
5,2,57,10,10,2,['k'],Y,['k'],Y,['space'],Y,,,,,,,f,22,
5,3,58,1,1,2,['d'],N,['k'],Y,None,N,,,,,,,f,22,
5,4,59,3,3,2,['k'],N,['d'],N,None,Y,,,,,,,f,22,
5,5,60,10,10,2,['d'],Y,['d'],N,None,Y,,,,,,,f,22,
5,6,61,3,3,2,['k'],Y,['k'],N,None,Y,,,,,,,f,22,
5,7,62,1,1,2,['d'],Y,['d'],N,None,Y,,,,,,,f,22,
5,8,63,1,1,2,['k'],N,['d'],N,None,Y,,,,,,,f,22,
5,9,64,7,7,2,['d'],Y,['d'],Y,['space'],Y,,,,,,,f,22,
5,10,65,0,0,2,['k'],Y,['k'],Y,None,N,,,,,,,f,22,
6,0,66,8,8,2,['d'],Y,['d'],N,None,Y,,,,,,,f,22,
6,1,67,5,5,2,['k'],Y,['k'],Y,None,N,,,,,,,f,22,
6,2,68,7,7,2,['d'],Y,['d'],N,None,Y,,,,,,,f,22,
6,3,69,9,9,2,['k'],N,['d'],N,None,Y,,,,,,,f,22,
6,4,70,7,7,2,['k'],Y,['k'],N,None,Y,,,,,,,f,22,
6,5,71,1,1,2,['d'],N,['k'],N,None,Y,,,,,,,f,22,
6,6,72,10,10,2,['k'],N,['d'],Y,None,N,,,,,,,f,22,
6,7,73,10,10,2,['d'],N,['k'],Y,None,N,,,,,,,f,22,
6,8,74,9,9,2,['k'],N,['d'],Y,['space'],Y,,,,,,,f,22,
6,9,75,0,0,2,['d'],Y,['d'],Y,None,N,,,,,,,f,22,
6,10,76,9,9,2,['d'],Y,['d'],Y,['space'],Y,,,,,,,f,22,
7,0,77,4,4,2,['k'],Y,['k'],N,None,Y,,,,,,,f,22,
7,1,78,6,6,2,['k'],Y,['k'],Y,['space'],Y,,,,,,,f,22,
7,2,79,3,3,2,['d'],Y,['d'],Y,['space'],Y,,,,,,,f,22,
7,3,80,9,9,2,['k'],Y,['k'],N,None,Y,,,,,,,f,22,
7,4,81,6,6,2,['d'],Y,['d'],N,None,Y,,,,,,,f,22,
7,5,82,8,8,2,['k'],N,['d'],N,None,Y,,,,,,,f,22,
7,6,83,2,2,2,['k'],N,['d'],Y,['space'],Y,,,,,,,f,22,
7,7,84,9,9,2,['d'],Y,['d'],N,None,Y,,,,,,,f,22,
7,8,85,8,8,2,['k'],N,['d'],N,None,Y,,,,,,,f,22,
7,9,86,4,4,2,['k'],Y,['k'],Y,['space'],Y,,,,,,,f,22,
7,10,87,4,4,2,['k'],Y,['k'],Y,['space'],Y,,,,,,,f,22,
8,0,88,3,3,2,['d'],N,['k'],Y,['space'],Y,,,,,,,f,22,
8,1,89,2,2,2,['d'],Y,['d'],Y,None,N,,,,,,,f,22,
8,2,90,0,0,2,['d'],Y,['d'],N,None,Y,,,,,,,f,22,
8,3,91,3,3,2,['d'],N,['k'],N,None,Y,,,,,,,f,22,
8,4,92,6,6,2,['k'],N,['d'],N,None,Y,,,,,,,f,22,
8,5,93,8,8,2,['k'],N,['d'],Y,None,N,,,,,,,f,22,
8,6,94,9,9,2,['d'],N,['k'],Y,None,N,,,,,,,f,22,
8,7,95,7,7,2,['k'],Y,['k'],N,None,Y,,,,,,,f,22,
8,8,96,9,9,2,['d'],N,['k'],Y,['space'],Y,,,,,,,f,22,
8,9,97,6,6,2,['k'],Y,['k'],N,None,Y,,,,,,,f,22,
8,10,98,3,3,2,['d'],Y,['d'],N,None,Y,,,,,,,f,22,
9,0,99,5,5,2,['k'],Y,['k'],N,None,Y,29,38,25,,,,f,22,
9,1,100,6,6,3,['d'],Y,['d'],,,,,,,,,,f,22,
9,2,101,4,4,3,['d'],Y,['d'],,,,,,,,,,f,22,
9,3,102,7,7,3,['d'],Y,['d'],N,None,Y,,,,,,,f,22,
9,4,103,7,7,3,['k'],Y,['k'],Y,['space'],Y,,,,,,,f,22,
9,5,104,7,7,3,None,Timed out,,Y,None,N,,,,,,,f,22,
9,6,105,7,7,3,['d'],N,['k'],Y,None,N,,,,,,,f,22,
9,7,106,5,5,3,['k'],Y,['k'],Y,None,N,,,,,,,f,22,
9,8,107,10,10,3,['d'],Y,['d'],Y,['space'],Y,,,,,,,f,22,
9,9,108,8,8,3,['k'],Y,['k'],N,None,Y,,,,,,,f,22,
9,10,109,4,4,3,['d'],Y,['d'],N,None,Y,,,,,,,f,22,
10,0,110,2,2,3,['d'],N,['k'],N,None,Y,,,,,,,f,22,
10,1,111,4,4,3,['k'],Y,['k'],Y,None,N,,,,,,,f,22,
10,2,112,3,3,3,['d'],Y,['d'],Y,['space'],Y,,,,,,,f,22,
10,3,113,9,9,3,None,Timed out,,Y,None,N,,,,,,,f,22,
10,4,114,7,7,3,['d'],Y,['d'],N,None,Y,,,,,,,f,22,
10,5,115,6,6,3,['d'],N,['k'],N,None,Y,,,,,,,f,22,
10,6,116,4,4,3,['k'],N,['d'],N,None,Y,,,,,,,f,22,
10,7,117,5,5,3,['k'],Y,['k'],Y,['space'],Y,,,,,,,f,22,
10,8,118,6,6,3,['d'],Y,['d'],Y,['space'],Y,,,,,,,f,22,
10,9,119,6,6,3,['k'],Y,['k'],Y,None,N,,,,,,,f,22,
10,10,120,1,1,3,['d'],N,['k'],Y,['space'],Y,,,,,,,f,22,
11,0,121,3,3,3,['k'],Y,['k'],Y,None,N,,,,,,,f,22,
11,1,122,9,9,3,['d'],Y,['d'],N,None,Y,,,,,,,f,22,
11,2,123,6,6,3,['d'],Y,['d'],N,None,Y,,,,,,,f,22,
11,3,124,5,5,3,['k'],N,['d'],Y,['space'],Y,,,,,,,f,22,
11,4,125,1,1,3,['d'],Y,['d'],Y,['space'],Y,,,,,,,f,22,
11,5,126,0,0,3,['d'],Y,['d'],N,None,Y,,,,,,,f,22,
11,6,127,5,5,3,['k'],Y,['k'],N,None,Y,,,,,,,f,22,
11,7,128,4,4,3,['k'],Y,['k'],N,None,Y,,,,,,,f,22,
11,8,129,0,0,3,['k'],Y,['k'],N,None,Y,,,,,,,f,22,
11,9,130,3,3,3,['k'],Y,['k'],N,None,Y,,,,,,,f,22,
11,10,131,0,0,3,['d'],Y,['d'],N,None,Y,,,,,,,f,22,
12,0,132,6,6,3,['d'],Y,['d'],N,None,Y,,,,,,,f,22,
12,1,133,4,4,3,['d'],Y,['d'],N,None,Y,,,,,,,f,22,
12,2,134,6,6,3,['k'],Y,['k'],N,None,Y,,,,,,,f,22,
12,3,135,4,4,3,['d'],N,['k'],N,None,Y,,,,,,,f,22,
12,4,136,10,10,3,['d'],Y,['d'],N,None,Y,,,,,,,f,22,
12,5,137,10,10,3,['k'],Y,['k'],N,None,Y,,,,,,,f,22,
12,6,138,7,7,3,['k'],Y,['k'],Y,['space'],Y,,,,,,,f,22,
12,7,139,5,5,3,['k'],Y,['k'],N,None,Y,,,,,,,f,22,
12,8,140,3,3,3,['k'],Y,['k'],Y,['space'],Y,,,,,,,f,22,
12,9,141,4,4,3,['d'],Y,['d'],Y,['space'],Y,,,,,,,f,22,
12,10,142,5,5,3,['d'],Y,['d'],N,None,Y,,,,,,,f,22,
13,0,143,3,3,3,['k'],Y,['k'],Y,None,N,,,,,,,f,22,
13,1,144,9,9,3,['d'],Y,['d'],N,None,Y,,,,,,,f,22,
13,2,145,10,10,3,['k'],Y,['k'],N,None,Y,,,,,,,f,22,
13,3,146,1,1,3,['d'],Y,['d'],N,None,Y,,,,,,,f,22,
13,4,147,6,6,3,['d'],Y,['d'],N,None,Y,,,,,,,f,22,
13,5,148,2,2,3,['d'],N,['k'],Y,['space'],Y,,,,,,,f,22,
13,6,149,8,8,3,['k'],Y,['k'],Y,None,N,40,39,21,,,,f,22,
13,7,150,10,10,4,['k'],Y,['k'],,,,,,,,,,f,22,
13,8,151,7,7,4,['k'],Y,['k'],,,,,,,,,,f,22,
13,9,152,8,8,4,['k'],Y,['k'],N,None,Y,,,,,,,f,22,
13,10,153,8,8,4,['k'],N,['d'],N,None,Y,,,,,,,f,22,
14,0,154,9,9,4,['d'],N,['k'],Y,None,N,,,,,,,f,22,
14,1,155,7,7,4,['k'],Y,['k'],N,None,Y,,,,,,,f,22,
14,2,156,5,5,4,['k'],N,['d'],Y,['space'],Y,,,,,,,f,22,
14,3,157,1,1,4,['d'],N,['k'],Y,None,N,,,,,,,f,22,
14,4,158,9,9,4,['d'],Y,['d'],Y,None,N,,,,,,,f,22,
14,5,159,10,10,4,['k'],Y,['k'],Y,None,N,,,,,,,f,22,
14,6,160,10,10,4,['k'],Y,['k'],Y,None,N,,,,,,,f,22,
14,7,161,3,3,4,['k'],Y,['k'],N,None,Y,,,,,,,f,22,
14,8,162,2,2,4,['k'],Y,['k'],N,None,Y,,,,,,,f,22,
14,9,163,1,1,4,['k'],Y,['k'],N,None,Y,,,,,,,f,22,
14,10,164,8,8,4,['k'],Y,['k'],Y,['space'],Y,,,,,,,f,22,
15,0,165,4,4,4,['d'],Y,['d'],N,None,Y,,,,,,,f,22,
15,1,166,0,0,4,['k'],N,['d'],Y,['space'],Y,,,,,,,f,22,
15,2,167,10,10,4,['k'],Y,['k'],Y,None,N,,,,,,,f,22,
15,3,168,5,5,4,['k'],Y,['k'],N,None,Y,,,,,,,f,22,
15,4,169,1,1,4,['d'],Y,['d'],N,None,Y,,,,,,,f,22,
15,5,170,10,10,4,['k'],Y,['k'],N,None,Y,,,,,,,f,22,
15,6,171,9,9,4,['d'],Y,['d'],N,None,Y,,,,,,,f,22,
15,7,172,4,4,4,['d'],Y,['d'],N,None,Y,,,,,,,f,22,
15,8,173,0,0,4,['d'],Y,['d'],N,None,Y,,,,,,,f,22,
15,9,174,6,6,4,['k'],Y,['k'],Y,['space'],Y,,,,,,,f,22,
15,10,175,1,1,4,['d'],N,['k'],N,None,Y,,,,,,,f,22,
16,0,176,9,9,4,['d'],Y,['d'],Y,['space'],Y,,,,,,,f,22,
16,1,177,9,9,4,['k'],Y,['k'],N,None,Y,,,,,,,f,22,
16,2,178,8,8,4,['k'],N,['d'],N,None,Y,,,,,,,f,22,
16,3,179,8,8,4,['k'],Y,['k'],N,None,Y,,,,,,,f,22,
16,4,180,3,3,4,['k'],N,['d'],N,None,Y,,,,,,,f,22,
16,5,181,0,0,4,['k'],Y,['k'],Y,None,N,,,,,,,f,22,
16,6,182,2,2,4,['d'],Y,['d'],Y,None,N,,,,,,,f,22,
16,7,183,8,8,4,['k'],Y,['k'],Y,['space'],Y,,,,,,,f,22,
16,8,184,1,1,4,['d'],Y,['d'],Y,['space'],Y,,,,,,,f,22,
16,9,185,10,10,4,['k'],Y,['k'],Y,['space'],Y,,,,,,,f,22,
16,10,186,3,3,4,['d'],Y,['d'],Y,['space'],Y,,,,,,,f,22,
17,0,187,3,3,4,['d'],Y,['d'],N,None,Y,,,,,,,f,22,
17,1,188,2,2,4,['k'],Y,['k'],Y,['space'],Y,,,,,,,f,22,
17,2,189,8,8,4,['d'],Y,['d'],Y,['space'],Y,,,,,,,f,22,
17,3,190,7,7,4,['k'],Y,['k'],N,None,Y,,,,,,,f,22,
17,4,191,3,3,4,['d'],Y,['d'],N,None,Y,,,,,,,f,22,
17,5,192,7,7,4,['k'],Y,['k'],N,None,Y,,,,,,,f,22,
17,6,193,5,5,4,['k'],Y,['k'],Y,None,N,,,,,,,f,22,
17,7,194,8,8,4,['d'],Y,['d'],N,None,Y,,,,,,,f,22,
17,8,195,6,6,4,['d'],N,['k'],Y,['space'],Y,,,,,,,f,22,
17,9,196,7,7,4,['k'],Y,['k'],Y,['space'],Y,,,,,,,f,22,
17,10,197,7,7,4,['k'],Y,['k'],N,None,Y,,,,,,,f,22,
18,0,198,3,3,4,['k'],Y,['k'],N,None,Y,,,,,,,f,22,
18,1,199,7,7,4,['d'],Y,['d'],N,None,Y,41,39,22,,,,f,22,
18,2,200,0,0,5,['d'],Y,['d'],,,,,,,,,,f,22,
18,3,201,4,4,5,['k'],Y,['k'],,,,,,,,,,f,22,
18,4,202,3,3,5,['d'],Y,['d'],N,None,Y,,,,,,,f,22,
18,5,203,4,4,5,['k'],Y,['k'],Y,['space'],Y,,,,,,,f,22,
18,6,204,0,0,5,['d'],Y,['d'],Y,None,N,,,,,,,f,22,
18,7,205,4,4,5,None,Timed out,,Y,None,N,,,,,,,f,22,
18,8,206,8,8,5,['d'],Y,['d'],N,None,Y,,,,,,,f,22,
18,9,207,3,3,5,['d'],Y,['d'],N,['space'],N,,,,,,,f,22,
18,10,208,0,0,5,['k'],Y,['k'],Y,['space'],Y,,,,,,,f,22,
19,0,209,8,8,5,['k'],Y,['k'],N,None,Y,,,,,,,f,22,
19,1,210,0,0,5,['k'],Y,['k'],Y,None,N,,,,,,,f,22,
19,2,211,8,8,5,['k'],N,['d'],N,None,Y,,,,,,,f,22,
19,3,212,4,4,5,['k'],N,['d'],Y,['space'],Y,,,,,,,f,22,
19,4,213,0,0,5,['d'],Y,['d'],Y,None,N,,,,,,,f,22,
19,5,214,5,5,5,['k'],Y,['k'],N,None,Y,,,,,,,f,22,
19,6,215,7,7,5,['d'],Y,['d'],Y,['space'],Y,,,,,,,f,22,
19,7,216,1,1,5,['k'],Y,['k'],Y,None,N,,,,,,,f,22,
19,8,217,2,2,5,['k'],Y,['k'],N,None,Y,,,,,,,f,22,
19,9,218,10,10,5,['k'],Y,['k'],N,None,Y,,,,,,,f,22,
19,10,219,0,0,5,['d'],Y,['d'],Y,None,N,,,,,,,f,22,
20,0,220,9,9,5,['k'],Y,['k'],N,None,Y,,,,,,,f,22,
20,1,221,7,7,5,['k'],Y,['k'],N,None,Y,,,,,,,f,22,
20,2,222,0,0,5,['k'],Y,['k'],Y,['space'],Y,,,,,,,f,22,
20,3,223,1,1,5,['k'],Y,['k'],Y,None,N,,,,,,,f,22,
20,4,224,1,1,5,['k'],Y,['k'],N,['k'],N,,,,,,,f,22,
20,5,225,1,1,5,['k'],Y,['k'],Y,['space'],Y,,,,,,,f,22,
20,6,226,7,7,5,['d'],Y,['d'],N,None,Y,,,,,,,f,22,
20,7,227,7,7,5,['k'],Y,['k'],N,None,Y,,,,,,,f,22,
20,8,228,0,0,5,['d'],Y,['d'],N,None,Y,,,,,,,f,22,
20,9,229,2,2,5,['k'],N,['d'],N,None,Y,,,,,,,f,22,
20,10,230,5,5,5,['k'],Y,['k'],Y,None,N,,,,,,,f,22,
21,0,231,3,3,5,['d'],Y,['d'],Y,['space'],Y,,,,,,,f,22,
21,1,232,4,4,5,['d'],Y,['d'],N,None,Y,,,,,,,f,22,
21,2,233,0,0,5,['k'],Y,['k'],N,None,Y,,,,,,,f,22,
21,3,234,3,3,5,['k'],Y,['k'],Y,['space'],Y,,,,,,,f,22,
21,4,235,9,9,5,['d'],Y,['d'],N,None,Y,,,,,,,f,22,
21,5,236,5,5,5,['k'],Y,['k'],Y,['space'],Y,,,,,,,f,22,
21,6,237,4,4,5,['d'],Y,['d'],Y,None,N,,,,,,,f,22,
21,7,238,9,9,5,['d'],Y,['d'],Y,['space'],Y,,,,,,,f,22,
21,8,239,9,9,5,['d'],N,['k'],N,None,Y,,,,,,,f,22,
21,9,240,0,0,5,['k'],Y,['k'],N,None,Y,,,,,,,f,22,
21,10,241,8,8,5,['d'],Y,['d'],N,None,Y,,,,,,,f,22,
22,0,242,5,5,5,['k'],Y,['k'],N,None,Y,,,,,,,f,22,
22,1,243,2,2,5,['k'],Y,['k'],N,None,Y,,,,,,,f,22,
22,2,244,7,7,5,['d'],Y,['d'],N,None,Y,,,,,,,f,22,
22,3,245,6,6,5,['k'],Y,['k'],N,None,Y,,,,,,,f,22,
22,4,246,2,2,5,['d'],Y,['d'],N,None,Y,,,,,,,f,22,
22,5,247,5,5,5,['k'],Y,['k'],Y,None,N,,,,,,,f,22,
22,6,248,1,1,5,['k'],Y,['k'],N,None,Y,,,,,,,f,22,
22,7,249,4,4,5,['k'],Y,['k'],N,['k'],N,45,35,20,,,,f,22,
22,8,250,10,10,6,['k'],N,['d'],,,,,,,,,,f,22,
22,9,251,3,3,6,['k'],Y,['k'],,,,,,,,,,f,22,
22,10,252,5,5,6,['k'],Y,['k'],Y,['space'],Y,,,,,,,f,22,
23,0,253,4,4,6,['k'],N,['d'],Y,None,N,,,,,,,f,22,
23,1,254,1,1,6,['k'],N,['d'],N,None,Y,,,,,,,f,22,
23,2,255,8,8,6,['k'],Y,['k'],N,['k'],N,,,,,,,f,22,
23,3,256,10,10,6,['k'],Y,['k'],N,None,Y,,,,,,,f,22,
23,4,257,6,6,6,['d'],N,['k'],Y,['space'],Y,,,,,,,f,22,
23,5,258,9,9,6,['k'],N,['d'],N,None,Y,,,,,,,f,22,
23,6,259,2,2,6,['k'],Y,['k'],N,None,Y,,,,,,,f,22,
23,7,260,4,4,6,['d'],Y,['d'],N,None,Y,,,,,,,f,22,
23,8,261,1,1,6,['k'],Y,['k'],Y,None,N,,,,,,,f,22,
23,9,262,8,8,6,['d'],Y,['d'],Y,['space'],Y,,,,,,,f,22,
23,10,263,3,3,6,['d'],Y,['d'],N,['k'],N,,,,,,,f,22,
24,0,264,8,8,6,['d'],N,['k'],Y,['space'],Y,,,,,,,f,22,
24,1,265,3,3,6,['k'],Y,['k'],Y,['space'],Y,,,,,,,f,22,
24,2,266,9,9,6,['d'],Y,['d'],Y,['space'],Y,,,,,,,f,22,
24,3,267,1,1,6,['k'],N,['d'],Y,['space'],Y,,,,,,,f,22,
24,4,268,6,6,6,['k'],Y,['k'],N,None,Y,,,,,,,f,22,
24,5,269,8,8,6,['k'],Y,['k'],Y,None,N,,,,,,,f,22,
24,6,270,4,4,6,['d'],Y,['d'],N,None,Y,,,,,,,f,22,
24,7,271,0,0,6,['k'],Y,['k'],Y,None,N,,,,,,,f,22,
24,8,272,7,7,6,['d'],Y,['d'],N,None,Y,,,,,,,f,22,
24,9,273,6,6,6,['k'],Y,['k'],N,None,Y,,,,,,,f,22,
24,10,274,9,9,6,['k'],N,['d'],N,None,Y,,,,,,,f,22,
25,0,275,5,5,6,['d'],Y,['d'],N,None,Y,,,,,,,f,22,
25,1,276,5,5,6,['d'],Y,['d'],N,None,Y,,,,,,,f,22,
25,2,277,2,2,6,['k'],Y,['k'],N,None,Y,,,,,,,f,22,
25,3,278,5,5,6,['k'],Y,['k'],Y,None,N,,,,,,,f,22,
25,4,279,8,8,6,['k'],Y,['k'],N,None,Y,,,,,,,f,22,
25,5,280,0,0,6,['d'],Y,['d'],Y,['space'],Y,,,,,,,f,22,
25,6,281,10,10,6,['d'],N,['k'],Y,['space'],Y,,,,,,,f,22,
25,7,282,2,2,6,['d'],Y,['d'],N,None,Y,,,,,,,f,22,
25,8,283,7,7,6,['k'],Y,['k'],Y,['space'],Y,,,,,,,f,22,
25,9,284,9,9,6,['k'],N,['d'],Y,None,N,,,,,,,f,22,
25,10,285,10,10,6,['k'],Y,['k'],N,None,Y,,,,,,,f,22,
26,0,286,7,7,6,['k'],N,['d'],Y,['space'],Y,,,,,,,f,22,
26,1,287,2,2,6,['k'],Y,['k'],Y,None,N,,,,,,,f,22,
26,2,288,8,8,6,['d'],Y,['d'],Y,None,N,,,,,,,f,22,
26,3,289,8,8,6,['k'],Y,['k'],N,None,Y,,,,,,,f,22,
26,4,290,10,10,6,['k'],Y,['k'],N,None,Y,,,,,,,f,22,
26,5,291,4,4,6,['d'],Y,['d'],Y,None,N,,,,,,,f,22,
26,6,292,2,2,6,['d'],Y,['d'],Y,None,N,,,,,,,f,22,
26,7,293,4,4,6,['d'],Y,['d'],Y,None,N,,,,,,,f,22,
26,8,294,5,5,6,['d'],N,['k'],N,None,Y,,,,,,,f,22,
26,9,295,2,2,6,['d'],Y,['d'],Y,None,N,,,,,,,f,22,
26,10,296,6,6,6,['k'],Y,['k'],N,None,Y,,,,,,,f,22,
27,0,297,10,10,6,['k'],N,['d'],N,None,Y,,,,,,,f,22,
27,1,298,2,2,6,['k'],Y,['k'],N,None,Y,,,,,,,f,22,
27,2,299,6,6,6,['d'],Y,['d'],Y,['space'],Y,37,34,24,,,,f,22,
27,3,300,3,3,7,['k'],Y,['k'],,,,,,,,,,f,22,
27,4,301,4,4,7,['d'],Y,['d'],,,,,,,,,,f,22,
27,5,302,5,5,7,['k'],Y,['k'],N,None,Y,,,,,,,f,22,
27,6,303,7,7,7,['k'],Y,['k'],N,None,Y,,,,,,,f,22,
27,7,304,1,1,7,['k'],Y,['k'],Y,None,N,,,,,,,f,22,
27,8,305,4,4,7,['d'],Y,['d'],N,None,Y,,,,,,,f,22,
27,9,306,10,10,7,['d'],Y,['d'],Y,None,N,,,,,,,f,22,
27,10,307,6,6,7,['k'],Y,['k'],N,['k'],N,,,,,,,f,22,
28,0,308,8,8,7,['d'],Y,['d'],Y,['space'],Y,,,,,,,f,22,
28,1,309,5,5,7,['k'],Y,['k'],Y,None,N,,,,,,,f,22,
28,2,310,5,5,7,['k'],Y,['k'],N,None,Y,,,,,,,f,22,
28,3,311,7,7,7,['k'],N,['d'],N,None,Y,,,,,,,f,22,
28,4,312,7,7,7,['d'],Y,['d'],N,None,Y,,,,,,,f,22,
28,5,313,9,9,7,['k'],Y,['k'],Y,['space'],Y,,,,,,,f,22,
28,6,314,3,3,7,['k'],Y,['k'],Y,None,N,,,,,,,f,22,
28,7,315,1,1,7,['k'],Y,['k'],Y,None,N,,,,,,,f,22,
28,8,316,9,9,7,['d'],Y,['d'],Y,['space'],Y,,,,,,,f,22,
28,9,317,8,8,7,['d'],Y,['d'],N,None,Y,,,,,,,f,22,
28,10,318,5,5,7,['d'],Y,['d'],N,None,Y,,,,,,,f,22,
29,0,319,3,3,7,['d'],Y,['d'],N,None,Y,,,,,,,f,22,
29,1,320,2,2,7,['k'],Y,['k'],Y,None,N,,,,,,,f,22,
29,2,321,1,1,7,['k'],Y,['k'],N,None,Y,,,,,,,f,22,
29,3,322,10,10,7,['d'],Y,['d'],N,None,Y,,,,,,,f,22,
29,4,323,7,7,7,['k'],Y,['k'],N,None,Y,,,,,,,f,22,
29,5,324,4,4,7,['k'],N,['d'],N,None,Y,,,,,,,f,22,
29,6,325,7,7,7,['k'],Y,['k'],Y,['space'],Y,,,,,,,f,22,
29,7,326,10,10,7,['d'],Y,['d'],Y,None,N,,,,,,,f,22,
29,8,327,0,0,7,['k'],Y,['k'],Y,['space'],Y,,,,,,,f,22,
29,9,328,1,1,7,['k'],N,['d'],N,None,Y,,,,,,,f,22,
29,10,329,6,6,7,['k'],Y,['k'],Y,None,N,,,,,,,f,22,
30,0,330,9,9,7,['k'],N,['d'],Y,['space'],Y,,,,,,,f,22,
30,1,331,5,5,7,['d'],Y,['d'],Y,None,N,,,,,,,f,22,
30,2,332,10,10,7,['k'],Y,['k'],Y,None,N,,,,,,,f,22,
30,3,333,4,4,7,['d'],Y,['d'],Y,['k'],N,,,,,,,f,22,
30,4,334,6,6,7,['k'],Y,['k'],Y,None,N,,,,,,,f,22,
30,5,335,4,4,7,['d'],Y,['d'],N,None,Y,,,,,,,f,22,
30,6,336,6,6,7,['k'],Y,['k'],N,None,Y,,,,,,,f,22,
30,7,337,2,2,7,['d'],Y,['d'],Y,None,N,,,,,,,f,22,
30,8,338,6,6,7,['k'],Y,['k'],Y,['space'],Y,,,,,,,f,22,
30,9,339,7,7,7,['d'],Y,['d'],N,None,Y,,,,,,,f,22,
30,10,340,2,2,7,['k'],Y,['k'],N,None,Y,,,,,,,f,22,
31,0,341,5,5,7,['d'],Y,['d'],N,None,Y,,,,,,,f,22,
31,1,342,8,8,7,['k'],Y,['k'],Y,None,N,,,,,,,f,22,
31,2,343,10,10,7,['d'],Y,['d'],Y,['space'],Y,,,,,,,f,22,
31,3,344,10,10,7,['d'],Y,['d'],N,None,Y,,,,,,,f,22,
31,4,345,7,7,7,['k'],N,['d'],Y,None,N,,,,,,,f,22,
31,5,346,8,8,7,['k'],Y,['k'],Y,None,N,,,,,,,f,22,
31,6,347,7,7,7,['k'],Y,['k'],Y,['space'],Y,,,,,,,f,22,
31,7,348,8,8,7,['k'],N,['d'],N,None,Y,,,,,,,f,22,
31,8,349,9,9,7,['k'],Y,['k'],N,None,Y,44,31,25,,,,f,22,
31,9,350,9,9,8,['k'],Y,['k'],,,,,,,,,,f,22,
31,10,351,8,8,8,['k'],Y,['k'],,,,,,,,,,f,22,
32,0,352,10,10,8,['k'],Y,['k'],Y,['space'],Y,,,,,,,f,22,
32,1,353,2,2,8,['d'],Y,['d'],Y,['space'],Y,,,,,,,f,22,
32,2,354,7,7,8,['k'],Y,['k'],N,None,Y,,,,,,,f,22,
32,3,355,9,9,8,['d'],Y,['d'],N,None,Y,,,,,,,f,22,
32,4,356,2,2,8,['d'],Y,['d'],N,None,Y,,,,,,,f,22,
32,5,357,6,6,8,['d'],Y,['d'],Y,None,N,,,,,,,f,22,
32,6,358,10,10,8,['d'],Y,['d'],N,None,Y,,,,,,,f,22,
32,7,359,5,5,8,['k'],N,['d'],N,None,Y,,,,,,,f,22,
32,8,360,9,9,8,['d'],Y,['d'],N,None,Y,,,,,,,f,22,
32,9,361,8,8,8,['k'],Y,['k'],Y,None,N,,,,,,,f,22,
32,10,362,8,8,8,['d'],Y,['d'],N,None,Y,,,,,,,f,22,
33,0,363,1,1,8,['k'],N,['d'],N,None,Y,,,,,,,f,22,
33,1,364,1,1,8,['d'],Y,['d'],Y,None,N,,,,,,,f,22,
33,2,365,0,0,8,['d'],Y,['d'],N,None,Y,,,,,,,f,22,
33,3,366,4,4,8,['d'],Y,['d'],N,None,Y,,,,,,,f,22,
33,4,367,3,3,8,['d'],Y,['d'],N,None,Y,,,,,,,f,22,
33,5,368,5,5,8,['k'],Y,['k'],N,None,Y,,,,,,,f,22,
33,6,369,4,4,8,['d'],Y,['d'],Y,['space'],Y,,,,,,,f,22,
33,7,370,3,3,8,['d'],N,['k'],N,None,Y,,,,,,,f,22,
33,8,371,7,7,8,['k'],Y,['k'],Y,['space'],Y,,,,,,,f,22,
33,9,372,7,7,8,['k'],Y,['k'],N,None,Y,,,,,,,f,22,
33,10,373,2,2,8,['k'],Y,['k'],Y,['space'],Y,,,,,,,f,22,
34,0,374,6,6,8,['k'],Y,['k'],Y,['space'],Y,,,,,,,f,22,
34,1,375,0,0,8,['k'],N,['d'],N,None,Y,,,,,,,f,22,
34,2,376,5,5,8,['k'],Y,['k'],N,None,Y,,,,,,,f,22,
34,3,377,3,3,8,['k'],N,['d'],N,None,Y,,,,,,,f,22,
34,4,378,5,5,8,['d'],Y,['d'],Y,['space'],Y,,,,,,,f,22,
34,5,379,5,5,8,['d'],Y,['d'],N,None,Y,,,,,,,f,22,
34,6,380,5,5,8,['k'],Y,['k'],Y,None,N,,,,,,,f,22,
34,7,381,10,10,8,['d'],Y,['d'],Y,['space'],Y,,,,,,,f,22,
34,8,382,0,0,8,['k'],Y,['k'],N,None,Y,,,,,,,f,22,
34,9,383,1,1,8,['k'],Y,['k'],Y,None,N,,,,,,,f,22,
34,10,384,0,0,8,['d'],Y,['d'],Y,['space'],Y,,,,,,,f,22,
35,0,385,6,6,8,['d'],Y,['d'],N,None,Y,,,,,,,f,22,
35,1,386,4,4,8,['k'],Y,['k'],Y,None,N,,,,,,,f,22,
35,2,387,0,0,8,['d'],N,['k'],N,None,Y,,,,,,,f,22,
35,3,388,8,8,8,['d'],Y,['d'],N,None,Y,,,,,,,f,22,
35,4,389,3,3,8,['d'],Y,['d'],N,None,Y,,,,,,,f,22,
35,5,390,2,2,8,['d'],N,['k'],Y,None,N,,,,,,,f,22,
35,6,391,4,4,8,['k'],N,['d'],N,None,Y,,,,,,,f,22,
35,7,392,2,2,8,['d'],Y,['d'],Y,None,N,,,,,,,f,22,
35,8,393,5,5,8,['k'],Y,['k'],Y,None,N,,,,,,,f,22,
35,9,394,9,9,8,['d'],Y,['d'],N,None,Y,,,,,,,f,22,
35,10,395,3,3,8,['d'],Y,['d'],N,None,Y,,,,,,,f,22,
36,0,396,3,3,8,['k'],Y,['k'],N,None,Y,,,,,,,f,22,
36,1,397,6,6,8,['d'],Y,['d'],Y,None,N,,,,,,,f,22,
36,2,398,3,3,8,['k'],N,['d'],Y,['space'],Y,,,,,,,f,22,
36,3,399,1,1,8,['k'],Y,['k'],Y,['space'],Y,41,38,21,,,,f,22,
36,4,400,1,1,9,['d'],Y,['d'],,,,,,,,,,f,22,
36,5,401,7,7,9,['k'],Y,['k'],,,,,,,,,,f,22,
36,6,402,0,0,9,['d'],Y,['d'],Y,None,N,,,,,,,f,22,
36,7,403,4,4,9,['d'],Y,['d'],Y,['space'],Y,,,,,,,f,22,
36,8,404,6,6,9,['k'],Y,['k'],N,None,Y,,,,,,,f,22,
36,9,405,1,1,9,['d'],Y,['d'],Y,None,N,,,,,,,f,22,
36,10,406,3,3,9,['k'],N,['d'],Y,None,N,,,,,,,f,22,
37,0,407,3,3,9,['k'],Y,['k'],N,None,Y,,,,,,,f,22,
37,1,408,2,2,9,['k'],Y,['k'],Y,None,N,,,,,,,f,22,
37,2,409,7,7,9,['d'],Y,['d'],Y,['space'],Y,,,,,,,f,22,
37,3,410,10,10,9,['k'],N,['d'],N,None,Y,,,,,,,f,22,
37,4,411,4,4,9,['d'],Y,['d'],Y,None,N,,,,,,,f,22,
37,5,412,0,0,9,['d'],Y,['d'],Y,None,N,,,,,,,f,22,
37,6,413,1,1,9,['k'],Y,['k'],N,None,Y,,,,,,,f,22,
37,7,414,0,0,9,['d'],Y,['d'],Y,None,N,,,,,,,f,22,
37,8,415,9,9,9,['d'],Y,['d'],N,None,Y,,,,,,,f,22,
37,9,416,10,10,9,['d'],Y,['d'],N,None,Y,,,,,,,f,22,
37,10,417,5,5,9,['k'],Y,['k'],N,None,Y,,,,,,,f,22,
38,0,418,9,9,9,['k'],Y,['k'],N,None,Y,,,,,,,f,22,
38,1,419,6,6,9,['d'],N,['k'],Y,['space'],Y,,,,,,,f,22,
38,2,420,0,0,9,['d'],Y,['d'],Y,None,N,,,,,,,f,22,
38,3,421,5,5,9,['k'],Y,['k'],N,None,Y,,,,,,,f,22,
38,4,422,6,6,9,['k'],Y,['k'],N,None,Y,,,,,,,f,22,
38,5,423,9,9,9,['d'],Y,['d'],N,None,Y,,,,,,,f,22,
38,6,424,0,0,9,['k'],Y,['k'],N,None,Y,,,,,,,f,22,
38,7,425,4,4,9,['d'],Y,['d'],N,None,Y,,,,,,,f,22,
38,8,426,5,5,9,['k'],N,['d'],N,None,Y,,,,,,,f,22,
38,9,427,1,1,9,['k'],N,['d'],N,None,Y,,,,,,,f,22,
38,10,428,0,0,9,['k'],Y,['k'],N,None,Y,,,,,,,f,22,
39,0,429,9,9,9,['k'],Y,['k'],Y,None,N,,,,,,,f,22,
39,1,430,6,6,9,['k'],Y,['k'],Y,['space'],Y,,,,,,,f,22,
39,2,431,10,10,9,['k'],Y,['k'],Y,['space'],Y,,,,,,,f,22,
39,3,432,2,2,9,['k'],Y,['k'],Y,['space'],Y,,,,,,,f,22,
39,4,433,8,8,9,['d'],Y,['d'],Y,['space'],Y,,,,,,,f,22,
39,5,434,10,10,9,['d'],Y,['d'],Y,None,N,,,,,,,f,22,
39,6,435,5,5,9,['d'],Y,['d'],Y,None,N,,,,,,,f,22,
39,7,436,8,8,9,['k'],Y,['k'],Y,['d'],N,,,,,,,f,22,
39,8,437,7,7,9,['d'],Y,['d'],N,None,Y,,,,,,,f,22,
39,9,438,10,10,9,['d'],Y,['d'],Y,None,N,,,,,,,f,22,
39,10,439,0,0,9,['k'],Y,['k'],Y,None,N,,,,,,,f,22,
40,0,440,1,1,9,['d'],Y,['d'],N,None,Y,,,,,,,f,22,
40,1,441,3,3,9,['k'],Y,['k'],N,None,Y,,,,,,,f,22,
40,2,442,1,1,9,['k'],Y,['k'],Y,None,N,,,,,,,f,22,
40,3,443,8,8,9,['d'],Y,['d'],N,None,Y,,,,,,,f,22,
40,4,444,2,2,9,['k'],Y,['k'],Y,['space'],Y,,,,,,,f,22,
40,5,445,0,0,9,['d'],Y,['d'],Y,None,N,,,,,,,f,22,
40,6,446,1,1,9,['k'],N,['d'],N,None,Y,,,,,,,f,22,
40,7,447,4,4,9,['d'],Y,['d'],Y,None,N,,,,,,,f,22,
40,8,448,5,5,9,['k'],Y,['k'],N,None,Y,,,,,,,f,22,
40,9,449,2,2,9,['d'],Y,['d'],N,None,Y,44,31,25,,,,f,22,
40,10,450,7,7,10,['k'],Y,['k'],,,,,,,,,,f,22,
41,0,451,2,2,10,['k'],Y,['k'],,,,,,,,,,f,22,
41,1,452,0,0,10,['d'],Y,['d'],Y,None,N,,,,,,,f,22,
41,2,453,0,0,10,['k'],N,['d'],N,None,Y,,,,,,,f,22,
41,3,454,9,9,10,['k'],Y,['k'],N,None,Y,,,,,,,f,22,
41,4,455,1,1,10,['k'],Y,['k'],Y,None,N,,,,,,,f,22,
41,5,456,2,2,10,['k'],N,['d'],Y,None,N,,,,,,,f,22,
41,6,457,0,0,10,['d'],Y,['d'],Y,None,N,,,,,,,f,22,
41,7,458,8,8,10,['d'],N,['k'],N,None,Y,,,,,,,f,22,
41,8,459,3,3,10,['k'],N,['d'],Y,['space'],Y,,,,,,,f,22,
41,9,460,2,2,10,['k'],Y,['k'],Y,None,N,,,,,,,f,22,
41,10,461,2,2,10,['d'],N,['k'],Y,None,N,,,,,,,f,22,
42,0,462,2,2,10,['k'],N,['d'],Y,None,N,,,,,,,f,22,
42,1,463,8,8,10,['k'],Y,['k'],N,None,Y,,,,,,,f,22,
42,2,464,4,4,10,['k'],Y,['k'],N,None,Y,,,,,,,f,22,
42,3,465,8,8,10,['d'],Y,['d'],N,None,Y,,,,,,,f,22,
42,4,466,0,0,10,['k'],Y,['k'],Y,None,N,,,,,,,f,22,
42,5,467,8,8,10,['k'],Y,['k'],Y,['space'],Y,,,,,,,f,22,
42,6,468,2,2,10,['k'],Y,['k'],Y,['space'],Y,,,,,,,f,22,
42,7,469,6,6,10,['k'],Y,['k'],Y,['space'],Y,,,,,,,f,22,
42,8,470,10,10,10,['d'],Y,['d'],Y,['space'],Y,,,,,,,f,22,
42,9,471,10,10,10,['d'],Y,['d'],N,None,Y,,,,,,,f,22,
42,10,472,1,1,10,['k'],Y,['k'],Y,None,N,,,,,,,f,22,
43,0,473,1,1,10,['k'],Y,['k'],N,None,Y,,,,,,,f,22,
43,1,474,7,7,10,['k'],N,['d'],Y,None,N,,,,,,,f,22,
43,2,475,4,4,10,['k'],Y,['k'],N,None,Y,,,,,,,f,22,
43,3,476,3,3,10,['k'],Y,['k'],Y,['k'],N,,,,,,,f,22,
43,4,477,5,5,10,['d'],Y,['d'],Y,None,N,,,,,,,f,22,
43,5,478,0,0,10,['k'],N,['d'],Y,['space'],Y,,,,,,,f,22,
43,6,479,5,5,10,['k'],Y,['k'],Y,['space'],Y,,,,,,,f,22,
43,7,480,9,9,10,['d'],Y,['d'],N,None,Y,,,,,,,f,22,
43,8,481,5,5,10,['d'],Y,['d'],Y,['space'],Y,,,,,,,f,22,
43,9,482,10,10,10,['k'],N,['d'],N,None,Y,,,,,,,f,22,
43,10,483,6,6,10,['k'],N,['d'],N,None,Y,,,,,,,f,22,
44,0,484,4,4,10,['d'],N,['k'],Y,['space'],Y,,,,,,,f,22,
44,1,485,1,1,10,['k'],Y,['k'],N,None,Y,,,,,,,f,22,
44,2,486,7,7,10,['d'],Y,['d'],N,None,Y,,,,,,,f,22,
44,3,487,7,7,10,['k'],Y,['k'],N,['space'],N,,,,,,,f,22,
44,4,488,9,9,10,['d'],N,['k'],Y,['space'],Y,,,,,,,f,22,
44,5,489,3,3,10,['d'],Y,['d'],Y,['space'],Y,,,,,,,f,22,
44,6,490,5,5,10,['k'],Y,['k'],N,None,Y,,,,,,,f,22,
44,7,491,8,8,10,['k'],N,['d'],Y,None,N,,,,,,,f,22,
44,8,492,6,6,10,['k'],Y,['k'],N,None,Y,,,,,,,f,22,
44,9,493,5,5,10,['k'],N,['d'],N,None,Y,,,,,,,f,22,
44,10,494,3,3,10,['d'],Y,['d'],Y,None,N,,,,,,,f,22,
45,0,495,10,10,10,['d'],N,['k'],N,None,Y,,,,,,,f,22,
45,1,496,1,1,10,['k'],N,['d'],N,None,Y,,,,,,,f,22,
45,2,497,10,10,10,['d'],Y,['d'],N,None,Y,,,,,,,f,22,
45,3,498,7,7,10,['k'],Y,['k'],N,None,Y,,,,,,,f,22,
45,4,499,4,4,10,['d'],N,['k'],N,None,Y,33,33,25,,,,f,22,
45,5,500,1,1,11,['d'],N,['d'],,,,,,,Y,Y,Y,f,22,
45,6,501,8,8,11,['d'],Y,['k'],,,,,,,,Y,Y,f,22,
45,7,502,4,4,11,['k'],N,['k'],N,None,Y,,,,,Y,Y,f,22,
45,8,503,1,1,11,['k'],Y,['d'],Y,None,N,,,,,Y,Y,f,22,
45,9,504,9,9,11,['k'],N,['k'],Y,None,N,,,,,Y,Y,f,22,
45,10,505,1,1,11,['k'],Y,['d'],N,None,Y,,,,,Y,Y,f,22,
46,0,506,10,10,11,['k'],Y,['d'],Y,['space'],Y,,,,,Y,Y,f,22,
46,1,507,8,8,11,['d'],Y,['k'],Y,['space'],Y,,,,,Y,Y,f,22,
46,2,508,6,6,11,['d'],N,['d'],N,None,Y,,,,,Y,Y,f,22,
46,3,509,4,4,11,['k'],N,['k'],N,['space'],N,,,,,Y,Y,f,22,
46,4,510,7,7,11,['d'],N,['d'],N,None,Y,,,,,Y,Y,f,22,
46,5,511,3,3,11,['k'],Y,['d'],Y,None,N,,,,,Y,Y,f,22,
46,6,512,10,10,11,['d'],Y,['k'],Y,None,N,,,,,Y,Y,f,22,
46,7,513,0,0,11,['k'],Y,['d'],N,None,Y,,,,,Y,Y,f,22,
46,8,514,1,1,11,['d'],Y,['k'],N,None,Y,,,,,Y,Y,f,22,
46,9,515,10,10,11,['d'],N,['d'],N,None,Y,,,,,Y,Y,f,22,
46,10,516,6,6,11,['d'],Y,['k'],N,None,Y,,,,,Y,Y,f,22,
47,0,517,10,10,11,['d'],Y,['k'],N,None,Y,,,,,Y,Y,f,22,
47,1,518,2,2,11,['d'],Y,['k'],Y,['space'],Y,,,,,Y,Y,f,22,
47,2,519,0,0,11,['k'],Y,['d'],N,None,Y,,,,,Y,Y,f,22,
47,3,520,6,6,11,['k'],Y,['d'],N,None,Y,,,,,Y,Y,f,22,
47,4,521,6,6,11,['k'],N,['k'],Y,['space'],Y,,,,,Y,Y,f,22,
47,5,522,10,10,11,['k'],Y,['d'],Y,None,N,,,,,Y,Y,f,22,
47,6,523,1,1,11,None,Timed out,,Y,None,N,,,,,Y,Y,f,22,
47,7,524,8,8,11,['k'],Y,['d'],N,None,Y,,,,,Y,Y,f,22,
47,8,525,3,3,11,['k'],Y,['d'],Y,None,N,,,,,Y,Y,f,22,
47,9,526,4,4,11,['k'],Y,['d'],N,None,Y,,,,,Y,Y,f,22,
47,10,527,6,6,11,['k'],Y,['d'],N,None,Y,,,,,Y,Y,f,22,
48,0,528,8,8,11,['k'],Y,['d'],Y,None,N,,,,,Y,Y,f,22,
48,1,529,0,0,11,['d'],Y,['k'],N,None,Y,,,,,Y,Y,f,22,
48,2,530,2,2,11,['d'],Y,['k'],Y,None,N,,,,,Y,Y,f,22,
48,3,531,5,5,11,['d'],N,['d'],Y,None,N,,,,,Y,Y,f,22,
48,4,532,9,9,11,['d'],Y,['k'],N,None,Y,,,,,Y,Y,f,22,
48,5,533,3,3,11,['d'],N,['d'],Y,['space'],Y,,,,,Y,Y,f,22,
48,6,534,1,1,11,['d'],N,['d'],N,None,Y,,,,,Y,Y,f,22,
48,7,535,1,1,11,['d'],N,['d'],Y,['space'],Y,,,,,Y,Y,f,22,
48,8,536,6,6,11,['k'],Y,['d'],Y,None,N,,,,,Y,Y,f,22,
48,9,537,6,6,11,['d'],Y,['k'],Y,None,N,,,,,Y,Y,f,22,
48,10,538,5,5,11,['k'],N,['k'],Y,None,N,,,,,Y,Y,f,22,
49,0,539,8,8,11,['d'],Y,['k'],N,None,Y,,,,,Y,Y,f,22,
49,1,540,4,4,11,['d'],Y,['k'],Y,None,N,,,,,Y,Y,f,22,
49,2,541,0,0,11,['d'],Y,['k'],Y,None,N,,,,,Y,Y,f,22,
49,3,542,9,9,11,['k'],Y,['d'],N,None,Y,,,,,Y,Y,f,22,
49,4,543,1,1,11,['k'],Y,['d'],N,None,Y,,,,,Y,Y,f,22,
49,5,544,10,10,11,['d'],N,['d'],N,None,Y,,,,,Y,Y,f,22,
49,6,545,7,7,11,['k'],Y,['d'],Y,None,N,,,,,Y,Y,f,22,
49,7,546,0,0,11,['d'],Y,['k'],Y,None,N,,,,,Y,Y,f,22,
49,8,547,7,7,11,['k'],Y,['d'],N,None,Y,,,,,Y,Y,f,22,
49,9,548,2,2,11,['d'],Y,['k'],Y,['space'],Y,,,,,Y,Y,f,22,
49,10,549,5,5,11,['d'],Y,['k'],N,None,Y,35,30,24,,Y,Y,f,22,
50,0,550,9,9,12,['d'],Y,['k'],,,,,,,,Y,Y,f,22,
50,1,551,1,1,12,['d'],N,['d'],,,,,,,,Y,Y,f,22,
50,2,552,10,10,12,None,Timed out,,Y,['space'],Y,,,,,Y,Y,f,22,
50,3,553,0,0,12,['k'],N,['k'],N,None,Y,,,,,Y,Y,f,22,
50,4,554,0,0,12,['d'],Y,['k'],Y,None,N,,,,,Y,Y,f,22,
50,5,555,0,0,12,['d'],Y,['k'],N,None,Y,,,,,Y,Y,f,22,
50,6,556,4,4,12,['k'],Y,['d'],N,None,Y,,,,,Y,Y,f,22,
50,7,557,3,3,12,['d'],Y,['k'],Y,['space'],Y,,,,,Y,Y,f,22,
50,8,558,1,1,12,['d'],Y,['k'],N,None,Y,,,,,Y,Y,f,22,
50,9,559,4,4,12,['k'],Y,['d'],Y,None,N,,,,,Y,Y,f,22,
50,10,560,7,7,12,['k'],Y,['d'],N,['space'],N,,,,,Y,Y,f,22,
51,0,561,6,6,12,['d'],Y,['k'],N,None,Y,,,,,Y,Y,f,22,
51,1,562,5,5,12,['d'],Y,['k'],N,None,Y,,,,,Y,Y,f,22,
51,2,563,8,8,12,['d'],N,['d'],N,None,Y,,,,,Y,Y,f,22,
51,3,564,2,2,12,['k'],Y,['d'],N,None,Y,,,,,Y,Y,f,22,
51,4,565,5,5,12,['d'],N,['d'],Y,None,N,,,,,Y,Y,f,22,
51,5,566,3,3,12,['d'],N,['d'],N,None,Y,,,,,Y,Y,f,22,
51,6,567,8,8,12,['d'],Y,['k'],N,None,Y,,,,,Y,Y,f,22,
51,7,568,7,7,12,['k'],Y,['d'],Y,None,N,,,,,Y,Y,f,22,
51,8,569,4,4,12,['k'],Y,['d'],Y,['space'],Y,,,,,Y,Y,f,22,
51,9,570,7,7,12,['d'],Y,['k'],Y,['space'],Y,,,,,Y,Y,f,22,
51,10,571,3,3,12,['k'],Y,['d'],Y,['space'],Y,,,,,Y,Y,f,22,
52,0,572,3,3,12,['d'],N,['d'],N,None,Y,,,,,Y,Y,f,22,
52,1,573,7,7,12,['k'],Y,['d'],Y,['space'],Y,,,,,Y,Y,f,22,
52,2,574,3,3,12,['k'],Y,['d'],N,None,Y,,,,,Y,Y,f,22,
52,3,575,10,10,12,['d'],Y,['k'],Y,['space'],Y,,,,,Y,Y,f,22,
52,4,576,7,7,12,['d'],Y,['k'],N,None,Y,,,,,Y,Y,f,22,
52,5,577,7,7,12,['d'],Y,['k'],N,None,Y,,,,,Y,Y,f,22,
52,6,578,6,6,12,['k'],Y,['d'],N,None,Y,,,,,Y,Y,f,22,
52,7,579,10,10,12,['d'],Y,['k'],Y,['space'],Y,,,,,Y,Y,f,22,
52,8,580,2,2,12,['d'],Y,['k'],Y,['space'],Y,,,,,Y,Y,f,22,
52,9,581,2,2,12,None,Timed out,,Y,['space'],Y,,,,,Y,Y,f,22,
52,10,582,3,3,12,['d'],N,['d'],N,None,Y,,,,,Y,Y,f,22,
53,0,583,1,1,12,['d'],N,['d'],N,None,Y,,,,,Y,Y,f,22,
53,1,584,4,4,12,['d'],N,['d'],N,None,Y,,,,,Y,Y,f,22,
53,2,585,9,9,12,['k'],Y,['d'],Y,None,N,,,,,Y,Y,f,22,
53,3,586,3,3,12,['d'],Y,['k'],N,None,Y,,,,,Y,Y,f,22,
53,4,587,4,4,12,['k'],Y,['d'],Y,None,N,,,,,Y,Y,f,22,
53,5,588,9,9,12,['k'],N,['k'],Y,None,N,,,,,Y,Y,f,22,
53,6,589,3,3,12,['d'],Y,['k'],N,None,Y,,,,,Y,Y,f,22,
53,7,590,1,1,12,['k'],Y,['d'],Y,['space'],Y,,,,,Y,Y,f,22,
53,8,591,6,6,12,['d'],Y,['k'],N,None,Y,,,,,Y,Y,f,22,
53,9,592,6,6,12,['d'],Y,['k'],Y,None,N,,,,,Y,Y,f,22,
53,10,593,10,10,12,['d'],Y,['k'],N,None,Y,,,,,Y,Y,f,22,
54,0,594,2,2,12,['d'],Y,['k'],Y,None,N,,,,,Y,Y,f,22,
54,1,595,0,0,12,['k'],Y,['d'],N,None,Y,,,,,Y,Y,f,22,
54,2,596,10,10,12,['d'],N,['d'],Y,None,N,,,,,Y,Y,f,22,
54,3,597,9,9,12,['d'],Y,['k'],N,None,Y,,,,,Y,Y,f,22,
54,4,598,5,5,12,['k'],Y,['d'],N,None,Y,,,,,Y,Y,f,22,
54,5,599,2,2,12,['k'],Y,['d'],N,None,Y,37,37,21,,Y,Y,f,22,
