.thisRepN,.thisTrialN,.thisN,.thisIndex,Block Number,Key pressed,Category,Correct?,Button switch shown?,Actually switched?,Fast?,gender,age
0,0,0,349,1,['k'],['k'],Y,,,,F,18
0,1,1,509,1,['d'],['k'],N,,,,F,18
0,2,2,278,1,['k'],['d'],N,,,,F,18
0,3,3,440,1,['k'],['k'],Y,,,,F,18
0,4,4,161,1,['d'],['d'],Y,,,,F,18
0,5,5,281,1,['d'],['d'],Y,,,,F,18
0,6,6,279,1,['k'],['d'],N,,,,F,18
0,7,7,23,1,['d'],['d'],Y,,,,F,18
0,8,8,160,1,['k'],['d'],N,,,,F,18
0,9,9,243,1,['d'],['d'],Y,,,,F,18
0,10,10,590,1,['d'],['k'],N,,,,F,18
0,11,11,581,1,['d'],['k'],N,,,,F,18
0,12,12,311,1,['k'],['k'],Y,,,,F,18
0,13,13,430,1,['k'],['k'],Y,,,,F,18
0,14,14,327,1,['k'],['k'],Y,,,,F,18
0,15,15,284,1,['d'],['d'],Y,,,,F,18
0,16,16,30,1,['k'],['d'],N,,,,F,18
0,17,17,188,1,['d'],['d'],Y,,,,F,18
0,18,18,275,1,['d'],['d'],Y,,,,F,18
0,19,19,271,1,['d'],['d'],Y,,,,F,18
0,20,20,54,1,['d'],['d'],Y,,,,F,18
0,21,21,157,1,['d'],['d'],Y,,,,F,18
0,22,22,372,1,['k'],['k'],Y,,,,F,18
0,23,23,152,1,['k'],['d'],N,,,,F,18
0,24,24,314,1,['d'],['k'],N,,,,F,18
0,25,25,246,1,['k'],['d'],N,,,,F,18
0,26,26,1,1,['d'],['d'],Y,,,,F,18
0,27,27,512,1,['k'],['k'],Y,,,,F,18
0,28,28,541,1,['k'],['k'],Y,,,,F,18
0,29,29,538,1,['k'],['k'],Y,,,,F,18
0,30,30,465,1,['k'],['k'],Y,,,,F,18
0,31,31,164,1,['k'],['d'],N,,,,F,18
0,32,32,501,1,['d'],['k'],N,,,,F,18
0,33,33,247,1,['k'],['d'],N,,,,F,18
0,34,34,530,1,['k'],['k'],Y,,,,F,18
0,35,35,466,1,['d'],['k'],N,,,,F,18
0,36,36,83,1,['k'],['d'],N,,,,F,18
0,37,37,481,1,['d'],['k'],N,,,,F,18
0,38,38,544,1,['k'],['k'],Y,,,,F,18
0,39,39,298,1,['k'],['d'],N,,,,F,18
0,40,40,306,1,['k'],['k'],Y,,,,F,18
0,41,41,587,1,['k'],['k'],Y,,,,F,18
0,42,42,387,1,['k'],['k'],Y,,,,F,18
0,43,43,34,1,['k'],['d'],N,,,,F,18
0,44,44,412,1,['k'],['k'],Y,,,,F,18
0,45,45,63,1,['d'],['d'],Y,,,,F,18
0,46,46,580,1,['k'],['k'],Y,,,,F,18
0,47,47,116,1,['k'],['d'],N,,,,F,18
0,48,48,361,1,['d'],['k'],N,,,,F,18
0,49,49,169,1,['k'],['d'],N,,,,F,18
,,,,,,,"29, 21",,,,,
0,50,50,9,2,['d'],['d'],Y,,,,F,18
0,51,51,321,2,['d'],['k'],N,,,,F,18
0,52,52,176,2,['d'],['d'],Y,,,,F,18
0,53,53,462,2,['d'],['k'],N,,,,F,18
0,54,54,101,2,['k'],['d'],N,,,,F,18
0,55,55,159,2,['d'],['d'],Y,,,,F,18
0,56,56,277,2,['k'],['d'],N,,,,F,18
0,57,57,403,2,['d'],['k'],N,,,,F,18
0,58,58,495,2,['d'],['k'],N,,,,F,18
0,59,59,235,2,['d'],['d'],Y,,,,F,18
0,60,60,40,2,['d'],['d'],Y,,,,F,18
0,61,61,301,2,['d'],['k'],N,,,,F,18
0,62,62,138,2,['k'],['d'],N,,,,F,18
0,63,63,222,2,['d'],['d'],Y,,,,F,18
0,64,64,452,2,['d'],['k'],N,,,,F,18
0,65,65,374,2,['k'],['k'],Y,,,,F,18
0,66,66,391,2,['k'],['k'],Y,,,,F,18
0,67,67,299,2,['k'],['d'],N,,,,F,18
0,68,68,287,2,['k'],['d'],N,,,,F,18
0,69,69,358,2,['k'],['k'],Y,,,,F,18
0,70,70,185,2,['k'],['d'],N,,,,F,18
0,71,71,251,2,['k'],['d'],N,,,,F,18
0,72,72,457,2,['d'],['k'],N,,,,F,18
0,73,73,569,2,['d'],['k'],N,,,,F,18
0,74,74,79,2,['k'],['d'],N,,,,F,18
0,75,75,56,2,['k'],['d'],N,,,,F,18
0,76,76,309,2,['d'],['k'],N,,,,F,18
0,77,77,171,2,['d'],['d'],Y,,,,F,18
0,78,78,304,2,['d'],['k'],N,,,,F,18
0,79,79,450,2,['k'],['k'],Y,,,,F,18
0,80,80,149,2,['k'],['d'],N,,,,F,18
0,81,81,518,2,['d'],['k'],N,,,,F,18
0,82,82,230,2,['k'],['d'],N,,,,F,18
0,83,83,195,2,['k'],['d'],N,,,,F,18
0,84,84,408,2,['k'],['k'],Y,,,,F,18
0,85,85,257,2,['k'],['d'],N,,,,F,18
0,86,86,89,2,['d'],['d'],Y,,,,F,18
0,87,87,219,2,['d'],['d'],Y,,,,F,18
0,88,88,200,2,['d'],['d'],Y,,,,F,18
0,89,89,577,2,['k'],['k'],Y,,,,F,18
0,90,90,455,2,['d'],['k'],N,,,,F,18
0,91,91,429,2,['k'],['k'],Y,,,,F,18
0,92,92,180,2,['k'],['d'],N,,,,F,18
0,93,93,140,2,['d'],['d'],Y,,,,F,18
0,94,94,318,2,['k'],['k'],Y,,,,F,18
0,95,95,558,2,['k'],['k'],Y,,,,F,18
0,96,96,564,2,['k'],['k'],Y,,,,F,18
0,97,97,109,2,['k'],['d'],N,,,,F,18
0,98,98,520,2,['d'],['k'],N,,,,F,18
0,99,99,165,2,['d'],['d'],Y,,,,F,18
,,,,,,,"22, 28",,,,,
0,100,100,93,3,['k'],['d'],N,,,,F,18
0,101,101,290,3,['k'],['d'],N,,,,F,18
0,102,102,493,3,['k'],['k'],Y,,,,F,18
0,103,103,528,3,['k'],['k'],Y,,,,F,18
0,104,104,105,3,['k'],['d'],N,,,,F,18
0,105,105,293,3,['d'],['d'],Y,,,,F,18
0,106,106,269,3,['d'],['d'],Y,,,,F,18
0,107,107,134,3,['d'],['d'],Y,,,,F,18
0,108,108,198,3,['d'],['d'],Y,,,,F,18
0,109,109,249,3,['k'],['d'],N,,,,F,18
0,110,110,99,3,['d'],['d'],Y,,,,F,18
0,111,111,414,3,['k'],['k'],Y,,,,F,18
0,112,112,146,3,['k'],['d'],N,,,,F,18
0,113,113,64,3,['k'],['d'],N,,,,F,18
0,114,114,446,3,['d'],['k'],N,,,,F,18
0,115,115,72,3,['k'],['d'],N,,,,F,18
0,116,116,499,3,['k'],['k'],Y,,,,F,18
0,117,117,511,3,['d'],['k'],N,,,,F,18
0,118,118,24,3,['k'],['d'],N,,,,F,18
0,119,119,276,3,['k'],['d'],N,,,,F,18
0,120,120,238,3,['d'],['d'],Y,,,,F,18
0,121,121,432,3,['k'],['k'],Y,,,,F,18
0,122,122,474,3,['k'],['k'],Y,,,,F,18
0,123,123,470,3,['d'],['k'],N,,,,F,18
0,124,124,572,3,['k'],['k'],Y,,,,F,18
0,125,125,332,3,['d'],['k'],N,,,,F,18
0,126,126,117,3,['k'],['d'],N,,,,F,18
0,127,127,560,3,['d'],['k'],N,,,,F,18
0,128,128,547,3,['k'],['k'],Y,,,,F,18
0,129,129,507,3,['k'],['k'],Y,,,,F,18
0,130,130,363,3,['k'],['k'],Y,,,,F,18
0,131,131,37,3,['k'],['d'],N,,,,F,18
0,132,132,168,3,['d'],['d'],Y,,,,F,18
0,133,133,445,3,['k'],['k'],Y,,,,F,18
0,134,134,336,3,['d'],['k'],N,,,,F,18
0,135,135,584,3,['d'],['k'],N,,,,F,18
0,136,136,364,3,['k'],['k'],Y,,,,F,18
0,137,137,385,3,['k'],['k'],Y,,,,F,18
0,138,138,139,3,['k'],['d'],N,,,,F,18
0,139,139,26,3,['d'],['d'],Y,,,,F,18
0,140,140,488,3,['k'],['k'],Y,,,,F,18
0,141,141,513,3,['k'],['k'],Y,,,,F,18
0,142,142,476,3,['d'],['k'],N,,,,F,18
0,143,143,43,3,['k'],['d'],N,,,,F,18
0,144,144,85,3,['k'],['d'],N,,,,F,18
0,145,145,65,3,['d'],['d'],Y,,,,F,18
0,146,146,505,3,['d'],['k'],N,,,,F,18
0,147,147,583,3,['k'],['k'],Y,,,,F,18
0,148,148,399,3,['k'],['k'],Y,,,,F,18
0,149,149,355,3,['d'],['k'],N,,,,F,18
,,,,,,,"26, 24",,,,,
0,150,150,61,4,['k'],['d'],N,,,,F,18
0,151,151,571,4,['k'],['k'],Y,,,,F,18
0,152,152,141,4,['k'],['d'],N,,,,F,18
0,153,153,449,4,['k'],['k'],Y,,,,F,18
0,154,154,245,4,['d'],['d'],Y,,,,F,18
0,155,155,244,4,['k'],['d'],N,,,,F,18
0,156,156,210,4,['d'],['d'],Y,,,,F,18
0,157,157,534,4,['k'],['k'],Y,,,,F,18
0,158,158,383,4,['k'],['k'],Y,,,,F,18
0,159,159,250,4,['k'],['d'],N,,,,F,18
0,160,160,232,4,['d'],['d'],Y,,,,F,18
0,161,161,428,4,['d'],['k'],N,,,,F,18
0,162,162,163,4,['k'],['d'],N,,,,F,18
0,163,163,597,4,['k'],['k'],Y,,,,F,18
0,164,164,153,4,['d'],['d'],Y,,,,F,18
0,165,165,162,4,['k'],['d'],N,,,,F,18
0,166,166,401,4,['d'],['k'],N,,,,F,18
0,167,167,8,4,['d'],['d'],Y,,,,F,18
0,168,168,475,4,['d'],['k'],N,,,,F,18
0,169,169,47,4,['k'],['d'],N,,,,F,18
0,170,170,396,4,['d'],['k'],N,,,,F,18
0,171,171,471,4,['k'],['k'],Y,,,,F,18
0,172,172,516,4,['k'],['k'],Y,,,,F,18
0,173,173,285,4,['k'],['d'],N,,,,F,18
0,174,174,346,4,['k'],['k'],Y,,,,F,18
0,175,175,115,4,['k'],['d'],N,,,,F,18
0,176,176,526,4,['k'],['k'],Y,,,,F,18
0,177,177,191,4,['k'],['d'],N,,,,F,18
0,178,178,123,4,['k'],['d'],N,,,,F,18
0,179,179,181,4,['k'],['d'],N,,,,F,18
0,180,180,360,4,['k'],['k'],Y,,,,F,18
0,181,181,71,4,['d'],['d'],Y,,,,F,18
0,182,182,436,4,['d'],['k'],N,,,,F,18
0,183,183,90,4,['k'],['d'],N,,,,F,18
0,184,184,27,4,['d'],['d'],Y,,,,F,18
0,185,185,143,4,['d'],['d'],Y,,,,F,18
0,186,186,44,4,['k'],['d'],N,,,,F,18
0,187,187,267,4,['d'],['d'],Y,,,,F,18
0,188,188,113,4,['k'],['d'],N,,,,F,18
0,189,189,172,4,['k'],['d'],N,,,,F,18
0,190,190,365,4,['d'],['k'],N,,,,F,18
0,191,191,373,4,['d'],['k'],N,,,,F,18
0,192,192,533,4,['k'],['k'],Y,,,,F,18
0,193,193,447,4,['k'],['k'],Y,,,,F,18
0,194,194,549,4,['k'],['k'],Y,,,,F,18
0,195,195,322,4,['k'],['k'],Y,,,,F,18
0,196,196,167,4,['d'],['d'],Y,,,,F,18
0,197,197,58,4,['k'],['d'],N,,,,F,18
0,198,198,128,4,['d'],['d'],Y,,,,F,18
0,199,199,579,4,['d'],['k'],N,,,,F,18
,,,,,,,"25, 25",,,,,
0,200,200,479,5,['k'],['k'],Y,,,,F,18
0,201,201,415,5,['k'],['k'],Y,,,,F,18
0,202,202,574,5,['k'],['k'],Y,,,,F,18
0,203,203,111,5,['k'],['d'],N,,,,F,18
0,204,204,426,5,['k'],['k'],Y,,,,F,18
0,205,205,125,5,['d'],['d'],Y,,,,F,18
0,206,206,514,5,['k'],['k'],Y,,,,F,18
0,207,207,504,5,['k'],['k'],Y,,,,F,18
0,208,208,369,5,['k'],['k'],Y,,,,F,18
0,209,209,563,5,['k'],['k'],Y,,,,F,18
0,210,210,270,5,['d'],['d'],Y,,,,F,18
0,211,211,334,5,['k'],['k'],Y,,,,F,18
0,212,212,32,5,['d'],['d'],Y,,,,F,18
0,213,213,118,5,['d'],['d'],Y,,,,F,18
0,214,214,6,5,['d'],['d'],Y,,,,F,18
0,215,215,264,5,['d'],['d'],Y,,,,F,18
0,216,216,551,5,['k'],['k'],Y,,,,F,18
0,217,217,94,5,['d'],['d'],Y,,,,F,18
0,218,218,142,5,['d'],['d'],Y,,,,F,18
0,219,219,182,5,['d'],['d'],Y,,,,F,18
0,220,220,357,5,['d'],['k'],N,,,,F,18
0,221,221,589,5,['k'],['k'],Y,,,,F,18
0,222,222,554,5,['k'],['k'],Y,,,,F,18
0,223,223,5,5,['k'],['d'],N,,,,F,18
0,224,224,562,5,['k'],['k'],Y,,,,F,18
0,225,225,345,5,['k'],['k'],Y,,,,F,18
0,226,226,427,5,['k'],['k'],Y,,,,F,18
0,227,227,173,5,['k'],['d'],N,,,,F,18
0,228,228,410,5,['k'],['k'],Y,,,,F,18
0,229,229,7,5,['d'],['d'],Y,,,,F,18
0,230,230,331,5,['k'],['k'],Y,,,,F,18
0,231,231,294,5,['k'],['d'],N,,,,F,18
0,232,232,473,5,['k'],['k'],Y,,,,F,18
0,233,233,60,5,['d'],['d'],Y,,,,F,18
0,234,234,433,5,['k'],['k'],Y,,,,F,18
0,235,235,51,5,['d'],['d'],Y,,,,F,18
0,236,236,379,5,['k'],['k'],Y,,,,F,18
0,237,237,57,5,['d'],['d'],Y,,,,F,18
0,238,238,154,5,['k'],['d'],N,,,,F,18
0,239,239,156,5,['d'],['d'],Y,,,,F,18
0,240,240,468,5,['d'],['k'],N,,,,F,18
0,241,241,29,5,['d'],['d'],Y,,,,F,18
0,242,242,36,5,['d'],['d'],Y,,,,F,18
0,243,243,454,5,['k'],['k'],Y,,,,F,18
0,244,244,46,5,['d'],['d'],Y,,,,F,18
0,245,245,4,5,['k'],['d'],N,,,,F,18
0,246,246,187,5,['d'],['d'],Y,,,,F,18
0,247,247,3,5,['d'],['d'],Y,,,,F,18
0,248,248,218,5,['d'],['d'],Y,,,,F,18
0,249,249,224,5,['d'],['d'],Y,,,,F,18
,,,,,,,"42, 8",,,,,
0,250,250,206,6,['d'],['d'],Y,,,,F,18
0,251,251,539,6,['k'],['k'],Y,,,,F,18
0,252,252,463,6,['k'],['k'],Y,,,,F,18
0,253,253,80,6,['d'],['d'],Y,,,,F,18
0,254,254,186,6,['d'],['d'],Y,,,,F,18
0,255,255,339,6,['k'],['k'],Y,,,,F,18
0,256,256,439,6,['d'],['k'],N,,,,F,18
0,257,257,2,6,['k'],['d'],N,,,,F,18
0,258,258,48,6,['d'],['d'],Y,,,,F,18
0,259,259,397,6,['k'],['k'],Y,,,,F,18
0,260,260,50,6,['d'],['d'],Y,,,,F,18
0,261,261,425,6,['k'],['k'],Y,,,,F,18
0,262,262,69,6,['d'],['d'],Y,,,,F,18
0,263,263,598,6,['k'],['k'],Y,,,,F,18
0,264,264,480,6,['k'],['k'],Y,,,,F,18
0,265,265,423,6,['d'],['k'],N,,,,F,18
0,266,266,189,6,['k'],['d'],N,,,,F,18
0,267,267,483,6,['d'],['k'],N,,,,F,18
0,268,268,315,6,['k'],['k'],Y,,,,F,18
0,269,269,127,6,['d'],['d'],Y,,,,F,18
0,270,270,596,6,['k'],['k'],Y,,,,F,18
0,271,271,599,6,['k'],['k'],Y,,,,F,18
0,272,272,389,6,['k'],['k'],Y,,,,F,18
0,273,273,91,6,['d'],['d'],Y,,,,F,18
0,274,274,225,6,['d'],['d'],Y,,,,F,18
0,275,275,66,6,['d'],['d'],Y,,,,F,18
0,276,276,262,6,['d'],['d'],Y,,,,F,18
0,277,277,350,6,['k'],['k'],Y,,,,F,18
0,278,278,203,6,['d'],['d'],Y,,,,F,18
0,279,279,464,6,['k'],['k'],Y,,,,F,18
0,280,280,393,6,['k'],['k'],Y,,,,F,18
0,281,281,384,6,['k'],['k'],Y,,,,F,18
0,282,282,459,6,['k'],['k'],Y,,,,F,18
0,283,283,317,6,['k'],['k'],Y,,,,F,18
0,284,284,155,6,['d'],['d'],Y,,,,F,18
0,285,285,296,6,['d'],['d'],Y,,,,F,18
0,286,286,422,6,['k'],['k'],Y,,,,F,18
0,287,287,81,6,['k'],['d'],N,,,,F,18
0,288,288,207,6,['d'],['d'],Y,,,,F,18
0,289,289,375,6,['k'],['k'],Y,,,,F,18
0,290,290,492,6,['k'],['k'],Y,,,,F,18
0,291,291,133,6,['d'],['d'],Y,,,,F,18
0,292,292,307,6,['k'],['k'],Y,,,,F,18
0,293,293,147,6,['d'],['d'],Y,,,,F,18
0,294,294,223,6,['d'],['d'],Y,,,,F,18
0,295,295,367,6,['k'],['k'],Y,,,,F,18
0,296,296,240,6,['d'],['d'],Y,,,,F,18
0,297,297,381,6,['k'],['k'],Y,,,,F,18
0,298,298,348,6,['k'],['k'],Y,,,,F,18
0,299,299,316,6,['k'],['k'],Y,,,,F,18
,,,,,,,"44, 6",,,,,
0,300,300,288,7,['k'],['d'],N,,,,F,18
0,301,301,557,7,['k'],['k'],Y,,,,F,18
0,302,302,328,7,['k'],['k'],Y,,,,F,18
0,303,303,413,7,['k'],['k'],Y,,,,F,18
0,304,304,386,7,['k'],['k'],Y,,,,F,18
0,305,305,214,7,['k'],['d'],N,,,,F,18
0,306,306,126,7,['d'],['d'],Y,,,,F,18
0,307,307,591,7,['k'],['k'],Y,,,,F,18
0,308,308,515,7,['k'],['k'],Y,,,,F,18
0,309,309,500,7,['d'],['k'],N,,,,F,18
0,310,310,289,7,['d'],['d'],Y,,,,F,18
0,311,311,585,7,['k'],['k'],Y,,,,F,18
0,312,312,96,7,['d'],['d'],Y,,,,F,18
0,313,313,120,7,['k'],['d'],N,,,,F,18
0,314,314,21,7,['d'],['d'],Y,,,,F,18
0,315,315,292,7,['k'],['d'],N,,,,F,18
0,316,316,395,7,['d'],['k'],N,,,,F,18
0,317,317,567,7,['d'],['k'],N,,,,F,18
0,318,318,497,7,['k'],['k'],Y,,,,F,18
0,319,319,41,7,['d'],['d'],Y,,,,F,18
0,320,320,326,7,['k'],['k'],Y,,,,F,18
0,321,321,17,7,['d'],['d'],Y,,,,F,18
0,322,322,137,7,['k'],['d'],N,,,,F,18
0,323,323,406,7,['k'],['k'],Y,,,,F,18
0,324,324,371,7,['k'],['k'],Y,,,,F,18
0,325,325,484,7,['k'],['k'],Y,,,,F,18
0,326,326,25,7,['k'],['d'],N,,,,F,18
0,327,327,377,7,['k'],['k'],Y,,,,F,18
0,328,328,258,7,['k'],['d'],N,,,,F,18
0,329,329,344,7,['k'],['k'],Y,,,,F,18
0,330,330,227,7,['d'],['d'],Y,,,,F,18
0,331,331,441,7,['d'],['k'],N,,,,F,18
0,332,332,92,7,['k'],['d'],N,,,,F,18
0,333,333,98,7,['k'],['d'],N,,,,F,18
0,334,334,100,7,['d'],['d'],Y,,,,F,18
0,335,335,400,7,['k'],['k'],Y,,,,F,18
0,336,336,519,7,['k'],['k'],Y,,,,F,18
0,337,337,150,7,['d'],['d'],Y,,,,F,18
0,338,338,341,7,['k'],['k'],Y,,,,F,18
0,339,339,370,7,['k'],['k'],Y,,,,F,18
0,340,340,418,7,['k'],['k'],Y,,,,F,18
0,341,341,204,7,['k'],['d'],N,,,,F,18
0,342,342,70,7,['k'],['d'],N,,,,F,18
0,343,343,0,7,['d'],['d'],Y,,,,F,18
0,344,344,576,7,['k'],['k'],Y,,,,F,18
0,345,345,448,7,['k'],['k'],Y,,,,F,18
0,346,346,343,7,['k'],['k'],Y,,,,F,18
0,347,347,260,7,['k'],['d'],N,,,,F,18
0,348,348,337,7,['d'],['k'],N,,,,F,18
0,349,349,522,7,['k'],['k'],Y,,,,F,18
,,,,,,,"33, 17",,,,,
0,350,350,202,8,['k'],['d'],N,,,,F,18
0,351,351,340,8,['k'],['k'],Y,,,,F,18
0,352,352,394,8,['k'],['k'],Y,,,,F,18
0,353,353,388,8,['k'],['k'],Y,,,,F,18
0,354,354,320,8,['k'],['k'],Y,,,,F,18
0,355,355,239,8,['k'],['d'],N,,,,F,18
0,356,356,205,8,['k'],['d'],N,,,,F,18
0,357,357,86,8,['d'],['d'],Y,,,,F,18
0,358,358,10,8,['d'],['d'],Y,,,,F,18
0,359,359,578,8,['d'],['k'],N,,,,F,18
0,360,360,282,8,['k'],['d'],N,,,,F,18
0,361,361,444,8,['k'],['k'],Y,,,,F,18
0,362,362,442,8,['k'],['k'],Y,,,,F,18
0,363,363,272,8,['k'],['d'],N,,,,F,18
0,364,364,11,8,['d'],['d'],Y,,,,F,18
0,365,365,38,8,['k'],['d'],N,,,,F,18
0,366,366,52,8,['d'],['d'],Y,,,,F,18
0,367,367,409,8,['k'],['k'],Y,,,,F,18
0,368,368,594,8,['k'],['k'],Y,,,,F,18
0,369,369,568,8,['k'],['k'],Y,,,,F,18
0,370,370,510,8,['k'],['k'],Y,,,,F,18
0,371,371,175,8,['k'],['d'],N,,,,F,18
0,372,372,545,8,['k'],['k'],Y,,,,F,18
0,373,373,291,8,['k'],['d'],N,,,,F,18
0,374,374,259,8,['d'],['d'],Y,,,,F,18
0,375,375,184,8,['k'],['d'],N,,,,F,18
0,376,376,353,8,['d'],['k'],N,,,,F,18
0,377,377,110,8,['k'],['d'],N,,,,F,18
0,378,378,411,8,['k'],['k'],Y,,,,F,18
0,379,379,213,8,['k'],['d'],N,,,,F,18
0,380,380,523,8,['k'],['k'],Y,,,,F,18
0,381,381,402,8,['k'],['k'],Y,,,,F,18
0,382,382,524,8,['k'],['k'],Y,,,,F,18
0,383,383,255,8,['k'],['d'],N,,,,F,18
0,384,384,76,8,['d'],['d'],Y,,,,F,18
0,385,385,82,8,['d'],['d'],Y,,,,F,18
0,386,386,582,8,['k'],['k'],Y,,,,F,18
0,387,387,376,8,['k'],['k'],Y,,,,F,18
0,388,388,18,8,['d'],['d'],Y,,,,F,18
0,389,389,588,8,['k'],['k'],Y,,,,F,18
0,390,390,490,8,['k'],['k'],Y,,,,F,18
0,391,391,229,8,['d'],['d'],Y,,,,F,18
0,392,392,261,8,['d'],['d'],Y,,,,F,18
0,393,393,550,8,['k'],['k'],Y,,,,F,18
0,394,394,102,8,['d'],['d'],Y,,,,F,18
0,395,395,532,8,['k'],['k'],Y,,,,F,18
0,396,396,68,8,['d'],['d'],Y,,,,F,18
0,397,397,460,8,['k'],['k'],Y,,,,F,18
0,398,398,378,8,['k'],['k'],Y,,,,F,18
0,399,399,166,8,['d'],['d'],Y,,,,F,18
,,,,,,,"36, 14",,,,,
0,400,400,194,9,['k'],['d'],N,,,,F,18
0,401,401,323,9,['d'],['k'],N,,,,F,18
0,402,402,220,9,['k'],['d'],N,,,,F,18
0,403,403,87,9,['k'],['d'],N,,,,F,18
0,404,404,593,9,['d'],['k'],N,,,,F,18
0,405,405,14,9,['k'],['d'],N,,,,F,18
0,406,406,496,9,['k'],['k'],Y,,,,F,18
0,407,407,268,9,['k'],['d'],N,,,,F,18
0,408,408,542,9,['k'],['k'],Y,,,,F,18
0,409,409,368,9,['k'],['k'],Y,,,,F,18
0,410,410,103,9,['k'],['d'],N,,,,F,18
0,411,411,228,9,['d'],['d'],Y,,,,F,18
0,412,412,535,9,['k'],['k'],Y,,,,F,18
0,413,413,529,9,['k'],['k'],Y,,,,F,18
0,414,414,537,9,['k'],['k'],Y,,,,F,18
0,415,415,553,9,['k'],['k'],Y,,,,F,18
0,416,416,12,9,['d'],['d'],Y,,,,F,18
0,417,417,467,9,['k'],['k'],Y,,,,F,18
0,418,418,108,9,['d'],['d'],Y,,,,F,18
0,419,419,421,9,['k'],['k'],Y,,,,F,18
0,420,420,112,9,['k'],['d'],N,,,,F,18
0,421,421,39,9,['k'],['d'],N,,,,F,18
0,422,422,521,9,['k'],['k'],Y,,,,F,18
0,423,423,74,9,['d'],['d'],Y,,,,F,18
0,424,424,212,9,['d'],['d'],Y,,,,F,18
0,425,425,555,9,['k'],['k'],Y,,,,F,18
0,426,426,297,9,['d'],['d'],Y,,,,F,18
0,427,427,286,9,['k'],['d'],N,,,,F,18
0,428,428,407,9,['k'],['k'],Y,,,,F,18
0,429,429,217,9,['d'],['d'],Y,,,,F,18
0,430,430,308,9,['k'],['k'],Y,,,,F,18
0,431,431,570,9,['k'],['k'],Y,,,,F,18
0,432,432,209,9,['d'],['d'],Y,,,,F,18
0,433,433,575,9,['k'],['k'],Y,,,,F,18
0,434,434,380,9,['k'],['k'],Y,,,,F,18
0,435,435,97,9,['k'],['d'],N,,,,F,18
0,436,436,22,9,['k'],['d'],N,,,,F,18
0,437,437,303,9,['k'],['k'],Y,,,,F,18
0,438,438,201,9,['d'],['d'],Y,,,,F,18
0,439,439,503,9,['k'],['k'],Y,,,,F,18
0,440,440,517,9,['k'],['k'],Y,,,,F,18
0,441,441,546,9,['k'],['k'],Y,,,,F,18
0,442,442,398,9,['k'],['k'],Y,,,,F,18
0,443,443,121,9,['k'],['d'],N,,,,F,18
0,444,444,16,9,['k'],['d'],N,,,,F,18
0,445,445,78,9,['d'],['d'],Y,,,,F,18
0,446,446,226,9,['k'],['d'],N,,,,F,18
0,447,447,431,9,['k'],['k'],Y,,,,F,18
0,448,448,280,9,['d'],['d'],Y,,,,F,18
0,449,449,487,9,['k'],['k'],Y,,,,F,18
,,,,,,,"34, 16",,,,,
0,450,450,199,10,['d'],['d'],Y,,,,F,18
0,451,451,130,10,['k'],['d'],N,,,,F,18
0,452,452,338,10,['k'],['k'],Y,,,,F,18
0,453,453,531,10,['k'],['k'],Y,,,,F,18
0,454,454,196,10,['k'],['d'],N,,,,F,18
0,455,455,31,10,['d'],['d'],Y,,,,F,18
0,456,456,179,10,['k'],['d'],N,,,,F,18
0,457,457,28,10,['k'],['d'],N,,,,F,18
0,458,458,256,10,['d'],['d'],Y,,,,F,18
0,459,459,302,10,['k'],['k'],Y,,,,F,18
0,460,460,424,10,['k'],['k'],Y,,,,F,18
0,461,461,178,10,['k'],['d'],N,,,,F,18
0,462,462,42,10,['d'],['d'],Y,,,,F,18
0,463,463,73,10,['k'],['d'],N,,,,F,18
0,464,464,119,10,['d'],['d'],Y,,,,F,18
0,465,465,273,10,['k'],['d'],N,,,,F,18
0,466,466,595,10,['d'],['k'],N,,,,F,18
0,467,467,145,10,['d'],['d'],Y,,,,F,18
0,468,468,527,10,['k'],['k'],Y,,,,F,18
0,469,469,382,10,['k'],['k'],Y,,,,F,18
0,470,470,458,10,['k'],['k'],Y,,,,F,18
0,471,471,420,10,['k'],['k'],Y,,,,F,18
0,472,472,19,10,['d'],['d'],Y,,,,F,18
0,473,473,498,10,['k'],['k'],Y,,,,F,18
0,474,474,347,10,['k'],['k'],Y,,,,F,18
0,475,475,75,10,['d'],['d'],Y,,,,F,18
0,476,476,333,10,['k'],['k'],Y,,,,F,18
0,477,477,114,10,['d'],['d'],Y,,,,F,18
0,478,478,265,10,['d'],['d'],Y,,,,F,18
0,479,479,231,10,['d'],['d'],Y,,,,F,18
0,480,480,508,10,['k'],['k'],Y,,,,F,18
0,481,481,13,10,['d'],['d'],Y,,,,F,18
0,482,482,482,10,['k'],['k'],Y,,,,F,18
0,483,483,254,10,['d'],['d'],Y,,,,F,18
0,484,484,88,10,['d'],['d'],Y,,,,F,18
0,485,485,312,10,['k'],['k'],Y,,,,F,18
0,486,486,552,10,['k'],['k'],Y,,,,F,18
0,487,487,506,10,['k'],['k'],Y,,,,F,18
0,488,488,132,10,['k'],['d'],N,,,,F,18
0,489,489,253,10,['k'],['d'],N,,,,F,18
0,490,490,485,10,['k'],['k'],Y,,,,F,18
0,491,491,451,10,['k'],['k'],Y,,,,F,18
0,492,492,559,10,['k'],['k'],Y,,,,F,18
0,493,493,525,10,['k'],['k'],Y,,,,F,18
0,494,494,362,10,['k'],['k'],Y,,,,F,18
0,495,495,211,10,['d'],['d'],Y,,,,F,18
0,496,496,319,10,['k'],['k'],Y,,,,F,18
0,497,497,49,10,['k'],['d'],N,,,,F,18
0,498,498,131,10,['d'],['d'],Y,,,,F,18
0,499,499,104,10,['d'],['d'],Y,,,,F,18
,,,,,,,"39, 11",,,,,
0,500,500,183,11,None,,Timed out,Y,Y,Y,F,18
0,501,501,107,11,['d'],['d'],N,,Y,Y,F,18
0,502,502,122,11,['k'],['d'],Y,,Y,Y,F,18
0,503,503,55,11,['k'],['d'],Y,,Y,Y,F,18
0,504,504,136,11,['k'],['d'],Y,,Y,Y,F,18
0,505,505,354,11,['d'],['k'],Y,,Y,Y,F,18
0,506,506,477,11,['k'],['k'],N,,Y,Y,F,18
0,507,507,241,11,['d'],['d'],N,,Y,Y,F,18
0,508,508,536,11,['d'],['k'],Y,,Y,Y,F,18
0,509,509,248,11,['k'],['d'],Y,,Y,Y,F,18
0,510,510,392,11,['d'],['k'],Y,,Y,Y,F,18
0,511,511,540,11,['k'],['k'],N,,Y,Y,F,18
0,512,512,438,11,['d'],['k'],Y,,Y,Y,F,18
0,513,513,135,11,['k'],['d'],Y,,Y,Y,F,18
0,514,514,300,11,['d'],['k'],Y,,Y,Y,F,18
0,515,515,489,11,['k'],['k'],N,,Y,Y,F,18
0,516,516,586,11,['d'],['k'],Y,,Y,Y,F,18
0,517,517,20,11,['k'],['d'],Y,,Y,Y,F,18
0,518,518,310,11,['d'],['k'],Y,,Y,Y,F,18
0,519,519,543,11,['d'],['k'],Y,,Y,Y,F,18
0,520,520,170,11,['k'],['d'],Y,,Y,Y,F,18
0,521,521,197,11,['k'],['d'],Y,,Y,Y,F,18
0,522,522,177,11,['k'],['d'],Y,,Y,Y,F,18
0,523,523,190,11,['d'],['d'],N,,Y,Y,F,18
0,524,524,266,11,['d'],['d'],N,,Y,Y,F,18
0,525,525,390,11,['d'],['k'],Y,,Y,Y,F,18
0,526,526,106,11,['k'],['d'],Y,,Y,Y,F,18
0,527,527,502,11,['d'],['k'],Y,,Y,Y,F,18
0,528,528,417,11,['k'],['k'],N,,Y,Y,F,18
0,529,529,233,11,['d'],['d'],N,,Y,Y,F,18
0,530,530,419,11,['d'],['k'],Y,,Y,Y,F,18
0,531,531,15,11,['k'],['d'],Y,,Y,Y,F,18
0,532,532,329,11,['d'],['k'],Y,,Y,Y,F,18
0,533,533,35,11,['k'],['d'],Y,,Y,Y,F,18
0,534,534,325,11,['d'],['k'],Y,,Y,Y,F,18
0,535,535,151,11,['k'],['d'],Y,,Y,Y,F,18
0,536,536,443,11,['k'],['k'],N,,Y,Y,F,18
0,537,537,263,11,['k'],['d'],Y,,Y,Y,F,18
0,538,538,174,11,['k'],['d'],Y,,Y,Y,F,18
0,539,539,33,11,['k'],['d'],Y,,Y,Y,F,18
0,540,540,494,11,['k'],['k'],N,,Y,Y,F,18
0,541,541,192,11,['k'],['d'],Y,,Y,Y,F,18
0,542,542,295,11,['d'],['d'],N,,Y,Y,F,18
0,543,543,77,11,['k'],['d'],Y,,Y,Y,F,18
0,544,544,208,11,['k'],['d'],Y,,Y,Y,F,18
0,545,545,573,11,['k'],['k'],N,,Y,Y,F,18
0,546,546,351,11,['k'],['k'],N,,Y,Y,F,18
0,547,547,148,11,['k'],['d'],Y,,Y,Y,F,18
0,548,548,283,11,['d'],['d'],N,,Y,Y,F,18
0,549,549,158,11,['k'],['d'],Y,,Y,Y,F,18
,,,,,,,"35, 14, 1",,,,,
0,550,550,416,12,['d'],['k'],Y,,Y,Y,F,18
0,551,551,356,12,['k'],['k'],N,,Y,Y,F,18
0,552,552,342,12,['d'],['k'],Y,,Y,Y,F,18
0,553,553,242,12,['d'],['d'],N,,Y,Y,F,18
0,554,554,548,12,['d'],['k'],Y,,Y,Y,F,18
0,555,555,144,12,['k'],['d'],Y,,Y,Y,F,18
0,556,556,366,12,['d'],['k'],Y,,Y,Y,F,18
0,557,557,456,12,['d'],['k'],Y,,Y,Y,F,18
0,558,558,67,12,['k'],['d'],Y,,Y,Y,F,18
0,559,559,491,12,['d'],['k'],Y,,Y,Y,F,18
0,560,560,592,12,['d'],['k'],Y,,Y,Y,F,18
0,561,561,84,12,['k'],['d'],Y,,Y,Y,F,18
0,562,562,566,12,['d'],['k'],Y,,Y,Y,F,18
0,563,563,305,12,['d'],['k'],Y,,Y,Y,F,18
0,564,564,129,12,['d'],['d'],N,,Y,Y,F,18
0,565,565,53,12,['k'],['d'],Y,,Y,Y,F,18
0,566,566,234,12,['k'],['d'],Y,,Y,Y,F,18
0,567,567,359,12,['k'],['k'],N,,Y,Y,F,18
0,568,568,565,12,['d'],['k'],Y,,Y,Y,F,18
0,569,569,561,12,['d'],['k'],Y,,Y,Y,F,18
0,570,570,221,12,['k'],['d'],Y,,Y,Y,F,18
0,571,571,313,12,['d'],['k'],Y,,Y,Y,F,18
0,572,572,478,12,['d'],['k'],Y,,Y,Y,F,18
0,573,573,236,12,['k'],['d'],Y,,Y,Y,F,18
0,574,574,352,12,['d'],['k'],Y,,Y,Y,F,18
0,575,575,556,12,['d'],['k'],Y,,Y,Y,F,18
0,576,576,437,12,['d'],['k'],Y,,Y,Y,F,18
0,577,577,469,12,['d'],['k'],Y,,Y,Y,F,18
0,578,578,324,12,['d'],['k'],Y,,Y,Y,F,18
0,579,579,216,12,['d'],['d'],N,,Y,Y,F,18
0,580,580,215,12,['k'],['d'],Y,,Y,Y,F,18
0,581,581,330,12,['d'],['k'],Y,,Y,Y,F,18
0,582,582,434,12,['d'],['k'],Y,,Y,Y,F,18
0,583,583,193,12,['k'],['d'],Y,,Y,Y,F,18
0,584,584,95,12,['k'],['d'],Y,,Y,Y,F,18
0,585,585,461,12,['d'],['k'],Y,,Y,Y,F,18
0,586,586,405,12,['d'],['k'],Y,,Y,Y,F,18
0,587,587,435,12,['d'],['k'],Y,,Y,Y,F,18
0,588,588,472,12,['d'],['k'],Y,,Y,Y,F,18
0,589,589,335,12,['d'],['k'],Y,,Y,Y,F,18
0,590,590,124,12,['k'],['d'],Y,,Y,Y,F,18
0,591,591,404,12,['k'],['k'],N,,Y,Y,F,18
0,592,592,453,12,['d'],['k'],Y,,Y,Y,F,18
0,593,593,237,12,['k'],['d'],Y,,Y,Y,F,18
0,594,594,59,12,['d'],['d'],N,,Y,Y,F,18
0,595,595,486,12,['d'],['k'],Y,,Y,Y,F,18
0,596,596,274,12,['k'],['d'],Y,,Y,Y,F,18
0,597,597,62,12,['k'],['d'],Y,,Y,Y,F,18
0,598,598,45,12,['k'],['d'],Y,,Y,Y,F,18
0,599,599,252,12,['k'],['d'],Y,,Y,Y,F,18
,,,,,,,"43, 7",,,,,
