.thisRepN,.thisTrialN,.thisN,.thisIndex,Block Number,Key pressed,Category,Correct?,Button switch shown?,Actually switched?,Fast?,gender,age
0,0,0,265,1,['d'],['d'],Y,,,,M,21
0,1,1,129,1,['k'],['d'],N,,,,M,21
0,2,2,60,1,['d'],['d'],Y,,,,M,21
0,3,3,311,1,['d'],['k'],N,,,,M,21
0,4,4,303,1,['d'],['k'],N,,,,M,21
0,5,5,274,1,['k'],['d'],N,,,,M,21
0,6,6,521,1,['k'],['k'],Y,,,,M,21
0,7,7,588,1,['d'],['k'],N,,,,M,21
0,8,8,446,1,['k'],['k'],Y,,,,M,21
0,9,9,235,1,['d'],['d'],Y,,,,M,21
0,10,10,255,1,['d'],['d'],Y,,,,M,21
0,11,11,187,1,['k'],['d'],N,,,,M,21
0,12,12,119,1,['d'],['d'],Y,,,,M,21
0,13,13,297,1,['d'],['d'],Y,,,,M,21
0,14,14,134,1,['k'],['d'],N,,,,M,21
0,15,15,243,1,['k'],['d'],N,,,,M,21
0,16,16,147,1,['k'],['d'],N,,,,M,21
0,17,17,342,1,['k'],['k'],Y,,,,M,21
0,18,18,138,1,['d'],['d'],Y,,,,M,21
0,19,19,29,1,['d'],['d'],Y,,,,M,21
0,20,20,510,1,['k'],['k'],Y,,,,M,21
0,21,21,393,1,['k'],['k'],Y,,,,M,21
0,22,22,287,1,['d'],['d'],Y,,,,M,21
0,23,23,125,1,['d'],['d'],Y,,,,M,21
0,24,24,522,1,['k'],['k'],Y,,,,M,21
0,25,25,250,1,['d'],['d'],Y,,,,M,21
0,26,26,23,1,['k'],['d'],N,,,,M,21
0,27,27,380,1,['k'],['k'],Y,,,,M,21
0,28,28,264,1,['d'],['d'],Y,,,,M,21
0,29,29,155,1,['k'],['d'],N,,,,M,21
0,30,30,75,1,['d'],['d'],Y,,,,M,21
0,31,31,84,1,['d'],['d'],Y,,,,M,21
0,32,32,329,1,['k'],['k'],Y,,,,M,21
0,33,33,5,1,['d'],['d'],Y,,,,M,21
0,34,34,366,1,['k'],['k'],Y,,,,M,21
0,35,35,251,1,['d'],['d'],Y,,,,M,21
0,36,36,192,1,['d'],['d'],Y,,,,M,21
0,37,37,504,1,['k'],['k'],Y,,,,M,21
0,38,38,341,1,['k'],['k'],Y,,,,M,21
0,39,39,372,1,['k'],['k'],Y,,,,M,21
0,40,40,276,1,['d'],['d'],Y,,,,M,21
0,41,41,152,1,['d'],['d'],Y,,,,M,21
0,42,42,402,1,['k'],['k'],Y,,,,M,21
0,43,43,436,1,['k'],['k'],Y,,,,M,21
0,44,44,133,1,['d'],['d'],Y,,,,M,21
0,45,45,467,1,['k'],['k'],Y,,,,M,21
0,46,46,419,1,['k'],['k'],Y,,,,M,21
0,47,47,596,1,['k'],['k'],Y,,,,M,21
0,48,48,131,1,['d'],['d'],Y,,,,M,21
0,49,49,567,1,['k'],['k'],Y,,,,M,21
,,,,,,,"39, 11",,,,,
0,50,50,387,2,['k'],['k'],Y,,,,M,21
0,51,51,66,2,['d'],['d'],Y,,,,M,21
0,52,52,234,2,['d'],['d'],Y,,,,M,21
0,53,53,64,2,['k'],['d'],N,,,,M,21
0,54,54,515,2,['k'],['k'],Y,,,,M,21
0,55,55,320,2,['d'],['k'],N,,,,M,21
0,56,56,561,2,['k'],['k'],Y,,,,M,21
0,57,57,17,2,['d'],['d'],Y,,,,M,21
0,58,58,376,2,['k'],['k'],Y,,,,M,21
0,59,59,546,2,['k'],['k'],Y,,,,M,21
0,60,60,240,2,['d'],['d'],Y,,,,M,21
0,61,61,153,2,['d'],['d'],Y,,,,M,21
0,62,62,334,2,['k'],['k'],Y,,,,M,21
0,63,63,107,2,['d'],['d'],Y,,,,M,21
0,64,64,221,2,['d'],['d'],Y,,,,M,21
0,65,65,186,2,['d'],['d'],Y,,,,M,21
0,66,66,444,2,['k'],['k'],Y,,,,M,21
0,67,67,571,2,['k'],['k'],Y,,,,M,21
0,68,68,415,2,['k'],['k'],Y,,,,M,21
0,69,69,164,2,['k'],['d'],N,,,,M,21
0,70,70,579,2,['k'],['k'],Y,,,,M,21
0,71,71,79,2,['d'],['d'],Y,,,,M,21
0,72,72,485,2,['k'],['k'],Y,,,,M,21
0,73,73,454,2,['k'],['k'],Y,,,,M,21
0,74,74,298,2,['d'],['d'],Y,,,,M,21
0,75,75,536,2,['k'],['k'],Y,,,,M,21
0,76,76,277,2,['d'],['d'],Y,,,,M,21
0,77,77,587,2,['d'],['k'],N,,,,M,21
0,78,78,55,2,['d'],['d'],Y,,,,M,21
0,79,79,103,2,['k'],['d'],N,,,,M,21
0,80,80,573,2,['d'],['k'],N,,,,M,21
0,81,81,63,2,['d'],['d'],Y,,,,M,21
0,82,82,180,2,['d'],['d'],Y,,,,M,21
0,83,83,506,2,['k'],['k'],Y,,,,M,21
0,84,84,386,2,['k'],['k'],Y,,,,M,21
0,85,85,219,2,['k'],['d'],N,,,,M,21
0,86,86,319,2,['k'],['k'],Y,,,,M,21
0,87,87,373,2,['k'],['k'],Y,,,,M,21
0,88,88,463,2,['k'],['k'],Y,,,,M,21
0,89,89,65,2,['d'],['d'],Y,,,,M,21
0,90,90,434,2,['k'],['k'],Y,,,,M,21
0,91,91,77,2,['d'],['d'],Y,,,,M,21
0,92,92,394,2,['d'],['k'],N,,,,M,21
0,93,93,363,2,['k'],['k'],Y,,,,M,21
0,94,94,435,2,['d'],['k'],N,,,,M,21
0,95,95,581,2,['k'],['k'],Y,,,,M,21
0,96,96,409,2,['k'],['k'],Y,,,,M,21
0,97,97,83,2,['d'],['d'],Y,,,,M,21
0,98,98,48,2,['d'],['d'],Y,,,,M,21
0,99,99,113,2,['d'],['d'],Y,,,,M,21
,,,,,,,"41, 9",,,,,
0,100,100,101,3,['d'],['d'],Y,,,,M,21
0,101,101,458,3,['k'],['k'],Y,,,,M,21
0,102,102,245,3,['k'],['d'],N,,,,M,21
0,103,103,56,3,['d'],['d'],Y,,,,M,21
0,104,104,359,3,['k'],['k'],Y,,,,M,21
0,105,105,416,3,['k'],['k'],Y,,,,M,21
0,106,106,488,3,['k'],['k'],Y,,,,M,21
0,107,107,110,3,['d'],['d'],Y,,,,M,21
0,108,108,547,3,['k'],['k'],Y,,,,M,21
0,109,109,496,3,['k'],['k'],Y,,,,M,21
0,110,110,513,3,['k'],['k'],Y,,,,M,21
0,111,111,307,3,['k'],['k'],Y,,,,M,21
0,112,112,532,3,['k'],['k'],Y,,,,M,21
0,113,113,481,3,['d'],['k'],N,,,,M,21
0,114,114,358,3,['k'],['k'],Y,,,,M,21
0,115,115,257,3,['d'],['d'],Y,,,,M,21
0,116,116,315,3,['k'],['k'],Y,,,,M,21
0,117,117,459,3,['k'],['k'],Y,,,,M,21
0,118,118,53,3,['d'],['d'],Y,,,,M,21
0,119,119,423,3,['d'],['k'],N,,,,M,21
0,120,120,111,3,['d'],['d'],Y,,,,M,21
0,121,121,551,3,['k'],['k'],Y,,,,M,21
0,122,122,545,3,['k'],['k'],Y,,,,M,21
0,123,123,331,3,['d'],['k'],N,,,,M,21
0,124,124,330,3,['k'],['k'],Y,,,,M,21
0,125,125,478,3,['k'],['k'],Y,,,,M,21
0,126,126,160,3,['d'],['d'],Y,,,,M,21
0,127,127,130,3,['d'],['d'],Y,,,,M,21
0,128,128,281,3,['d'],['d'],Y,,,,M,21
0,129,129,526,3,['k'],['k'],Y,,,,M,21
0,130,130,193,3,['d'],['d'],Y,,,,M,21
0,131,131,90,3,['d'],['d'],Y,,,,M,21
0,132,132,518,3,['k'],['k'],Y,,,,M,21
0,133,133,177,3,['d'],['d'],Y,,,,M,21
0,134,134,31,3,['k'],['d'],N,,,,M,21
0,135,135,112,3,['d'],['d'],Y,,,,M,21
0,136,136,530,3,['k'],['k'],Y,,,,M,21
0,137,137,368,3,['k'],['k'],Y,,,,M,21
0,138,138,564,3,['k'],['k'],Y,,,,M,21
0,139,139,49,3,['d'],['d'],Y,,,,M,21
0,140,140,148,3,['k'],['d'],N,,,,M,21
0,141,141,599,3,['k'],['k'],Y,,,,M,21
0,142,142,529,3,['k'],['k'],Y,,,,M,21
0,143,143,595,3,['k'],['k'],Y,,,,M,21
0,144,144,375,3,['k'],['k'],Y,,,,M,21
0,145,145,398,3,['d'],['k'],N,,,,M,21
0,146,146,236,3,['d'],['d'],Y,,,,M,21
0,147,147,229,3,['k'],['d'],N,,,,M,21
0,148,148,304,3,['d'],['k'],N,,,,M,21
0,149,149,425,3,['k'],['k'],Y,,,,M,21
,,,,,,,"41, 9",,,,,
0,150,150,354,4,['k'],['k'],Y,,,,M,21
0,151,151,469,4,['d'],['k'],N,,,,M,21
0,152,152,462,4,['k'],['k'],Y,,,,M,21
0,153,153,559,4,['d'],['k'],N,,,,M,21
0,154,154,482,4,['d'],['k'],N,,,,M,21
0,155,155,382,4,['k'],['k'],Y,,,,M,21
0,156,156,106,4,['d'],['d'],Y,,,,M,21
0,157,157,305,4,['k'],['k'],Y,,,,M,21
0,158,158,313,4,['k'],['k'],Y,,,,M,21
0,159,159,151,4,['d'],['d'],Y,,,,M,21
0,160,160,338,4,['k'],['k'],Y,,,,M,21
0,161,161,173,4,['d'],['d'],Y,,,,M,21
0,162,162,216,4,['d'],['d'],Y,,,,M,21
0,163,163,238,4,['d'],['d'],Y,,,,M,21
0,164,164,137,4,['d'],['d'],Y,,,,M,21
0,165,165,9,4,['k'],['d'],N,,,,M,21
0,166,166,347,4,['d'],['k'],N,,,,M,21
0,167,167,566,4,['k'],['k'],Y,,,,M,21
0,168,168,384,4,['k'],['k'],Y,,,,M,21
0,169,169,340,4,['k'],['k'],Y,,,,M,21
0,170,170,404,4,['k'],['k'],Y,,,,M,21
0,171,171,351,4,['k'],['k'],Y,,,,M,21
0,172,172,159,4,['d'],['d'],Y,,,,M,21
0,173,173,392,4,['k'],['k'],Y,,,,M,21
0,174,174,585,4,['d'],['k'],N,,,,M,21
0,175,175,3,4,['d'],['d'],Y,,,,M,21
0,176,176,346,4,['k'],['k'],Y,,,,M,21
0,177,177,348,4,['d'],['k'],N,,,,M,21
0,178,178,269,4,['d'],['d'],Y,,,,M,21
0,179,179,262,4,['d'],['d'],Y,,,,M,21
0,180,180,356,4,['d'],['k'],N,,,,M,21
0,181,181,422,4,['k'],['k'],Y,,,,M,21
0,182,182,157,4,['d'],['d'],Y,,,,M,21
0,183,183,278,4,['d'],['d'],Y,,,,M,21
0,184,184,471,4,['k'],['k'],Y,,,,M,21
0,185,185,543,4,['k'],['k'],Y,,,,M,21
0,186,186,520,4,['k'],['k'],Y,,,,M,21
0,187,187,1,4,['d'],['d'],Y,,,,M,21
0,188,188,355,4,['k'],['k'],Y,,,,M,21
0,189,189,553,4,['k'],['k'],Y,,,,M,21
0,190,190,144,4,['d'],['d'],Y,,,,M,21
0,191,191,184,4,['d'],['d'],Y,,,,M,21
0,192,192,577,4,['k'],['k'],Y,,,,M,21
0,193,193,94,4,['d'],['d'],Y,,,,M,21
0,194,194,537,4,['k'],['k'],Y,,,,M,21
0,195,195,96,4,['k'],['d'],N,,,,M,21
0,196,196,267,4,['k'],['d'],N,,,,M,21
0,197,197,539,4,['k'],['k'],Y,,,,M,21
0,198,198,430,4,['d'],['k'],N,,,,M,21
0,199,199,413,4,['k'],['k'],Y,,,,M,21
,,,,,,,"39, 11",,,,,
0,200,200,289,5,['k'],['d'],N,,,,M,21
0,201,201,73,5,['d'],['d'],Y,,,,M,21
0,202,202,453,5,['k'],['k'],Y,,,,M,21
0,203,203,302,5,['k'],['k'],Y,,,,M,21
0,204,204,308,5,['k'],['k'],Y,,,,M,21
0,205,205,36,5,['d'],['d'],Y,,,,M,21
0,206,206,401,5,['k'],['k'],Y,,,,M,21
0,207,207,230,5,['d'],['d'],Y,,,,M,21
0,208,208,118,5,['d'],['d'],Y,,,,M,21
0,209,209,52,5,['d'],['d'],Y,,,,M,21
0,210,210,33,5,['d'],['d'],Y,,,,M,21
0,211,211,183,5,['d'],['d'],Y,,,,M,21
0,212,212,584,5,['k'],['k'],Y,,,,M,21
0,213,213,190,5,['d'],['d'],Y,,,,M,21
0,214,214,191,5,['d'],['d'],Y,,,,M,21
0,215,215,317,5,['k'],['k'],Y,,,,M,21
0,216,216,385,5,['d'],['k'],N,,,,M,21
0,217,217,325,5,['k'],['k'],Y,,,,M,21
0,218,218,552,5,['k'],['k'],Y,,,,M,21
0,219,219,165,5,['d'],['d'],Y,,,,M,21
0,220,220,10,5,['d'],['d'],Y,,,,M,21
0,221,221,486,5,['k'],['k'],Y,,,,M,21
0,222,222,280,5,['k'],['d'],N,,,,M,21
0,223,223,67,5,['k'],['d'],N,,,,M,21
0,224,224,390,5,['k'],['k'],Y,,,,M,21
0,225,225,228,5,['d'],['d'],Y,,,,M,21
0,226,226,591,5,['k'],['k'],Y,,,,M,21
0,227,227,231,5,['k'],['d'],N,,,,M,21
0,228,228,26,5,['d'],['d'],Y,,,,M,21
0,229,229,282,5,['d'],['d'],Y,,,,M,21
0,230,230,116,5,['d'],['d'],Y,,,,M,21
0,231,231,247,5,['d'],['d'],Y,,,,M,21
0,232,232,445,5,['k'],['k'],Y,,,,M,21
0,233,233,511,5,['k'],['k'],Y,,,,M,21
0,234,234,174,5,['d'],['d'],Y,,,,M,21
0,235,235,117,5,['d'],['d'],Y,,,,M,21
0,236,236,535,5,['k'],['k'],Y,,,,M,21
0,237,237,201,5,['d'],['d'],Y,,,,M,21
0,238,238,170,5,['d'],['d'],Y,,,,M,21
0,239,239,205,5,['k'],['d'],N,,,,M,21
0,240,240,322,5,['k'],['k'],Y,,,,M,21
0,241,241,318,5,['k'],['k'],Y,,,,M,21
0,242,242,178,5,['d'],['d'],Y,,,,M,21
0,243,243,81,5,['d'],['d'],Y,,,,M,21
0,244,244,397,5,['k'],['k'],Y,,,,M,21
0,245,245,272,5,['d'],['d'],Y,,,,M,21
0,246,246,227,5,['d'],['d'],Y,,,,M,21
0,247,247,465,5,['k'],['k'],Y,,,,M,21
0,248,248,475,5,['k'],['k'],Y,,,,M,21
0,249,249,207,5,['d'],['d'],Y,,,,M,21
,,,,,,,"44, 6",,,,,
0,250,250,433,6,['k'],['k'],Y,,,,M,21
0,251,251,300,6,['k'],['k'],Y,,,,M,21
0,252,252,377,6,['d'],['k'],N,,,,M,21
0,253,253,222,6,['d'],['d'],Y,,,,M,21
0,254,254,523,6,['k'],['k'],Y,,,,M,21
0,255,255,367,6,['k'],['k'],Y,,,,M,21
0,256,256,400,6,['k'],['k'],Y,,,,M,21
0,257,257,449,6,['d'],['k'],N,,,,M,21
0,258,258,92,6,['d'],['d'],Y,,,,M,21
0,259,259,569,6,['k'],['k'],Y,,,,M,21
0,260,260,316,6,['k'],['k'],Y,,,,M,21
0,261,261,142,6,['d'],['d'],Y,,,,M,21
0,262,262,473,6,['d'],['k'],N,,,,M,21
0,263,263,4,6,['d'],['d'],Y,,,,M,21
0,264,264,181,6,['d'],['d'],Y,,,,M,21
0,265,265,507,6,['k'],['k'],Y,,,,M,21
0,266,266,418,6,['k'],['k'],Y,,,,M,21
0,267,267,534,6,['k'],['k'],Y,,,,M,21
0,268,268,557,6,['d'],['k'],N,,,,M,21
0,269,269,70,6,['k'],['d'],N,,,,M,21
0,270,270,440,6,['d'],['k'],N,,,,M,21
0,271,271,198,6,['k'],['d'],N,,,,M,21
0,272,272,15,6,['d'],['d'],Y,,,,M,21
0,273,273,89,6,['d'],['d'],Y,,,,M,21
0,274,274,389,6,['k'],['k'],Y,,,,M,21
0,275,275,509,6,['k'],['k'],Y,,,,M,21
0,276,276,542,6,['k'],['k'],Y,,,,M,21
0,277,277,594,6,['d'],['k'],N,,,,M,21
0,278,278,489,6,['k'],['k'],Y,,,,M,21
0,279,279,210,6,['d'],['d'],Y,,,,M,21
0,280,280,479,6,['d'],['k'],N,,,,M,21
0,281,281,589,6,['k'],['k'],Y,,,,M,21
0,282,282,16,6,['d'],['d'],Y,,,,M,21
0,283,283,241,6,['d'],['d'],Y,,,,M,21
0,284,284,448,6,['k'],['k'],Y,,,,M,21
0,285,285,258,6,['d'],['d'],Y,,,,M,21
0,286,286,115,6,['d'],['d'],Y,,,,M,21
0,287,287,343,6,['k'],['k'],Y,,,,M,21
0,288,288,194,6,['d'],['d'],Y,,,,M,21
0,289,289,223,6,['k'],['d'],N,,,,M,21
0,290,290,406,6,['k'],['k'],Y,,,,M,21
0,291,291,309,6,['k'],['k'],Y,,,,M,21
0,292,292,259,6,['d'],['d'],Y,,,,M,21
0,293,293,427,6,['k'],['k'],Y,,,,M,21
0,294,294,163,6,['d'],['d'],Y,,,,M,21
0,295,295,327,6,['k'],['k'],Y,,,,M,21
0,296,296,369,6,['k'],['k'],Y,,,,M,21
0,297,297,39,6,['d'],['d'],Y,,,,M,21
0,298,298,410,6,['k'],['k'],Y,,,,M,21
0,299,299,208,6,['k'],['d'],N,,,,M,21
,,,,,,,"39, 11",,,,,
0,300,300,86,7,['d'],['d'],Y,,,,M,21
0,301,301,279,7,['k'],['d'],N,,,,M,21
0,302,302,104,7,['k'],['d'],N,,,,M,21
0,303,303,524,7,['d'],['k'],N,,,,M,21
0,304,304,260,7,['k'],['d'],N,,,,M,21
0,305,305,550,7,['k'],['k'],Y,,,,M,21
0,306,306,273,7,['k'],['d'],N,,,,M,21
0,307,307,292,7,['d'],['d'],Y,,,,M,21
0,308,308,474,7,['k'],['k'],Y,,,,M,21
0,309,309,417,7,['k'],['k'],Y,,,,M,21
0,310,310,136,7,['d'],['d'],Y,,,,M,21
0,311,311,431,7,['k'],['k'],Y,,,,M,21
0,312,312,403,7,['k'],['k'],Y,,,,M,21
0,313,313,321,7,['k'],['k'],Y,,,,M,21
0,314,314,295,7,['d'],['d'],Y,,,,M,21
0,315,315,483,7,['k'],['k'],Y,,,,M,21
0,316,316,43,7,['d'],['d'],Y,,,,M,21
0,317,317,59,7,['d'],['d'],Y,,,,M,21
0,318,318,476,7,['k'],['k'],Y,,,,M,21
0,319,319,493,7,['k'],['k'],Y,,,,M,21
0,320,320,586,7,['k'],['k'],Y,,,,M,21
0,321,321,533,7,['d'],['k'],N,,,,M,21
0,322,322,68,7,['d'],['d'],Y,,,,M,21
0,323,323,361,7,['k'],['k'],Y,,,,M,21
0,324,324,299,7,['k'],['d'],N,,,,M,21
0,325,325,246,7,['d'],['d'],Y,,,,M,21
0,326,326,428,7,['k'],['k'],Y,,,,M,21
0,327,327,149,7,['d'],['d'],Y,,,,M,21
0,328,328,242,7,['d'],['d'],Y,,,,M,21
0,329,329,371,7,['k'],['k'],Y,,,,M,21
0,330,330,197,7,['k'],['d'],N,,,,M,21
0,331,331,139,7,['d'],['d'],Y,,,,M,21
0,332,332,487,7,['k'],['k'],Y,,,,M,21
0,333,333,290,7,['d'],['d'],Y,,,,M,21
0,334,334,69,7,['d'],['d'],Y,,,,M,21
0,335,335,339,7,['k'],['k'],Y,,,,M,21
0,336,336,405,7,['d'],['k'],N,,,,M,21
0,337,337,122,7,['d'],['d'],Y,,,,M,21
0,338,338,370,7,['k'],['k'],Y,,,,M,21
0,339,339,275,7,['d'],['d'],Y,,,,M,21
0,340,340,590,7,['d'],['k'],N,,,,M,21
0,341,341,414,7,['k'],['k'],Y,,,,M,21
0,342,342,213,7,['d'],['d'],Y,,,,M,21
0,343,343,555,7,['d'],['k'],N,,,,M,21
0,344,344,492,7,['k'],['k'],Y,,,,M,21
0,345,345,442,7,['k'],['k'],Y,,,,M,21
0,346,346,565,7,['k'],['k'],Y,,,,M,21
0,347,347,7,7,['d'],['d'],Y,,,,M,21
0,348,348,352,7,['k'],['k'],Y,,,,M,21
0,349,349,349,7,['k'],['k'],Y,,,,M,21
,,,,,,,"39, 11",,,,,
0,350,350,310,8,['k'],['k'],Y,,,,M,21
0,351,351,480,8,['k'],['k'],Y,,,,M,21
0,352,352,558,8,['k'],['k'],Y,,,,M,21
0,353,353,256,8,['d'],['d'],Y,,,,M,21
0,354,354,254,8,['d'],['d'],Y,,,,M,21
0,355,355,200,8,['d'],['d'],Y,,,,M,21
0,356,356,6,8,['d'],['d'],Y,,,,M,21
0,357,357,2,8,['d'],['d'],Y,,,,M,21
0,358,358,168,8,['d'],['d'],Y,,,,M,21
0,359,359,314,8,['k'],['k'],Y,,,,M,21
0,360,360,563,8,['k'],['k'],Y,,,,M,21
0,361,361,76,8,['d'],['d'],Y,,,,M,21
0,362,362,337,8,['k'],['k'],Y,,,,M,21
0,363,363,46,8,['k'],['d'],N,,,,M,21
0,364,364,562,8,['d'],['k'],N,,,,M,21
0,365,365,145,8,['d'],['d'],Y,,,,M,21
0,366,366,443,8,['k'],['k'],Y,,,,M,21
0,367,367,461,8,['k'],['k'],Y,,,,M,21
0,368,368,97,8,['d'],['d'],Y,,,,M,21
0,369,369,237,8,['d'],['d'],Y,,,,M,21
0,370,370,38,8,['d'],['d'],Y,,,,M,21
0,371,371,332,8,['k'],['k'],Y,,,,M,21
0,372,372,166,8,['d'],['d'],Y,,,,M,21
0,373,373,497,8,['k'],['k'],Y,,,,M,21
0,374,374,87,8,['d'],['d'],Y,,,,M,21
0,375,375,464,8,['k'],['k'],Y,,,,M,21
0,376,376,578,8,['k'],['k'],Y,,,,M,21
0,377,377,203,8,['d'],['d'],Y,,,,M,21
0,378,378,323,8,['k'],['k'],Y,,,,M,21
0,379,379,226,8,['d'],['d'],Y,,,,M,21
0,380,380,284,8,['k'],['d'],N,,,,M,21
0,381,381,399,8,['k'],['k'],Y,,,,M,21
0,382,382,271,8,['d'],['d'],Y,,,,M,21
0,383,383,554,8,['d'],['k'],N,,,,M,21
0,384,384,156,8,['d'],['d'],Y,,,,M,21
0,385,385,212,8,['d'],['d'],Y,,,,M,21
0,386,386,175,8,['d'],['d'],Y,,,,M,21
0,387,387,18,8,['d'],['d'],Y,,,,M,21
0,388,388,141,8,['k'],['d'],N,,,,M,21
0,389,389,30,8,['k'],['d'],N,,,,M,21
0,390,390,411,8,['d'],['k'],N,,,,M,21
0,391,391,13,8,['d'],['d'],Y,,,,M,21
0,392,392,598,8,['k'],['k'],Y,,,,M,21
0,393,393,72,8,['d'],['d'],Y,,,,M,21
0,394,394,362,8,['d'],['k'],N,,,,M,21
0,395,395,209,8,['d'],['d'],Y,,,,M,21
0,396,396,583,8,['k'],['k'],Y,,,,M,21
0,397,397,120,8,['d'],['d'],Y,,,,M,21
0,398,398,490,8,['d'],['k'],N,,,,M,21
0,399,399,61,8,['d'],['d'],Y,,,,M,21
,,,,,,,"41, 9",,,,,
0,400,400,123,9,['d'],['d'],Y,,,,M,21
0,401,401,126,9,['d'],['d'],Y,,,,M,21
0,402,402,185,9,['d'],['d'],Y,,,,M,21
0,403,403,328,9,['k'],['k'],Y,,,,M,21
0,404,404,582,9,['k'],['k'],Y,,,,M,21
0,405,405,224,9,['d'],['d'],Y,,,,M,21
0,406,406,37,9,['d'],['d'],Y,,,,M,21
0,407,407,447,9,['d'],['k'],N,,,,M,21
0,408,408,50,9,['d'],['d'],Y,,,,M,21
0,409,409,44,9,['d'],['d'],Y,,,,M,21
0,410,410,74,9,['d'],['d'],Y,,,,M,21
0,411,411,189,9,['d'],['d'],Y,,,,M,21
0,412,412,161,9,['d'],['d'],Y,,,,M,21
0,413,413,568,9,['k'],['k'],Y,,,,M,21
0,414,414,519,9,['k'],['k'],Y,,,,M,21
0,415,415,381,9,['d'],['k'],N,,,,M,21
0,416,416,85,9,['d'],['d'],Y,,,,M,21
0,417,417,8,9,['d'],['d'],Y,,,,M,21
0,418,418,508,9,['k'],['k'],Y,,,,M,21
0,419,419,294,9,['d'],['d'],Y,,,,M,21
0,420,420,239,9,['d'],['d'],Y,,,,M,21
0,421,421,105,9,['d'],['d'],Y,,,,M,21
0,422,422,99,9,['d'],['d'],Y,,,,M,21
0,423,423,0,9,['d'],['d'],Y,,,,M,21
0,424,424,412,9,['k'],['k'],Y,,,,M,21
0,425,425,466,9,['k'],['k'],Y,,,,M,21
0,426,426,291,9,['d'],['d'],Y,,,,M,21
0,427,427,306,9,['k'],['k'],Y,,,,M,21
0,428,428,576,9,['k'],['k'],Y,,,,M,21
0,429,429,360,9,['k'],['k'],Y,,,,M,21
0,430,430,143,9,['d'],['d'],Y,,,,M,21
0,431,431,266,9,['d'],['d'],Y,,,,M,21
0,432,432,283,9,['d'],['d'],Y,,,,M,21
0,433,433,140,9,['d'],['d'],Y,,,,M,21
0,434,434,285,9,['d'],['d'],Y,,,,M,21
0,435,435,326,9,['k'],['k'],Y,,,,M,21
0,436,436,296,9,['d'],['d'],Y,,,,M,21
0,437,437,457,9,['k'],['k'],Y,,,,M,21
0,438,438,215,9,['d'],['d'],Y,,,,M,21
0,439,439,146,9,['d'],['d'],Y,,,,M,21
0,440,440,57,9,['d'],['d'],Y,,,,M,21
0,441,441,102,9,['d'],['d'],Y,,,,M,21
0,442,442,477,9,['k'],['k'],Y,,,,M,21
0,443,443,109,9,['d'],['d'],Y,,,,M,21
0,444,444,336,9,['k'],['k'],Y,,,,M,21
0,445,445,225,9,['d'],['d'],Y,,,,M,21
0,446,446,171,9,['d'],['d'],Y,,,,M,21
0,447,447,263,9,['d'],['d'],Y,,,,M,21
0,448,448,379,9,['k'],['k'],Y,,,,M,21
0,449,449,597,9,['d'],['k'],N,,,,M,21
,,,,,,,"47, 3",,,,,
0,450,450,495,10,['k'],['k'],Y,,,,M,21
0,451,451,541,10,['d'],['k'],N,,,,M,21
0,452,452,426,10,['d'],['k'],N,,,,M,21
0,453,453,71,10,['d'],['d'],Y,,,,M,21
0,454,454,253,10,['d'],['d'],Y,,,,M,21
0,455,455,580,10,['k'],['k'],Y,,,,M,21
0,456,456,135,10,['d'],['d'],Y,,,,M,21
0,457,457,364,10,['k'],['k'],Y,,,,M,21
0,458,458,499,10,['k'],['k'],Y,,,,M,21
0,459,459,357,10,['k'],['k'],Y,,,,M,21
0,460,460,525,10,['d'],['k'],N,,,,M,21
0,461,461,82,10,['d'],['d'],Y,,,,M,21
0,462,462,484,10,['d'],['k'],N,,,,M,21
0,463,463,220,10,['d'],['d'],Y,,,,M,21
0,464,464,40,10,['d'],['d'],Y,,,,M,21
0,465,465,421,10,['d'],['k'],N,,,,M,21
0,466,466,503,10,['d'],['k'],N,,,,M,21
0,467,467,232,10,['d'],['d'],Y,,,,M,21
0,468,468,470,10,['d'],['k'],N,,,,M,21
0,469,469,312,10,['k'],['k'],Y,,,,M,21
0,470,470,124,10,['d'],['d'],Y,,,,M,21
0,471,471,472,10,['k'],['k'],Y,,,,M,21
0,472,472,188,10,['d'],['d'],Y,,,,M,21
0,473,473,452,10,['d'],['k'],N,,,,M,21
0,474,474,344,10,['k'],['k'],Y,,,,M,21
0,475,475,407,10,['k'],['k'],Y,,,,M,21
0,476,476,202,10,['d'],['d'],Y,,,,M,21
0,477,477,527,10,['k'],['k'],Y,,,,M,21
0,478,478,11,10,['k'],['d'],N,,,,M,21
0,479,479,572,10,['d'],['k'],N,,,,M,21
0,480,480,270,10,['d'],['d'],Y,,,,M,21
0,481,481,22,10,['d'],['d'],Y,,,,M,21
0,482,482,574,10,['k'],['k'],Y,,,,M,21
0,483,483,154,10,['d'],['d'],Y,,,,M,21
0,484,484,108,10,['d'],['d'],Y,,,,M,21
0,485,485,21,10,['k'],['d'],N,,,,M,21
0,486,486,114,10,['d'],['d'],Y,,,,M,21
0,487,487,176,10,['d'],['d'],Y,,,,M,21
0,488,488,391,10,['k'],['k'],Y,,,,M,21
0,489,489,556,10,['k'],['k'],Y,,,,M,21
0,490,490,35,10,['d'],['d'],Y,,,,M,21
0,491,491,100,10,['d'],['d'],Y,,,,M,21
0,492,492,498,10,['k'],['k'],Y,,,,M,21
0,493,493,214,10,['k'],['d'],N,,,,M,21
0,494,494,350,10,['k'],['k'],Y,,,,M,21
0,495,495,128,10,['d'],['d'],Y,,,,M,21
0,496,496,441,10,['k'],['k'],Y,,,,M,21
0,497,497,549,10,['d'],['k'],N,,,,M,21
0,498,498,206,10,['d'],['d'],Y,,,,M,21
0,499,499,396,10,['k'],['k'],Y,,,,M,21
,,,,,,,"37, 13",,,,,
0,500,500,514,11,['d'],['k'],Y,Y,Y,Y,M,21
0,501,501,432,11,['k'],['k'],N,,Y,Y,M,21
0,502,502,424,11,['d'],['k'],Y,,Y,Y,M,21
0,503,503,538,11,['k'],['k'],N,,Y,Y,M,21
0,504,504,78,11,['k'],['d'],Y,,Y,Y,M,21
0,505,505,450,11,['d'],['k'],Y,,Y,Y,M,21
0,506,506,429,11,['k'],['k'],N,,Y,Y,M,21
0,507,507,592,11,['d'],['k'],Y,,Y,Y,M,21
0,508,508,540,11,None,,Timed out,,Y,Y,M,21
0,509,509,333,11,['d'],['k'],Y,,Y,Y,M,21
0,510,510,199,11,['d'],['d'],N,,Y,Y,M,21
0,511,511,286,11,['d'],['d'],N,,Y,Y,M,21
0,512,512,150,11,['d'],['d'],N,,Y,Y,M,21
0,513,513,395,11,['k'],['k'],N,,Y,Y,M,21
0,514,514,570,11,['d'],['k'],Y,,Y,Y,M,21
0,515,515,575,11,['d'],['k'],Y,,Y,Y,M,21
0,516,516,455,11,['d'],['k'],Y,,Y,Y,M,21
0,517,517,121,11,['k'],['d'],Y,,Y,Y,M,21
0,518,518,288,11,['d'],['d'],N,,Y,Y,M,21
0,519,519,27,11,['k'],['d'],Y,,Y,Y,M,21
0,520,520,32,11,['d'],['d'],N,,Y,Y,M,21
0,521,521,528,11,['d'],['k'],Y,,Y,Y,M,21
0,522,522,80,11,['k'],['d'],Y,,Y,Y,M,21
0,523,523,353,11,['d'],['k'],Y,,Y,Y,M,21
0,524,524,500,11,['d'],['k'],Y,,Y,Y,M,21
0,525,525,420,11,['k'],['k'],N,,Y,Y,M,21
0,526,526,451,11,['k'],['k'],N,,Y,Y,M,21
0,527,527,169,11,['k'],['d'],Y,,Y,Y,M,21
0,528,528,388,11,['d'],['k'],Y,,Y,Y,M,21
0,529,529,211,11,['k'],['d'],Y,,Y,Y,M,21
0,530,530,378,11,['d'],['k'],Y,,Y,Y,M,21
0,531,531,468,11,['k'],['k'],N,,Y,Y,M,21
0,532,532,62,11,['k'],['d'],Y,,Y,Y,M,21
0,533,533,501,11,['d'],['k'],Y,,Y,Y,M,21
0,534,534,93,11,['k'],['d'],Y,,Y,Y,M,21
0,535,535,438,11,['d'],['k'],Y,,Y,Y,M,21
0,536,536,233,11,['k'],['d'],Y,,Y,Y,M,21
0,537,537,127,11,['k'],['d'],Y,,Y,Y,M,21
0,538,538,408,11,['k'],['k'],N,,Y,Y,M,21
0,539,539,335,11,['d'],['k'],Y,,Y,Y,M,21
0,540,540,383,11,['d'],['k'],Y,,Y,Y,M,21
0,541,541,182,11,['k'],['d'],Y,,Y,Y,M,21
0,542,542,24,11,['k'],['d'],Y,,Y,Y,M,21
0,543,543,516,11,['k'],['k'],N,,Y,Y,M,21
0,544,544,91,11,['k'],['d'],Y,,Y,Y,M,21
0,545,545,252,11,['k'],['d'],Y,,Y,Y,M,21
0,546,546,58,11,['k'],['d'],Y,,Y,Y,M,21
0,547,547,248,11,['k'],['d'],Y,,Y,Y,M,21
0,548,548,505,11,['d'],['k'],Y,,Y,Y,M,21
0,549,549,531,11,['k'],['k'],N,,Y,Y,M,21
,,,,,,,"34, 15 wrong, 1 timed out",,,,,
0,550,550,512,12,['d'],['k'],Y,,Y,Y,M,21
0,551,551,460,12,['d'],['k'],Y,,Y,Y,M,21
0,552,552,218,12,['k'],['d'],Y,,Y,Y,M,21
0,553,553,244,12,['k'],['d'],Y,,Y,Y,M,21
0,554,554,158,12,['k'],['d'],Y,,Y,Y,M,21
0,555,555,162,12,['d'],['d'],N,,Y,Y,M,21
0,556,556,204,12,['d'],['d'],N,,Y,Y,M,21
0,557,557,261,12,['k'],['d'],Y,,Y,Y,M,21
0,558,558,20,12,['k'],['d'],Y,,Y,Y,M,21
0,559,559,14,12,['k'],['d'],Y,,Y,Y,M,21
0,560,560,456,12,['d'],['k'],Y,,Y,Y,M,21
0,561,561,42,12,['k'],['d'],Y,,Y,Y,M,21
0,562,562,28,12,['k'],['d'],Y,,Y,Y,M,21
0,563,563,132,12,['k'],['d'],Y,,Y,Y,M,21
0,564,564,249,12,['d'],['d'],N,,Y,Y,M,21
0,565,565,345,12,['d'],['k'],Y,,Y,Y,M,21
0,566,566,25,12,['k'],['d'],Y,,Y,Y,M,21
0,567,567,98,12,['k'],['d'],Y,,Y,Y,M,21
0,568,568,593,12,['k'],['k'],N,,Y,Y,M,21
0,569,569,45,12,['k'],['d'],Y,,Y,Y,M,21
0,570,570,544,12,['d'],['k'],Y,,Y,Y,M,21
0,571,571,34,12,['k'],['d'],Y,,Y,Y,M,21
0,572,572,19,12,['k'],['d'],Y,,Y,Y,M,21
0,573,573,502,12,['d'],['k'],Y,,Y,Y,M,21
0,574,574,293,12,['k'],['d'],Y,,Y,Y,M,21
0,575,575,41,12,['d'],['d'],N,,Y,Y,M,21
0,576,576,172,12,['d'],['d'],N,,Y,Y,M,21
0,577,577,439,12,['d'],['k'],Y,,Y,Y,M,21
0,578,578,491,12,['d'],['k'],Y,,Y,Y,M,21
0,579,579,437,12,['d'],['k'],Y,,Y,Y,M,21
0,580,580,517,12,['k'],['k'],N,,Y,Y,M,21
0,581,581,365,12,['d'],['k'],Y,,Y,Y,M,21
0,582,582,179,12,['k'],['d'],Y,,Y,Y,M,21
0,583,583,47,12,['k'],['d'],Y,,Y,Y,M,21
0,584,584,95,12,['d'],['d'],N,,Y,Y,M,21
0,585,585,196,12,['k'],['d'],Y,,Y,Y,M,21
0,586,586,494,12,['k'],['k'],N,,Y,Y,M,21
0,587,587,54,12,['k'],['d'],Y,,Y,Y,M,21
0,588,588,195,12,['d'],['d'],N,,Y,Y,M,21
0,589,589,301,12,['d'],['k'],Y,,Y,Y,M,21
0,590,590,51,12,['k'],['d'],Y,,Y,Y,M,21
0,591,591,324,12,['d'],['k'],Y,,Y,Y,M,21
0,592,592,12,12,['d'],['d'],N,,Y,Y,M,21
0,593,593,560,12,['d'],['k'],Y,,Y,Y,M,21
0,594,594,217,12,['k'],['d'],Y,,Y,Y,M,21
0,595,595,374,12,['d'],['k'],Y,,Y,Y,M,21
0,596,596,548,12,['d'],['k'],Y,,Y,Y,M,21
0,597,597,268,12,['k'],['d'],Y,,Y,Y,M,21
0,598,598,167,12,['d'],['d'],N,,Y,Y,M,21
0,599,599,88,12,['d'],['d'],N,,Y,Y,M,21
,,,,,,,"37, 13",,,,,
