.thisRepN,.thisTrialN,.thisN,.thisIndex,.thisTrial,Block Number,Key pressed,Category,Correct?,Int Match?,Int Response,Int Correct?,Line Accuracy,Interference Accuracy,Matching Interferences,New instruction shown?,Buttons switched?,Fast?,gender,age,
0,0,0,9,9,1,['k'],['k'],Y,,,,,,,,,,male,27,
0,1,1,1,1,1,['k'],['k'],Y,,,,,,,,,,male,27,
0,2,2,7,7,1,['k'],['d'],N,N,None,Y,,,,,,,male,27,
0,3,3,6,6,1,['k'],['k'],Y,Y,['d'],N,,,,,,,male,27,
0,4,4,5,5,1,['k'],['k'],Y,Y,None,N,,,,,,,male,27,
0,5,5,6,6,1,['k'],['k'],Y,Y,['space'],Y,,,,,,,male,27,
0,6,6,4,4,1,['k'],['k'],Y,N,None,Y,,,,,,,male,27,
0,7,7,8,8,1,['d'],['d'],Y,N,None,Y,,,,,,,male,27,
0,8,8,7,7,1,['d'],['d'],Y,Y,['space'],Y,,,,,,,male,27,
0,9,9,5,5,1,['d'],['d'],Y,N,None,Y,,,,,,,male,27,
0,10,10,6,6,1,['d'],['k'],N,Y,['space'],Y,,,,,,,male,27,
1,0,11,1,1,1,['k'],['k'],Y,Y,['space'],Y,,,,,,,male,27,
1,1,12,10,10,1,['d'],['d'],Y,N,None,Y,,,,,,,male,27,
1,2,13,5,5,1,['k'],['d'],N,Y,None,N,,,,,,,male,27,
1,3,14,0,0,1,['d'],['d'],Y,N,None,Y,,,,,,,male,27,
1,4,15,5,5,1,['k'],['d'],N,Y,None,N,,,,,,,male,27,
1,5,16,1,1,1,['d'],['d'],Y,Y,['space'],Y,,,,,,,male,27,
1,6,17,8,8,1,['k'],['k'],Y,Y,['space'],Y,,,,,,,male,27,
1,7,18,10,10,1,['d'],['d'],Y,N,None,Y,,,,,,,male,27,
1,8,19,2,2,1,['k'],['d'],N,N,None,Y,,,,,,,male,27,
1,9,20,1,1,1,['d'],['k'],N,Y,None,N,,,,,,,male,27,
1,10,21,7,7,1,['d'],['d'],Y,Y,None,N,,,,,,,male,27,
2,0,22,7,7,1,['d'],['d'],Y,Y,None,N,,,,,,,male,27,
2,1,23,2,2,1,['k'],['d'],N,N,None,Y,,,,,,,male,27,
2,2,24,1,1,1,['d'],['d'],Y,N,None,Y,,,,,,,male,27,
2,3,25,1,1,1,['k'],['k'],Y,Y,['space'],Y,,,,,,,male,27,
2,4,26,5,5,1,['k'],['k'],Y,N,None,Y,,,,,,,male,27,
2,5,27,0,0,1,['k'],['k'],Y,N,None,Y,,,,,,,male,27,
2,6,28,3,3,1,['k'],['k'],Y,Y,['space'],Y,,,,,,,male,27,
2,7,29,2,2,1,['k'],['k'],Y,Y,None,N,,,,,,,male,27,
2,8,30,7,7,1,['k'],['k'],Y,Y,None,N,,,,,,,male,27,
2,9,31,2,2,1,['k'],['k'],Y,N,None,Y,,,,,,,male,27,
2,10,32,9,9,1,['k'],['k'],Y,Y,['space'],Y,,,,,,,male,27,
3,0,33,2,2,1,['k'],['k'],Y,Y,['space'],Y,,,,,,,male,27,
3,1,34,2,2,1,['d'],['d'],Y,N,None,Y,,,,,,,male,27,
3,2,35,2,2,1,['d'],['d'],Y,N,None,Y,,,,,,,male,27,
3,3,36,9,9,1,['d'],['k'],N,Y,['space'],Y,,,,,,,male,27,
3,4,37,3,3,1,['d'],['d'],Y,Y,['space'],Y,,,,,,,male,27,
3,5,38,5,5,1,['k'],['k'],Y,Y,None,N,,,,,,,male,27,
3,6,39,2,2,1,['d'],['d'],Y,Y,['space'],Y,,,,,,,male,27,
3,7,40,6,6,1,['d'],['d'],Y,Y,['space'],Y,,,,,,,male,27,
3,8,41,9,9,1,['k'],['d'],N,N,None,Y,,,,,,,male,27,
3,9,42,7,7,1,['d'],['d'],Y,Y,['space'],Y,,,,,,,male,27,
3,10,43,4,4,1,['d'],['d'],Y,N,None,Y,,,,,,,male,27,
4,0,44,9,9,1,['k'],['k'],Y,N,None,Y,,,,,,,male,27,
4,1,45,5,5,1,['k'],['k'],Y,N,None,Y,,,,,,,male,27,
4,2,46,1,1,1,['k'],['k'],Y,N,None,Y,,,,,,,male,27,
4,3,47,7,7,1,['k'],['k'],Y,N,None,Y,,,,,,,male,27,
4,4,48,8,8,1,['k'],['d'],N,N,None,Y,,,,,,,male,27,
4,5,49,9,9,1,['d'],['d'],Y,N,None,Y,40,38,25,,,,male,27,
4,6,50,6,6,2,['d'],['d'],Y,,,,,,,,,,male,27,
4,7,51,4,4,2,['k'],['k'],Y,,,,,,,,,,male,27,
4,8,52,6,6,2,['d'],['d'],Y,N,None,Y,,,,,,,male,27,
4,9,53,5,5,2,['k'],['k'],Y,N,None,Y,,,,,,,male,27,
4,10,54,6,6,2,['k'],['k'],Y,Y,None,N,,,,,,,male,27,
5,0,55,9,9,2,['d'],['d'],Y,N,None,Y,,,,,,,male,27,
5,1,56,2,2,2,['k'],['k'],Y,N,None,Y,,,,,,,male,27,
5,2,57,10,10,2,['d'],['d'],Y,Y,['space'],Y,,,,,,,male,27,
5,3,58,4,4,2,['k'],['k'],Y,N,None,Y,,,,,,,male,27,
5,4,59,2,2,2,['k'],['k'],Y,Y,['space'],Y,,,,,,,male,27,
5,5,60,8,8,2,['d'],['d'],Y,N,None,Y,,,,,,,male,27,
5,6,61,9,9,2,['k'],['k'],Y,Y,['space'],Y,,,,,,,male,27,
5,7,62,6,6,2,['d'],['d'],Y,N,None,Y,,,,,,,male,27,
5,8,63,6,6,2,['k'],['d'],N,N,None,Y,,,,,,,male,27,
5,9,64,10,10,2,['k'],['k'],Y,N,None,Y,,,,,,,male,27,
5,10,65,1,1,2,['d'],['k'],N,N,None,Y,,,,,,,male,27,
6,0,66,5,5,2,['d'],['d'],Y,N,None,Y,,,,,,,male,27,
6,1,67,7,7,2,['k'],['k'],Y,Y,['space'],Y,,,,,,,male,27,
6,2,68,2,2,2,['d'],['d'],Y,Y,None,N,,,,,,,male,27,
6,3,69,8,8,2,['k'],['k'],Y,Y,['space'],Y,,,,,,,male,27,
6,4,70,5,5,2,['k'],['k'],Y,N,None,Y,,,,,,,male,27,
6,5,71,4,4,2,['k'],['k'],Y,N,None,Y,,,,,,,male,27,
6,6,72,5,5,2,['k'],['k'],Y,Y,['space'],Y,,,,,,,male,27,
6,7,73,1,1,2,['d'],['d'],Y,Y,None,N,,,,,,,male,27,
6,8,74,3,3,2,['d'],['d'],Y,Y,['space'],Y,,,,,,,male,27,
6,9,75,10,10,2,['d'],['d'],Y,N,None,Y,,,,,,,male,27,
6,10,76,10,10,2,['d'],['d'],Y,Y,['space'],Y,,,,,,,male,27,
7,0,77,0,0,2,['d'],['k'],N,N,None,Y,,,,,,,male,27,
7,1,78,6,6,2,['d'],['d'],Y,N,['space'],N,,,,,,,male,27,
7,2,79,10,10,2,['d'],['d'],Y,Y,['space'],Y,,,,,,,male,27,
7,3,80,0,0,2,['k'],['k'],Y,Y,['space'],Y,,,,,,,male,27,
7,4,81,10,10,2,['k'],['k'],Y,N,None,Y,,,,,,,male,27,
7,5,82,10,10,2,['d'],['k'],N,Y,['space'],Y,,,,,,,male,27,
7,6,83,10,10,2,['d'],['d'],Y,Y,['space'],Y,,,,,,,male,27,
7,7,84,4,4,2,['d'],['d'],Y,Y,['space'],Y,,,,,,,male,27,
7,8,85,8,8,2,['k'],['k'],Y,Y,['space'],Y,,,,,,,male,27,
7,9,86,0,0,2,['k'],['k'],Y,Y,['space'],Y,,,,,,,male,27,
7,10,87,2,2,2,['k'],['k'],Y,N,None,Y,,,,,,,male,27,
8,0,88,1,1,2,['d'],['d'],Y,Y,['space'],Y,,,,,,,male,27,
8,1,89,7,7,2,['d'],['d'],Y,Y,['space'],Y,,,,,,,male,27,
8,2,90,0,0,2,['k'],['k'],Y,Y,['space'],Y,,,,,,,male,27,
8,3,91,0,0,2,['d'],['d'],Y,Y,['space'],Y,,,,,,,male,27,
8,4,92,5,5,2,['k'],['k'],Y,N,None,Y,,,,,,,male,27,
8,5,93,2,2,2,['k'],['k'],Y,Y,['space'],Y,,,,,,,male,27,
8,6,94,9,9,2,['d'],['d'],Y,Y,['space'],Y,,,,,,,male,27,
8,7,95,3,3,2,['k'],['k'],Y,N,None,Y,,,,,,,male,27,
8,8,96,10,10,2,['k'],['d'],N,N,None,Y,,,,,,,male,27,
8,9,97,2,2,2,['d'],['d'],Y,Y,['space'],Y,,,,,,,male,27,
8,10,98,3,3,2,['d'],['d'],Y,N,None,Y,,,,,,,male,27,
9,0,99,6,6,2,['k'],['k'],Y,N,None,Y,45,44,25,,,,male,27,
9,1,100,8,8,3,['d'],['d'],Y,,,,,,,,,,male,27,
9,2,101,3,3,3,['d'],['d'],Y,,,,,,,,,,male,27,
9,3,102,3,3,3,['d'],['d'],Y,Y,['space'],Y,,,,,,,male,27,
9,4,103,0,0,3,['d'],['d'],Y,Y,['space'],Y,,,,,,,male,27,
9,5,104,2,2,3,['k'],['k'],Y,Y,['space'],Y,,,,,,,male,27,
9,6,105,10,10,3,['d'],['d'],Y,N,None,Y,,,,,,,male,27,
9,7,106,8,8,3,['d'],['d'],Y,Y,['space'],Y,,,,,,,male,27,
9,8,107,5,5,3,['k'],['k'],Y,N,None,Y,,,,,,,male,27,
9,9,108,8,8,3,['k'],['k'],Y,N,None,Y,,,,,,,male,27,
9,10,109,0,0,3,['k'],['d'],N,Y,None,N,,,,,,,male,27,
10,0,110,8,8,3,['d'],['d'],Y,Y,['space'],Y,,,,,,,male,27,
10,1,111,0,0,3,['d'],['d'],Y,N,None,Y,,,,,,,male,27,
10,2,112,6,6,3,['k'],['k'],Y,Y,['space'],Y,,,,,,,male,27,
10,3,113,7,7,3,['d'],['d'],Y,Y,['space'],Y,,,,,,,male,27,
10,4,114,4,4,3,['d'],['d'],Y,Y,['space'],Y,,,,,,,male,27,
10,5,115,3,3,3,['k'],['k'],Y,Y,['space'],Y,,,,,,,male,27,
10,6,116,7,7,3,['k'],['k'],Y,N,None,Y,,,,,,,male,27,
10,7,117,8,8,3,['k'],['k'],Y,Y,['space'],Y,,,,,,,male,27,
10,8,118,0,0,3,['k'],['k'],Y,Y,['k'],N,,,,,,,male,27,
10,9,119,9,9,3,['k'],['k'],Y,Y,['space'],Y,,,,,,,male,27,
10,10,120,0,0,3,['d'],['d'],Y,N,None,Y,,,,,,,male,27,
11,0,121,10,10,3,['k'],['k'],Y,Y,['space'],Y,,,,,,,male,27,
11,1,122,5,5,3,['k'],['k'],Y,Y,['space'],Y,,,,,,,male,27,
11,2,123,4,4,3,['k'],['k'],Y,N,None,Y,,,,,,,male,27,
11,3,124,10,10,3,['d'],['d'],Y,Y,['space'],Y,,,,,,,male,27,
11,4,125,1,1,3,['d'],['k'],N,Y,['space'],Y,,,,,,,male,27,
11,5,126,2,2,3,['k'],['d'],N,N,None,Y,,,,,,,male,27,
11,6,127,3,3,3,['d'],['d'],Y,Y,['space'],Y,,,,,,,male,27,
11,7,128,1,1,3,['k'],['d'],N,N,None,Y,,,,,,,male,27,
11,8,129,4,4,3,['d'],['d'],Y,N,None,Y,,,,,,,male,27,
11,9,130,3,3,3,['d'],['d'],Y,Y,['space'],Y,,,,,,,male,27,
11,10,131,6,6,3,['k'],['k'],Y,Y,['space'],Y,,,,,,,male,27,
12,0,132,5,5,3,['d'],['d'],Y,N,None,Y,,,,,,,male,27,
12,1,133,4,4,3,['d'],['d'],Y,Y,['space'],Y,,,,,,,male,27,
12,2,134,1,1,3,['d'],['d'],Y,Y,['space'],Y,,,,,,,male,27,
12,3,135,10,10,3,['k'],['k'],Y,N,None,Y,,,,,,,male,27,
12,4,136,3,3,3,['k'],['k'],Y,Y,['space'],Y,,,,,,,male,27,
12,5,137,0,0,3,['d'],['d'],Y,N,None,Y,,,,,,,male,27,
12,6,138,3,3,3,['k'],['k'],Y,N,None,Y,,,,,,,male,27,
12,7,139,7,7,3,['k'],['k'],Y,N,None,Y,,,,,,,male,27,
12,8,140,9,9,3,['k'],['k'],Y,Y,['space'],Y,,,,,,,male,27,
12,9,141,0,0,3,['d'],['d'],Y,Y,['space'],Y,,,,,,,male,27,
12,10,142,1,1,3,['k'],['k'],Y,N,None,Y,,,,,,,male,27,
13,0,143,7,7,3,['k'],['d'],N,N,None,Y,,,,,,,male,27,
13,1,144,10,10,3,['k'],['d'],N,N,['space'],N,,,,,,,male,27,
13,2,145,6,6,3,['d'],['d'],Y,N,['space'],N,,,,,,,male,27,
13,3,146,10,10,3,['k'],['k'],Y,N,None,Y,,,,,,,male,27,
13,4,147,7,7,3,['d'],['k'],N,N,['space'],N,,,,,,,male,27,
13,5,148,3,3,3,['k'],['k'],Y,N,None,Y,,,,,,,male,27,
13,6,149,2,2,3,['d'],['d'],Y,N,None,Y,43,43,25,,,,male,27,
13,7,150,3,3,4,['k'],['d'],N,,,,,,,,,,male,27,
13,8,151,3,3,4,['k'],['k'],Y,,,,,,,,,,male,27,
13,9,152,7,7,4,['k'],['k'],Y,N,['space'],N,,,,,,,male,27,
13,10,153,7,7,4,['k'],['d'],N,N,None,Y,,,,,,,male,27,
14,0,154,1,1,4,['d'],['k'],N,Y,['space'],Y,,,,,,,male,27,
14,1,155,8,8,4,['k'],['k'],Y,Y,['space'],Y,,,,,,,male,27,
14,2,156,2,2,4,['k'],['k'],Y,Y,['space'],Y,,,,,,,male,27,
14,3,157,2,2,4,['k'],['k'],Y,Y,['space'],Y,,,,,,,male,27,
14,4,158,3,3,4,['d'],['d'],Y,Y,['space'],Y,,,,,,,male,27,
14,5,159,7,7,4,['k'],['k'],Y,Y,['space'],Y,,,,,,,male,27,
14,6,160,0,0,4,['d'],['d'],Y,N,None,Y,,,,,,,male,27,
14,7,161,1,1,4,['k'],['k'],Y,Y,None,N,,,,,,,male,27,
14,8,162,8,8,4,['d'],['d'],Y,N,None,Y,,,,,,,male,27,
14,9,163,8,8,4,['k'],['k'],Y,N,None,Y,,,,,,,male,27,
14,10,164,9,9,4,['k'],['k'],Y,N,None,Y,,,,,,,male,27,
15,0,165,8,8,4,['k'],['k'],Y,Y,['space'],Y,,,,,,,male,27,
15,1,166,10,10,4,['k'],['k'],Y,Y,['space'],Y,,,,,,,male,27,
15,2,167,8,8,4,['d'],['d'],Y,N,None,Y,,,,,,,male,27,
15,3,168,8,8,4,['d'],['d'],Y,N,['space'],N,,,,,,,male,27,
15,4,169,3,3,4,['k'],['k'],Y,Y,['space'],Y,,,,,,,male,27,
15,5,170,0,0,4,['d'],['d'],Y,Y,['space'],Y,,,,,,,male,27,
15,6,171,9,9,4,['d'],['d'],Y,Y,['space'],Y,,,,,,,male,27,
15,7,172,0,0,4,['k'],['k'],Y,N,None,Y,,,,,,,male,27,
15,8,173,8,8,4,['k'],['k'],Y,Y,['space'],Y,,,,,,,male,27,
15,9,174,10,10,4,['d'],['d'],Y,Y,['space'],Y,,,,,,,male,27,
15,10,175,0,0,4,['k'],['k'],Y,Y,['space'],Y,,,,,,,male,27,
16,0,176,5,5,4,['d'],['d'],Y,Y,['space'],Y,,,,,,,male,27,
16,1,177,0,0,4,['k'],['k'],Y,N,None,Y,,,,,,,male,27,
16,2,178,4,4,4,['d'],['d'],Y,N,None,Y,,,,,,,male,27,
16,3,179,2,2,4,['k'],['k'],Y,Y,['space'],Y,,,,,,,male,27,
16,4,180,4,4,4,['k'],['d'],N,Y,['space'],Y,,,,,,,male,27,
16,5,181,0,0,4,['k'],['k'],Y,Y,['space'],Y,,,,,,,male,27,
16,6,182,5,5,4,['k'],['k'],Y,Y,['space'],Y,,,,,,,male,27,
16,7,183,3,3,4,['d'],['d'],Y,N,None,Y,,,,,,,male,27,
16,8,184,0,0,4,['d'],['d'],Y,Y,['space'],Y,,,,,,,male,27,
16,9,185,0,0,4,['k'],['k'],Y,Y,['space'],Y,,,,,,,male,27,
16,10,186,5,5,4,['k'],['k'],Y,Y,['space'],Y,,,,,,,male,27,
17,0,187,9,9,4,['k'],['k'],Y,Y,['space'],Y,,,,,,,male,27,
17,1,188,2,2,4,['k'],['d'],N,N,None,Y,,,,,,,male,27,
17,2,189,8,8,4,['k'],['k'],Y,N,None,Y,,,,,,,male,27,
17,3,190,10,10,4,['k'],['k'],Y,Y,['space'],Y,,,,,,,male,27,
17,4,191,5,5,4,['k'],['k'],Y,N,None,Y,,,,,,,male,27,
17,5,192,2,2,4,['k'],['k'],Y,N,None,Y,,,,,,,male,27,
17,6,193,5,5,4,['k'],['d'],N,N,None,Y,,,,,,,male,27,
17,7,194,4,4,4,['d'],['d'],Y,N,['space'],N,,,,,,,male,27,
17,8,195,3,3,4,['d'],['d'],Y,N,['space'],N,,,,,,,male,27,
17,9,196,8,8,4,['d'],['d'],Y,N,None,Y,,,,,,,male,27,
17,10,197,5,5,4,['k'],['k'],Y,N,None,Y,,,,,,,male,27,
18,0,198,5,5,4,['k'],['k'],Y,N,['space'],N,,,,,,,male,27,
18,1,199,4,4,4,['k'],['k'],Y,N,None,Y,44,42,25,,,,male,27,
18,2,200,4,4,5,['d'],['d'],Y,,,,,,,,,,male,27,
18,3,201,7,7,5,['d'],['d'],Y,,,,,,,,,,male,27,
18,4,202,4,4,5,['k'],['k'],Y,Y,None,N,,,,,,,male,27,
18,5,203,1,1,5,['d'],['d'],Y,N,None,Y,,,,,,,male,27,
18,6,204,9,9,5,['d'],['d'],Y,Y,['space'],Y,,,,,,,male,27,
18,7,205,10,10,5,['k'],['k'],Y,N,None,Y,,,,,,,male,27,
18,8,206,0,0,5,['k'],['k'],Y,N,None,Y,,,,,,,male,27,
18,9,207,1,1,5,['k'],['k'],Y,N,['space'],N,,,,,,,male,27,
18,10,208,9,9,5,['d'],['d'],Y,N,None,Y,,,,,,,male,27,
19,0,209,3,3,5,['d'],['d'],Y,N,None,Y,,,,,,,male,27,
19,1,210,4,4,5,['k'],['d'],N,Y,['space'],Y,,,,,,,male,27,
19,2,211,0,0,5,['d'],['d'],Y,Y,['space'],Y,,,,,,,male,27,
19,3,212,4,4,5,['d'],['k'],N,Y,['space'],Y,,,,,,,male,27,
19,4,213,1,1,5,['k'],['k'],Y,Y,['k'],N,,,,,,,male,27,
19,5,214,0,0,5,['d'],['d'],Y,N,None,Y,,,,,,,male,27,
19,6,215,9,9,5,['k'],['k'],Y,Y,['space'],Y,,,,,,,male,27,
19,7,216,8,8,5,['d'],['d'],Y,Y,['space'],Y,,,,,,,male,27,
19,8,217,1,1,5,['d'],['d'],Y,Y,['space'],Y,,,,,,,male,27,
19,9,218,5,5,5,['k'],['k'],Y,Y,['space'],Y,,,,,,,male,27,
19,10,219,5,5,5,['d'],['k'],N,Y,['space'],Y,,,,,,,male,27,
20,0,220,7,7,5,['k'],['k'],Y,Y,['space'],Y,,,,,,,male,27,
20,1,221,7,7,5,['k'],['k'],Y,N,None,Y,,,,,,,male,27,
20,2,222,4,4,5,['k'],['k'],Y,Y,None,N,,,,,,,male,27,
20,3,223,6,6,5,['k'],['k'],Y,N,None,Y,,,,,,,male,27,
20,4,224,7,7,5,['d'],['d'],Y,Y,['space'],Y,,,,,,,male,27,
20,5,225,3,3,5,['k'],['d'],N,N,None,Y,,,,,,,male,27,
20,6,226,9,9,5,['k'],['k'],Y,Y,None,N,,,,,,,male,27,
20,7,227,2,2,5,['k'],['k'],Y,Y,['space'],Y,,,,,,,male,27,
20,8,228,4,4,5,['d'],['d'],Y,N,None,Y,,,,,,,male,27,
20,9,229,7,7,5,['k'],['k'],Y,Y,['space'],Y,,,,,,,male,27,
20,10,230,1,1,5,['k'],['k'],Y,N,None,Y,,,,,,,male,27,
21,0,231,8,8,5,['k'],['k'],Y,Y,['space'],Y,,,,,,,male,27,
21,1,232,9,9,5,['k'],['k'],Y,Y,None,N,,,,,,,male,27,
21,2,233,4,4,5,['k'],['k'],Y,Y,['space'],Y,,,,,,,male,27,
21,3,234,7,7,5,['d'],['d'],Y,Y,['space'],Y,,,,,,,male,27,
21,4,235,7,7,5,['k'],['k'],Y,N,None,Y,,,,,,,male,27,
21,5,236,9,9,5,['k'],['k'],Y,N,None,Y,,,,,,,male,27,
21,6,237,10,10,5,['k'],['k'],Y,N,None,Y,,,,,,,male,27,
21,7,238,10,10,5,['d'],['d'],Y,N,None,Y,,,,,,,male,27,
21,8,239,7,7,5,['k'],['d'],N,N,['space'],N,,,,,,,male,27,
21,9,240,2,2,5,['k'],['k'],Y,Y,['space'],Y,,,,,,,male,27,
21,10,241,7,7,5,['k'],['k'],Y,Y,['space'],Y,,,,,,,male,27,
22,0,242,8,8,5,['k'],['d'],N,Y,['space'],Y,,,,,,,male,27,
22,1,243,9,9,5,['d'],['d'],Y,Y,['space'],Y,,,,,,,male,27,
22,2,244,4,4,5,['d'],['d'],Y,N,None,Y,,,,,,,male,27,
22,3,245,9,9,5,['k'],['d'],N,N,None,Y,,,,,,,male,27,
22,4,246,1,1,5,['k'],['k'],Y,N,None,Y,,,,,,,male,27,
22,5,247,0,0,5,['k'],['k'],Y,N,None,Y,,,,,,,male,27,
22,6,248,4,4,5,['k'],['k'],Y,N,None,Y,,,,,,,male,27,
22,7,249,3,3,5,['d'],['d'],Y,N,None,Y,43,41,25,,,,male,27,
22,8,250,2,2,6,['d'],['d'],Y,,,,,,,,,,male,27,
22,9,251,1,1,6,['k'],['k'],Y,,,,,,,,,,male,27,
22,10,252,6,6,6,['k'],['k'],Y,Y,None,N,,,,,,,male,27,
23,0,253,4,4,6,['k'],['k'],Y,Y,None,N,,,,,,,male,27,
23,1,254,6,6,6,['d'],['d'],Y,N,None,Y,,,,,,,male,27,
23,2,255,4,4,6,['d'],['k'],N,Y,None,N,,,,,,,male,27,
23,3,256,3,3,6,['k'],['k'],Y,Y,None,N,,,,,,,male,27,
23,4,257,1,1,6,['d'],['d'],Y,Y,['d'],N,,,,,,,male,27,
23,5,258,2,2,6,['d'],['k'],N,N,['k'],N,,,,,,,male,27,
23,6,259,10,10,6,['k'],['d'],N,N,None,Y,,,,,,,male,27,
23,7,260,2,2,6,['d'],['d'],Y,Y,None,N,,,,,,,male,27,
23,8,261,8,8,6,['k'],['d'],N,Y,['space'],Y,,,,,,,male,27,
23,9,262,5,5,6,['k'],['k'],Y,N,None,Y,,,,,,,male,27,
23,10,263,8,8,6,['k'],['k'],Y,Y,None,N,,,,,,,male,27,
24,0,264,9,9,6,['d'],['d'],Y,N,None,Y,,,,,,,male,27,
24,1,265,4,4,6,['d'],['d'],Y,Y,['space'],Y,,,,,,,male,27,
24,2,266,0,0,6,['k'],['d'],N,N,None,Y,,,,,,,male,27,
24,3,267,9,9,6,['k'],['k'],Y,Y,None,N,,,,,,,male,27,
24,4,268,9,9,6,['k'],['k'],Y,N,None,Y,,,,,,,male,27,
24,5,269,9,9,6,['d'],['d'],Y,Y,['space'],Y,,,,,,,male,27,
24,6,270,2,2,6,['k'],['k'],Y,N,None,Y,,,,,,,male,27,
24,7,271,7,7,6,['d'],['d'],Y,N,None,Y,,,,,,,male,27,
24,8,272,7,7,6,['d'],['d'],Y,Y,['space'],Y,,,,,,,male,27,
24,9,273,8,8,6,['k'],['k'],Y,N,None,Y,,,,,,,male,27,
24,10,274,6,6,6,['d'],['d'],Y,Y,['space'],Y,,,,,,,male,27,
25,0,275,5,5,6,['d'],['d'],Y,Y,['space'],Y,,,,,,,male,27,
25,1,276,3,3,6,['d'],['d'],Y,N,None,Y,,,,,,,male,27,
25,2,277,6,6,6,['k'],['k'],Y,N,None,Y,,,,,,,male,27,
25,3,278,10,10,6,['k'],['k'],Y,N,None,Y,,,,,,,male,27,
25,4,279,6,6,6,['d'],['d'],Y,N,['space'],N,,,,,,,male,27,
25,5,280,0,0,6,['k'],['k'],Y,N,None,Y,,,,,,,male,27,
25,6,281,5,5,6,['k'],['k'],Y,Y,['space'],Y,,,,,,,male,27,
25,7,282,8,8,6,['d'],['d'],Y,N,['space'],N,,,,,,,male,27,
25,8,283,5,5,6,['k'],['k'],Y,N,None,Y,,,,,,,male,27,
25,9,284,3,3,6,['d'],['d'],Y,N,['space'],N,,,,,,,male,27,
25,10,285,7,7,6,['d'],['d'],Y,Y,['k'],N,,,,,,,male,27,
26,0,286,1,1,6,['d'],['d'],Y,N,None,Y,,,,,,,male,27,
26,1,287,4,4,6,['k'],['k'],Y,N,None,Y,,,,,,,male,27,
26,2,288,2,2,6,['d'],['d'],Y,Y,['space'],Y,,,,,,,male,27,
26,3,289,5,5,6,['d'],['d'],Y,Y,['space'],Y,,,,,,,male,27,
26,4,290,6,6,6,['k'],['k'],Y,N,None,Y,,,,,,,male,27,
26,5,291,10,10,6,['k'],['k'],Y,N,None,Y,,,,,,,male,27,
26,6,292,4,4,6,['d'],['d'],Y,N,None,Y,,,,,,,male,27,
26,7,293,8,8,6,['k'],['k'],Y,Y,['space'],Y,,,,,,,male,27,
26,8,294,3,3,6,['k'],['k'],Y,N,None,Y,,,,,,,male,27,
26,9,295,1,1,6,['d'],['d'],Y,N,None,Y,,,,,,,male,27,
26,10,296,10,10,6,['k'],['d'],N,N,None,Y,,,,,,,male,27,
27,0,297,1,1,6,['d'],['d'],Y,Y,None,N,,,,,,,male,27,
27,1,298,8,8,6,['k'],['k'],Y,Y,['space'],Y,,,,,,,male,27,
27,2,299,4,4,6,['k'],['k'],Y,N,None,Y,44,34,21,,,,male,27,
27,3,300,7,7,7,['d'],['d'],Y,,,,,,,,,,male,27,
27,4,301,5,5,7,['k'],['k'],Y,,,,,,,,,,male,27,
27,5,302,9,9,7,['k'],['k'],Y,N,None,Y,,,,,,,male,27,
27,6,303,5,5,7,['d'],['d'],Y,Y,None,N,,,,,,,male,27,
27,7,304,4,4,7,['k'],['k'],Y,N,None,Y,,,,,,,male,27,
27,8,305,4,4,7,['d'],['d'],Y,N,None,Y,,,,,,,male,27,
27,9,306,3,3,7,['d'],['d'],Y,Y,None,N,,,,,,,male,27,
27,10,307,2,2,7,['d'],['d'],Y,N,None,Y,,,,,,,male,27,
28,0,308,2,2,7,['d'],['k'],N,N,None,Y,,,,,,,male,27,
28,1,309,5,5,7,['k'],['k'],Y,Y,['space'],Y,,,,,,,male,27,
28,2,310,3,3,7,['d'],['d'],Y,N,None,Y,,,,,,,male,27,
28,3,311,2,2,7,['k'],['k'],Y,N,None,Y,,,,,,,male,27,
28,4,312,9,9,7,['d'],['d'],Y,N,None,Y,,,,,,,male,27,
28,5,313,2,2,7,['d'],['d'],Y,N,None,Y,,,,,,,male,27,
28,6,314,4,4,7,['d'],['k'],N,Y,['space'],Y,,,,,,,male,27,
28,7,315,9,9,7,['d'],['d'],Y,N,None,Y,,,,,,,male,27,
28,8,316,7,7,7,['d'],['d'],Y,N,None,Y,,,,,,,male,27,
28,9,317,3,3,7,['d'],['d'],Y,N,None,Y,,,,,,,male,27,
28,10,318,7,7,7,['d'],['d'],Y,Y,['space'],Y,,,,,,,male,27,
29,0,319,8,8,7,['d'],['d'],Y,Y,['space'],Y,,,,,,,male,27,
29,1,320,2,2,7,['d'],['d'],Y,N,['space'],N,,,,,,,male,27,
29,2,321,6,6,7,['k'],['k'],Y,N,None,Y,,,,,,,male,27,
29,3,322,10,10,7,['k'],['k'],Y,N,None,Y,,,,,,,male,27,
29,4,323,8,8,7,['d'],['d'],Y,Y,['space'],Y,,,,,,,male,27,
29,5,324,1,1,7,['d'],['d'],Y,Y,['space'],Y,,,,,,,male,27,
29,6,325,0,0,7,['k'],['k'],Y,N,None,Y,,,,,,,male,27,
29,7,326,5,5,7,['k'],['k'],Y,N,None,Y,,,,,,,male,27,
29,8,327,3,3,7,['d'],['d'],Y,N,None,Y,,,,,,,male,27,
29,9,328,8,8,7,['k'],['k'],Y,N,None,Y,,,,,,,male,27,
29,10,329,9,9,7,['k'],['d'],N,Y,['d'],N,,,,,,,male,27,
30,0,330,1,1,7,['d'],['k'],N,Y,['space'],Y,,,,,,,male,27,
30,1,331,0,0,7,['k'],['k'],Y,Y,['space'],Y,,,,,,,male,27,
30,2,332,0,0,7,['d'],['d'],Y,N,None,Y,,,,,,,male,27,
30,3,333,4,4,7,['d'],['k'],N,Y,['space'],Y,,,,,,,male,27,
30,4,334,3,3,7,['k'],['k'],Y,N,None,Y,,,,,,,male,27,
30,5,335,3,3,7,['d'],['d'],Y,N,None,Y,,,,,,,male,27,
30,6,336,1,1,7,['k'],['k'],Y,Y,['space'],Y,,,,,,,male,27,
30,7,337,1,1,7,['k'],['k'],Y,Y,['space'],Y,,,,,,,male,27,
30,8,338,7,7,7,['k'],['k'],Y,N,None,Y,,,,,,,male,27,
30,9,339,3,3,7,['k'],['k'],Y,Y,['space'],Y,,,,,,,male,27,
30,10,340,8,8,7,['k'],['k'],Y,Y,['space'],Y,,,,,,,male,27,
31,0,341,8,8,7,['d'],['d'],Y,N,None,Y,,,,,,,male,27,
31,1,342,8,8,7,['d'],['d'],Y,N,None,Y,,,,,,,male,27,
31,2,343,2,2,7,['d'],['d'],Y,Y,None,N,,,,,,,male,27,
31,3,344,7,7,7,['k'],['k'],Y,Y,['space'],Y,,,,,,,male,27,
31,4,345,1,1,7,['d'],['d'],Y,N,None,Y,,,,,,,male,27,
31,5,346,1,1,7,['k'],['k'],Y,Y,['space'],Y,,,,,,,male,27,
31,6,347,0,0,7,['d'],['d'],Y,N,None,Y,,,,,,,male,27,
31,7,348,8,8,7,['k'],['k'],Y,Y,['space'],Y,,,,,,,male,27,
31,8,349,9,9,7,['d'],['d'],Y,Y,['space'],Y,45,43,21,,,,male,27,
31,9,350,1,1,8,['k'],['k'],Y,,,,,,,,,,male,27,
31,10,351,7,7,8,['d'],['d'],Y,,,,,,,,,,male,27,
32,0,352,5,5,8,['k'],['d'],N,Y,['space'],Y,,,,,,,male,27,
32,1,353,3,3,8,['d'],['d'],Y,N,None,Y,,,,,,,male,27,
32,2,354,0,0,8,['k'],['k'],Y,N,None,Y,,,,,,,male,27,
32,3,355,2,2,8,['d'],['d'],Y,N,None,Y,,,,,,,male,27,
32,4,356,10,10,8,['k'],['k'],Y,N,None,Y,,,,,,,male,27,
32,5,357,6,6,8,['k'],['d'],N,Y,['space'],Y,,,,,,,male,27,
32,6,358,10,10,8,['k'],['k'],Y,N,None,Y,,,,,,,male,27,
32,7,359,8,8,8,['k'],['k'],Y,N,None,Y,,,,,,,male,27,
32,8,360,0,0,8,['k'],['k'],Y,N,None,Y,,,,,,,male,27,
32,9,361,0,0,8,['d'],['d'],Y,Y,['d'],N,,,,,,,male,27,
32,10,362,7,7,8,['k'],['k'],Y,Y,['space'],Y,,,,,,,male,27,
33,0,363,9,9,8,['k'],['k'],Y,N,None,Y,,,,,,,male,27,
33,1,364,9,9,8,['k'],['k'],Y,N,None,Y,,,,,,,male,27,
33,2,365,3,3,8,['k'],['k'],Y,N,None,Y,,,,,,,male,27,
33,3,366,2,2,8,['d'],['d'],Y,N,None,Y,,,,,,,male,27,
33,4,367,0,0,8,['k'],['k'],Y,N,None,Y,,,,,,,male,27,
33,5,368,4,4,8,['k'],['k'],Y,N,None,Y,,,,,,,male,27,
33,6,369,8,8,8,['k'],['k'],Y,Y,['space'],Y,,,,,,,male,27,
33,7,370,3,3,8,['k'],['k'],Y,Y,['space'],Y,,,,,,,male,27,
33,8,371,6,6,8,['k'],['k'],Y,N,None,Y,,,,,,,male,27,
33,9,372,4,4,8,['k'],['k'],Y,Y,['space'],Y,,,,,,,male,27,
33,10,373,2,2,8,['d'],['d'],Y,N,None,Y,,,,,,,male,27,
34,0,374,8,8,8,['d'],['d'],Y,Y,['space'],Y,,,,,,,male,27,
34,1,375,2,2,8,['k'],['k'],Y,Y,['k'],N,,,,,,,male,27,
34,2,376,6,6,8,['d'],['d'],Y,Y,['space'],Y,,,,,,,male,27,
34,3,377,0,0,8,['k'],['k'],Y,N,None,Y,,,,,,,male,27,
34,4,378,4,4,8,['d'],['d'],Y,N,None,Y,,,,,,,male,27,
34,5,379,9,9,8,['k'],['k'],Y,Y,['space'],Y,,,,,,,male,27,
34,6,380,8,8,8,['d'],['d'],Y,Y,['space'],Y,,,,,,,male,27,
34,7,381,7,7,8,['d'],['d'],Y,Y,['space'],Y,,,,,,,male,27,
34,8,382,4,4,8,['k'],['k'],Y,N,None,Y,,,,,,,male,27,
34,9,383,10,10,8,['d'],['d'],Y,Y,None,N,,,,,,,male,27,
34,10,384,6,6,8,['k'],['k'],Y,Y,['space'],Y,,,,,,,male,27,
35,0,385,9,9,8,['d'],['d'],Y,Y,['space'],Y,,,,,,,male,27,
35,1,386,2,2,8,['k'],['k'],Y,N,['d'],N,,,,,,,male,27,
35,2,387,5,5,8,['d'],['d'],Y,Y,['space'],Y,,,,,,,male,27,
35,3,388,1,1,8,['d'],['d'],Y,Y,['space'],Y,,,,,,,male,27,
35,4,389,1,1,8,['k'],['k'],Y,N,None,Y,,,,,,,male,27,
35,5,390,2,2,8,['k'],['d'],N,N,None,Y,,,,,,,male,27,
35,6,391,8,8,8,['d'],['d'],Y,Y,['space'],Y,,,,,,,male,27,
35,7,392,9,9,8,['d'],['d'],Y,Y,['space'],Y,,,,,,,male,27,
35,8,393,4,4,8,['d'],['d'],Y,N,None,Y,,,,,,,male,27,
35,9,394,2,2,8,['d'],['d'],Y,N,None,Y,,,,,,,male,27,
35,10,395,6,6,8,['k'],['k'],Y,N,['space'],N,,,,,,,male,27,
36,0,396,8,8,8,['k'],['k'],Y,Y,['space'],Y,,,,,,,male,27,
36,1,397,1,1,8,['d'],['d'],Y,Y,['space'],Y,,,,,,,male,27,
36,2,398,6,6,8,['k'],['k'],Y,N,None,Y,,,,,,,male,27,
36,3,399,10,10,8,['d'],['d'],Y,Y,['space'],Y,47,43,23,,,,male,27,
36,4,400,6,6,9,['k'],['d'],N,,,,,,,,,,male,27,
36,5,401,5,5,9,['k'],['k'],Y,,,,,,,,,,male,27,
36,6,402,4,4,9,['k'],['k'],Y,N,None,Y,,,,,,,male,27,
36,7,403,10,10,9,['k'],['k'],Y,Y,None,N,,,,,,,male,27,
36,8,404,6,6,9,['d'],['d'],Y,N,None,Y,,,,,,,male,27,
36,9,405,7,7,9,['k'],['k'],Y,N,None,Y,,,,,,,male,27,
36,10,406,6,6,9,['d'],['d'],Y,Y,None,N,,,,,,,male,27,
37,0,407,8,8,9,['k'],['k'],Y,Y,['space'],Y,,,,,,,male,27,
37,1,408,6,6,9,['d'],['d'],Y,N,None,Y,,,,,,,male,27,
37,2,409,10,10,9,['d'],['d'],Y,N,None,Y,,,,,,,male,27,
37,3,410,1,1,9,['k'],['k'],Y,N,None,Y,,,,,,,male,27,
37,4,411,8,8,9,['k'],['d'],N,Y,None,N,,,,,,,male,27,
37,5,412,1,1,9,['d'],['d'],Y,N,None,Y,,,,,,,male,27,
37,6,413,7,7,9,['k'],['k'],Y,N,None,Y,,,,,,,male,27,
37,7,414,8,8,9,['k'],['d'],N,N,None,Y,,,,,,,male,27,
37,8,415,6,6,9,['k'],['k'],Y,N,None,Y,,,,,,,male,27,
37,9,416,10,10,9,['k'],['k'],Y,N,None,Y,,,,,,,male,27,
37,10,417,1,1,9,['k'],['d'],N,Y,['space'],Y,,,,,,,male,27,
38,0,418,7,7,9,['k'],['d'],N,Y,['space'],Y,,,,,,,male,27,
38,1,419,10,10,9,['k'],['k'],Y,Y,['space'],Y,,,,,,,male,27,
38,2,420,7,7,9,['d'],['d'],Y,N,None,Y,,,,,,,male,27,
38,3,421,1,1,9,['k'],['k'],Y,Y,['space'],Y,,,,,,,male,27,
38,4,422,6,6,9,['k'],['k'],Y,Y,None,N,,,,,,,male,27,
38,5,423,2,2,9,['k'],['k'],Y,Y,['d'],N,,,,,,,male,27,
38,6,424,0,0,9,['k'],['k'],Y,Y,['space'],Y,,,,,,,male,27,
38,7,425,7,7,9,['d'],['d'],Y,Y,['space'],Y,,,,,,,male,27,
38,8,426,1,1,9,['k'],['d'],N,N,None,Y,,,,,,,male,27,
38,9,427,3,3,9,['d'],['k'],N,N,None,Y,,,,,,,male,27,
38,10,428,10,10,9,['k'],['k'],Y,N,['space'],N,,,,,,,male,27,
39,0,429,4,4,9,['d'],['d'],Y,N,None,Y,,,,,,,male,27,
39,1,430,3,3,9,['d'],['d'],Y,N,None,Y,,,,,,,male,27,
39,2,431,0,0,9,['d'],['d'],Y,N,None,Y,,,,,,,male,27,
39,3,432,0,0,9,['d'],['d'],Y,N,None,Y,,,,,,,male,27,
39,4,433,8,8,9,['k'],['k'],Y,Y,['space'],Y,,,,,,,male,27,
39,5,434,0,0,9,['k'],['k'],Y,N,None,Y,,,,,,,male,27,
39,6,435,10,10,9,['k'],['d'],N,Y,['space'],Y,,,,,,,male,27,
39,7,436,8,8,9,['k'],['d'],N,N,None,Y,,,,,,,male,27,
39,8,437,4,4,9,['k'],['d'],N,Y,['space'],Y,,,,,,,male,27,
39,9,438,6,6,9,['k'],['k'],Y,Y,['space'],Y,,,,,,,male,27,
39,10,439,0,0,9,['k'],['k'],Y,N,None,Y,,,,,,,male,27,
40,0,440,4,4,9,['k'],['k'],Y,N,None,Y,,,,,,,male,27,
40,1,441,2,2,9,['k'],['k'],Y,Y,['space'],Y,,,,,,,male,27,
40,2,442,0,0,9,['k'],['k'],Y,Y,['space'],Y,,,,,,,male,27,
40,3,443,9,9,9,['d'],['d'],Y,Y,['space'],Y,,,,,,,male,27,
40,4,444,2,2,9,['d'],['d'],Y,Y,['space'],Y,,,,,,,male,27,
40,5,445,9,9,9,['k'],['k'],Y,Y,['space'],Y,,,,,,,male,27,
40,6,446,3,3,9,['k'],['k'],Y,N,None,Y,,,,,,,male,27,
40,7,447,10,10,9,['k'],['k'],Y,Y,['space'],Y,,,,,,,male,27,
40,8,448,0,0,9,['k'],['k'],Y,Y,['space'],Y,,,,,,,male,27,
40,9,449,5,5,9,['d'],['d'],Y,N,None,Y,40,42,23,,,,male,27,
40,10,450,4,4,10,['k'],['k'],Y,,,,,,,,,,male,27,
41,0,451,6,6,10,['d'],['d'],Y,,,,,,,,,,male,27,
41,1,452,10,10,10,['k'],['d'],N,N,None,Y,,,,,,,male,27,
41,2,453,5,5,10,['d'],['d'],Y,N,None,Y,,,,,,,male,27,
41,3,454,5,5,10,['d'],['d'],Y,N,None,Y,,,,,,,male,27,
41,4,455,6,6,10,['k'],['k'],Y,Y,['space'],Y,,,,,,,male,27,
41,5,456,2,2,10,['d'],['d'],Y,Y,['space'],Y,,,,,,,male,27,
41,6,457,4,4,10,['k'],['k'],Y,Y,['space'],Y,,,,,,,male,27,
41,7,458,9,9,10,['k'],['k'],Y,N,None,Y,,,,,,,male,27,
41,8,459,1,1,10,['d'],['d'],Y,N,None,Y,,,,,,,male,27,
41,9,460,0,0,10,['k'],['k'],Y,N,None,Y,,,,,,,male,27,
41,10,461,10,10,10,['d'],['d'],Y,Y,['space'],Y,,,,,,,male,27,
42,0,462,5,5,10,['d'],['d'],Y,N,None,Y,,,,,,,male,27,
42,1,463,3,3,10,['d'],['d'],Y,Y,['space'],Y,,,,,,,male,27,
42,2,464,3,3,10,['k'],['d'],N,N,None,Y,,,,,,,male,27,
42,3,465,7,7,10,['k'],['k'],Y,Y,['space'],Y,,,,,,,male,27,
42,4,466,3,3,10,['k'],['d'],N,Y,['space'],Y,,,,,,,male,27,
42,5,467,2,2,10,['k'],['k'],Y,N,None,Y,,,,,,,male,27,
42,6,468,1,1,10,['k'],['k'],Y,N,None,Y,,,,,,,male,27,
42,7,469,0,0,10,['d'],['d'],Y,N,None,Y,,,,,,,male,27,
42,8,470,4,4,10,['d'],['d'],Y,Y,['space'],Y,,,,,,,male,27,
42,9,471,1,1,10,['k'],['k'],Y,N,['space'],N,,,,,,,male,27,
42,10,472,6,6,10,['d'],['d'],Y,Y,['space'],Y,,,,,,,male,27,
43,0,473,10,10,10,['d'],['d'],Y,Y,['space'],Y,,,,,,,male,27,
43,1,474,0,0,10,['k'],['k'],Y,Y,['space'],Y,,,,,,,male,27,
43,2,475,6,6,10,['d'],['d'],Y,N,None,Y,,,,,,,male,27,
43,3,476,0,0,10,['k'],['d'],N,Y,['space'],Y,,,,,,,male,27,
43,4,477,10,10,10,['d'],['d'],Y,N,None,Y,,,,,,,male,27,
43,5,478,9,9,10,['k'],['k'],Y,Y,['space'],Y,,,,,,,male,27,
43,6,479,6,6,10,['k'],['d'],N,N,None,Y,,,,,,,male,27,
43,7,480,3,3,10,['k'],['k'],Y,N,['d'],N,,,,,,,male,27,
43,8,481,9,9,10,['k'],['k'],Y,Y,None,N,,,,,,,male,27,
43,9,482,0,0,10,['k'],['k'],Y,Y,['space'],Y,,,,,,,male,27,
43,10,483,5,5,10,['d'],['d'],Y,N,None,Y,,,,,,,male,27,
44,0,484,6,6,10,['k'],['k'],Y,N,None,Y,,,,,,,male,27,
44,1,485,9,9,10,['k'],['d'],N,Y,['space'],Y,,,,,,,male,27,
44,2,486,10,10,10,['k'],['k'],Y,N,None,Y,,,,,,,male,27,
44,3,487,2,2,10,['k'],['d'],N,Y,['space'],Y,,,,,,,male,27,
44,4,488,7,7,10,['k'],['k'],Y,Y,['space'],Y,,,,,,,male,27,
44,5,489,5,5,10,['k'],['d'],N,Y,['space'],Y,,,,,,,male,27,
44,6,490,6,6,10,['d'],['d'],Y,N,None,Y,,,,,,,male,27,
44,7,491,4,4,10,['k'],['d'],N,N,None,Y,,,,,,,male,27,
44,8,492,8,8,10,['k'],['k'],Y,N,None,Y,,,,,,,male,27,
44,9,493,2,2,10,['d'],['d'],Y,Y,None,N,,,,,,,male,27,
44,10,494,3,3,10,['k'],['d'],N,N,None,Y,,,,,,,male,27,
45,0,495,0,0,10,['k'],['k'],Y,Y,['space'],Y,,,,,,,male,27,
45,1,496,3,3,10,['k'],['k'],Y,N,None,Y,,,,,,,male,27,
45,2,497,4,4,10,['k'],['d'],N,N,None,Y,,,,,,,male,27,
45,3,498,4,4,10,['k'],['k'],Y,Y,None,N,,,,,,,male,27,
45,4,499,0,0,10,['k'],['k'],Y,N,None,Y,39,43,22,,,,male,27,
45,5,500,10,10,11,None,,Timed out,,,,,,,Y,Y,Y,male,27,
45,6,501,4,4,11,['k'],['d'],Y,,,,,,,,Y,Y,male,27,
45,7,502,6,6,11,['d'],['k'],Y,N,['space'],N,,,,,Y,Y,male,27,
45,8,503,4,4,11,['k'],['k'],N,Y,None,N,,,,,Y,Y,male,27,
45,9,504,3,3,11,['d'],['k'],Y,N,None,Y,,,,,Y,Y,male,27,
45,10,505,8,8,11,['k'],['k'],N,N,None,Y,,,,,Y,Y,male,27,
46,0,506,7,7,11,['d'],['k'],Y,N,None,Y,,,,,Y,Y,male,27,
46,1,507,8,8,11,['d'],['d'],N,N,None,Y,,,,,Y,Y,male,27,
46,2,508,7,7,11,['d'],['k'],Y,N,None,Y,,,,,Y,Y,male,27,
46,3,509,5,5,11,['k'],['k'],N,N,None,Y,,,,,Y,Y,male,27,
46,4,510,3,3,11,['d'],['k'],Y,N,None,Y,,,,,Y,Y,male,27,
46,5,511,1,1,11,['d'],['k'],Y,Y,None,N,,,,,Y,Y,male,27,
46,6,512,10,10,11,['d'],['d'],N,Y,['space'],Y,,,,,Y,Y,male,27,
46,7,513,7,7,11,['k'],['k'],N,N,None,Y,,,,,Y,Y,male,27,
46,8,514,6,6,11,['d'],['k'],Y,Y,['space'],Y,,,,,Y,Y,male,27,
46,9,515,5,5,11,['k'],['d'],Y,Y,None,N,,,,,Y,Y,male,27,
46,10,516,3,3,11,['k'],['d'],Y,Y,['space'],Y,,,,,Y,Y,male,27,
47,0,517,9,9,11,['d'],['k'],Y,Y,['space'],Y,,,,,Y,Y,male,27,
47,1,518,6,6,11,['d'],['d'],N,Y,['space'],Y,,,,,Y,Y,male,27,
47,2,519,10,10,11,['k'],['d'],Y,Y,['space'],Y,,,,,Y,Y,male,27,
47,3,520,5,5,11,['d'],['k'],Y,N,None,Y,,,,,Y,Y,male,27,
47,4,521,6,6,11,['k'],['d'],Y,Y,['space'],Y,,,,,Y,Y,male,27,
47,5,522,9,9,11,['k'],['d'],Y,Y,['space'],Y,,,,,Y,Y,male,27,
47,6,523,8,8,11,['d'],['k'],Y,N,None,Y,,,,,Y,Y,male,27,
47,7,524,3,3,11,['d'],['d'],N,Y,['space'],Y,,,,,Y,Y,male,27,
47,8,525,9,9,11,['k'],['d'],Y,Y,['space'],Y,,,,,Y,Y,male,27,
47,9,526,9,9,11,['d'],['k'],Y,N,None,Y,,,,,Y,Y,male,27,
47,10,527,3,3,11,['k'],['d'],Y,N,None,Y,,,,,Y,Y,male,27,
48,0,528,1,1,11,['d'],['k'],Y,Y,['space'],Y,,,,,Y,Y,male,27,
48,1,529,5,5,11,['d'],['k'],Y,Y,['space'],Y,,,,,Y,Y,male,27,
48,2,530,8,8,11,['k'],['d'],Y,N,None,Y,,,,,Y,Y,male,27,
48,3,531,1,1,11,None,,Timed out,Y,['space'],Y,,,,,Y,Y,male,27,
48,4,532,1,1,11,['d'],['d'],N,Y,None,N,,,,,Y,Y,male,27,
48,5,533,7,7,11,['d'],['k'],Y,Y,['k'],N,,,,,Y,Y,male,27,
48,6,534,5,5,11,['k'],['d'],Y,Y,['space'],Y,,,,,Y,Y,male,27,
48,7,535,1,1,11,['k'],['d'],Y,N,None,Y,,,,,Y,Y,male,27,
48,8,536,5,5,11,['d'],['k'],Y,Y,['space'],Y,,,,,Y,Y,male,27,
48,9,537,8,8,11,['d'],['d'],N,N,['space'],N,,,,,Y,Y,male,27,
48,10,538,8,8,11,['d'],['d'],N,Y,['space'],Y,,,,,Y,Y,male,27,
49,0,539,7,7,11,['k'],['d'],Y,N,None,Y,,,,,Y,Y,male,27,
49,1,540,5,5,11,['d'],['k'],Y,N,None,Y,,,,,Y,Y,male,27,
49,2,541,1,1,11,['k'],['d'],Y,Y,['space'],Y,,,,,Y,Y,male,27,
49,3,542,0,0,11,['d'],['k'],Y,Y,['space'],Y,,,,,Y,Y,male,27,
49,4,543,9,9,11,['d'],['d'],N,Y,['space'],Y,,,,,Y,Y,male,27,
49,5,544,6,6,11,['k'],['k'],N,Y,['space'],Y,,,,,Y,Y,male,27,
49,6,545,3,3,11,['d'],['k'],Y,N,['space'],N,,,,,Y,Y,male,27,
49,7,546,10,10,11,['d'],['k'],Y,N,None,Y,,,,,Y,Y,male,27,
49,8,547,3,3,11,['k'],['d'],Y,N,None,Y,,,,,Y,Y,male,27,
49,9,548,0,0,11,['k'],['d'],Y,N,None,Y,,,,,Y,Y,male,27,
49,10,549,4,4,11,['k'],['d'],Y,N,['space'],N,35,39,25,,Y,Y,male,27,
50,0,550,1,1,12,['d'],['d'],N,,,,,,,,Y,Y,male,27,
50,1,551,2,2,12,['k'],['d'],Y,,,,,,,,Y,Y,male,27,
50,2,552,4,4,12,['d'],['k'],Y,N,None,Y,,,,,Y,Y,male,27,
50,3,553,1,1,12,['k'],['d'],Y,N,None,Y,,,,,Y,Y,male,27,
50,4,554,6,6,12,['d'],['k'],Y,Y,['space'],Y,,,,,Y,Y,male,27,
50,5,555,9,9,12,['k'],['d'],Y,N,None,Y,,,,,Y,Y,male,27,
50,6,556,8,8,12,['k'],['d'],Y,Y,['space'],Y,,,,,Y,Y,male,27,
50,7,557,9,9,12,['d'],['k'],Y,Y,None,N,,,,,Y,Y,male,27,
50,8,558,2,2,12,['d'],['k'],Y,Y,None,N,,,,,Y,Y,male,27,
50,9,559,1,1,12,['k'],['d'],Y,Y,['space'],Y,,,,,Y,Y,male,27,
50,10,560,6,6,12,['k'],['d'],Y,N,None,Y,,,,,Y,Y,male,27,
51,0,561,9,9,12,['d'],['d'],N,Y,['space'],Y,,,,,Y,Y,male,27,
51,1,562,9,9,12,['k'],['d'],Y,N,None,Y,,,,,Y,Y,male,27,
51,2,563,10,10,12,['k'],['k'],N,Y,['space'],Y,,,,,Y,Y,male,27,
51,3,564,9,9,12,['d'],['k'],Y,N,None,Y,,,,,Y,Y,male,27,
51,4,565,6,6,12,['d'],['k'],Y,N,None,Y,,,,,Y,Y,male,27,
51,5,566,7,7,12,['d'],['d'],N,Y,['space'],Y,,,,,Y,Y,male,27,
51,6,567,4,4,12,['d'],['k'],Y,Y,['k'],N,,,,,Y,Y,male,27,
51,7,568,1,1,12,['d'],['k'],Y,N,None,Y,,,,,Y,Y,male,27,
51,8,569,9,9,12,['k'],['k'],N,Y,None,N,,,,,Y,Y,male,27,
51,9,570,6,6,12,['d'],['k'],Y,Y,None,N,,,,,Y,Y,male,27,
51,10,571,2,2,12,['k'],['d'],Y,N,None,Y,,,,,Y,Y,male,27,
52,0,572,10,10,12,['d'],['k'],Y,N,None,Y,,,,,Y,Y,male,27,
52,1,573,0,0,12,['k'],['d'],Y,N,None,Y,,,,,Y,Y,male,27,
52,2,574,10,10,12,['d'],['d'],N,N,None,Y,,,,,Y,Y,male,27,
52,3,575,2,2,12,None,,Timed out,Y,['k'],N,,,,,Y,Y,male,27,
52,4,576,10,10,12,['k'],['d'],Y,N,None,Y,,,,,Y,Y,male,27,
52,5,577,4,4,12,['d'],['d'],N,Y,None,N,,,,,Y,Y,male,27,
52,6,578,4,4,12,['k'],['d'],Y,N,None,Y,,,,,Y,Y,male,27,
52,7,579,7,7,12,['d'],['d'],N,N,None,Y,,,,,Y,Y,male,27,
52,8,580,5,5,12,['k'],['d'],Y,N,None,Y,,,,,Y,Y,male,27,
52,9,581,2,2,12,['k'],['d'],Y,Y,None,N,,,,,Y,Y,male,27,
52,10,582,5,5,12,['d'],['d'],N,Y,['space'],Y,,,,,Y,Y,male,27,
53,0,583,3,3,12,['k'],['d'],Y,Y,['space'],Y,,,,,Y,Y,male,27,
53,1,584,3,3,12,['d'],['k'],Y,N,None,Y,,,,,Y,Y,male,27,
53,2,585,5,5,12,['k'],['k'],N,N,['space'],N,,,,,Y,Y,male,27,
53,3,586,10,10,12,['k'],['d'],Y,Y,None,N,,,,,Y,Y,male,27,
53,4,587,2,2,12,['d'],['k'],Y,N,None,Y,,,,,Y,Y,male,27,
53,5,588,6,6,12,['k'],['d'],Y,N,None,Y,,,,,Y,Y,male,27,
53,6,589,6,6,12,['k'],['d'],Y,Y,None,N,,,,,Y,Y,male,27,
53,7,590,6,6,12,['k'],['k'],N,Y,None,N,,,,,Y,Y,male,27,
53,8,591,5,5,12,['d'],['k'],Y,N,None,Y,,,,,Y,Y,male,27,
53,9,592,7,7,12,['k'],['d'],Y,Y,['space'],Y,,,,,Y,Y,male,27,
53,10,593,7,7,12,['d'],['k'],Y,Y,None,N,,,,,Y,Y,male,27,
54,0,594,7,7,12,['d'],['k'],Y,Y,['space'],Y,,,,,Y,Y,male,27,
54,1,595,6,6,12,['k'],['d'],Y,Y,['space'],Y,,,,,Y,Y,male,27,
54,2,596,7,7,12,['d'],['d'],N,N,None,Y,,,,,Y,Y,male,27,
54,3,597,9,9,12,['d'],['k'],Y,N,None,Y,,,,,Y,Y,male,27,
54,4,598,10,10,12,['k'],['d'],Y,N,None,Y,,,,,Y,Y,male,27,
54,5,599,0,0,12,['k'],['d'],Y,Y,['space'],Y,37,35,24,,Y,Y,male,27,
