.thisRepN,.thisTrialN,.thisN,.thisIndex,.thisTrial,Block Number,Key pressed,Category,Correct?,Int Match?,Int Response,Int Correct?,Line Accuracy,Interference Accuracy,Matching Interferences,New instruction shown?,Buttons switched?,Fast?,gender,age,
0,0,0,4,4,1,['d'],['k'],N,,,,,,,,,,male,20,
0,1,1,9,9,1,['d'],['k'],N,,,,,,,,,,male,20,
0,2,2,7,7,1,['d'],['k'],N,N,None,Y,,,,,,,male,20,
0,3,3,7,7,1,['k'],['k'],Y,N,None,Y,,,,,,,male,20,
0,4,4,5,5,1,['k'],['k'],Y,N,None,Y,,,,,,,male,20,
0,5,5,1,1,1,['k'],['k'],Y,N,None,Y,,,,,,,male,20,
0,6,6,4,4,1,['k'],['d'],N,Y,['space'],Y,,,,,,,male,20,
0,7,7,9,9,1,['d'],['d'],Y,Y,None,N,,,,,,,male,20,
0,8,8,2,2,1,['k'],['d'],N,Y,None,N,,,,,,,male,20,
0,9,9,10,10,1,['k'],['d'],N,Y,['space'],Y,,,,,,,male,20,
0,10,10,0,0,1,['k'],['k'],Y,Y,['space'],Y,,,,,,,male,20,
1,0,11,8,8,1,['k'],['d'],N,N,None,Y,,,,,,,male,20,
1,1,12,8,8,1,['k'],['d'],N,N,None,Y,,,,,,,male,20,
1,2,13,4,4,1,['d'],['d'],Y,N,None,Y,,,,,,,male,20,
1,3,14,9,9,1,['k'],['d'],N,N,None,Y,,,,,,,male,20,
1,4,15,2,2,1,['d'],['d'],Y,Y,['space'],Y,,,,,,,male,20,
1,5,16,10,10,1,['k'],['d'],N,Y,None,N,,,,,,,male,20,
1,6,17,6,6,1,['d'],['d'],Y,Y,['space'],Y,,,,,,,male,20,
1,7,18,6,6,1,['k'],['k'],Y,Y,['space'],Y,,,,,,,male,20,
1,8,19,3,3,1,['k'],['k'],Y,N,None,Y,,,,,,,male,20,
1,9,20,9,9,1,['d'],['d'],Y,Y,None,N,,,,,,,male,20,
1,10,21,0,0,1,['k'],['k'],Y,Y,None,N,,,,,,,male,20,
2,0,22,4,4,1,['k'],['k'],Y,N,None,Y,,,,,,,male,20,
2,1,23,6,6,1,['d'],['d'],Y,Y,['space'],Y,,,,,,,male,20,
2,2,24,2,2,1,['d'],['k'],N,N,None,Y,,,,,,,male,20,
2,3,25,10,10,1,['d'],['d'],Y,Y,None,N,,,,,,,male,20,
2,4,26,7,7,1,['k'],['k'],Y,Y,['space'],Y,,,,,,,male,20,
2,5,27,8,8,1,['d'],['k'],N,Y,None,N,,,,,,,male,20,
2,6,28,9,9,1,['k'],['d'],N,Y,None,N,,,,,,,male,20,
2,7,29,7,7,1,['d'],['d'],Y,N,None,Y,,,,,,,male,20,
2,8,30,2,2,1,['k'],['k'],Y,N,None,Y,,,,,,,male,20,
2,9,31,6,6,1,['d'],['d'],Y,Y,['space'],Y,,,,,,,male,20,
2,10,32,5,5,1,['k'],['k'],Y,N,None,Y,,,,,,,male,20,
3,0,33,3,3,1,['k'],['k'],Y,Y,['space'],Y,,,,,,,male,20,
3,1,34,0,0,1,['d'],['d'],Y,Y,None,N,,,,,,,male,20,
3,2,35,7,7,1,['k'],['k'],Y,Y,['space'],Y,,,,,,,male,20,
3,3,36,5,5,1,['k'],['k'],Y,N,None,Y,,,,,,,male,20,
3,4,37,7,7,1,['k'],['k'],Y,Y,['d'],N,,,,,,,male,20,
3,5,38,4,4,1,['k'],['d'],N,Y,['space'],Y,,,,,,,male,20,
3,6,39,9,9,1,['k'],['k'],Y,Y,['space'],Y,,,,,,,male,20,
3,7,40,2,2,1,['d'],['d'],Y,N,None,Y,,,,,,,male,20,
3,8,41,4,4,1,['k'],['k'],Y,N,None,Y,,,,,,,male,20,
3,9,42,8,8,1,['k'],['d'],N,N,None,Y,,,,,,,male,20,
3,10,43,5,5,1,['d'],['k'],N,Y,None,N,,,,,,,male,20,
4,0,44,5,5,1,['k'],['d'],N,N,None,Y,,,,,,,male,20,
4,1,45,1,1,1,['k'],['k'],Y,N,None,Y,,,,,,,male,20,
4,2,46,4,4,1,['d'],['d'],Y,Y,['space'],Y,,,,,,,male,20,
4,3,47,6,6,1,['d'],['d'],Y,N,None,Y,,,,,,,male,20,
4,4,48,8,8,1,['d'],['d'],Y,N,None,Y,,,,,,,male,20,
4,5,49,1,1,1,['k'],['k'],Y,N,None,Y,33,37,25,,,,male,20,
4,6,50,5,5,2,['d'],['k'],N,,,,,,,,,,male,20,
4,7,51,5,5,2,['k'],['k'],Y,,,,,,,,,,male,20,
4,8,52,10,10,2,['d'],['d'],Y,N,None,Y,,,,,,,male,20,
4,9,53,9,9,2,['k'],['k'],Y,N,None,Y,,,,,,,male,20,
4,10,54,10,10,2,['d'],['k'],N,N,None,Y,,,,,,,male,20,
5,0,55,3,3,2,['d'],['d'],Y,Y,None,N,,,,,,,male,20,
5,1,56,4,4,2,['k'],['k'],Y,Y,None,N,,,,,,,male,20,
5,2,57,1,1,2,['d'],['d'],Y,N,None,Y,,,,,,,male,20,
5,3,58,6,6,2,['d'],['d'],Y,N,None,Y,,,,,,,male,20,
5,4,59,1,1,2,['d'],['d'],Y,N,None,Y,,,,,,,male,20,
5,5,60,1,1,2,['d'],['k'],N,Y,None,N,,,,,,,male,20,
5,6,61,2,2,2,['d'],['d'],Y,Y,['space'],Y,,,,,,,male,20,
5,7,62,4,4,2,['d'],['d'],Y,Y,None,N,,,,,,,male,20,
5,8,63,4,4,2,['k'],['k'],Y,N,None,Y,,,,,,,male,20,
5,9,64,0,0,2,['d'],['d'],Y,Y,['space'],Y,,,,,,,male,20,
5,10,65,6,6,2,['k'],['k'],Y,N,['space'],N,,,,,,,male,20,
6,0,66,10,10,2,['k'],['k'],Y,Y,['space'],Y,,,,,,,male,20,
6,1,67,8,8,2,['d'],['d'],Y,Y,None,N,,,,,,,male,20,
6,2,68,4,4,2,['k'],['k'],Y,Y,None,N,,,,,,,male,20,
6,3,69,6,6,2,['d'],['k'],N,N,None,Y,,,,,,,male,20,
6,4,70,2,2,2,['d'],['d'],Y,Y,None,N,,,,,,,male,20,
6,5,71,10,10,2,['k'],['k'],Y,N,None,Y,,,,,,,male,20,
6,6,72,1,1,2,['d'],['d'],Y,Y,['space'],Y,,,,,,,male,20,
6,7,73,10,10,2,['d'],['k'],N,Y,['space'],Y,,,,,,,male,20,
6,8,74,1,1,2,['d'],['d'],Y,N,None,Y,,,,,,,male,20,
6,9,75,10,10,2,['k'],['d'],N,Y,['space'],Y,,,,,,,male,20,
6,10,76,3,3,2,['k'],['d'],N,Y,None,N,,,,,,,male,20,
7,0,77,3,3,2,['d'],['d'],Y,Y,['space'],Y,,,,,,,male,20,
7,1,78,6,6,2,['k'],['k'],Y,Y,None,N,,,,,,,male,20,
7,2,79,1,1,2,['d'],['d'],Y,Y,None,N,,,,,,,male,20,
7,3,80,2,2,2,['k'],['k'],Y,N,None,Y,,,,,,,male,20,
7,4,81,3,3,2,['d'],['d'],Y,Y,['space'],Y,,,,,,,male,20,
7,5,82,7,7,2,['k'],['k'],Y,N,None,Y,,,,,,,male,20,
7,6,83,2,2,2,['k'],['k'],Y,N,None,Y,,,,,,,male,20,
7,7,84,1,1,2,['d'],['d'],Y,Y,['space'],Y,,,,,,,male,20,
7,8,85,8,8,2,['k'],['k'],Y,Y,['space'],Y,,,,,,,male,20,
7,9,86,5,5,2,['d'],['d'],Y,Y,['space'],Y,,,,,,,male,20,
7,10,87,5,5,2,['k'],['k'],Y,N,None,Y,,,,,,,male,20,
8,0,88,8,8,2,['d'],['d'],Y,N,None,Y,,,,,,,male,20,
8,1,89,6,6,2,['d'],['d'],Y,Y,['space'],Y,,,,,,,male,20,
8,2,90,7,7,2,['k'],['k'],Y,N,None,Y,,,,,,,male,20,
8,3,91,7,7,2,['d'],['d'],Y,N,None,Y,,,,,,,male,20,
8,4,92,4,4,2,['k'],['d'],N,N,None,Y,,,,,,,male,20,
8,5,93,6,6,2,['d'],['d'],Y,Y,['space'],Y,,,,,,,male,20,
8,6,94,0,0,2,['k'],['k'],Y,Y,None,N,,,,,,,male,20,
8,7,95,10,10,2,['d'],['d'],Y,N,None,Y,,,,,,,male,20,
8,8,96,9,9,2,['k'],['k'],Y,N,None,Y,,,,,,,male,20,
8,9,97,5,5,2,['k'],['k'],Y,Y,['space'],Y,,,,,,,male,20,
8,10,98,3,3,2,['d'],['d'],Y,N,None,Y,,,,,,,male,20,
9,0,99,0,0,2,['d'],['d'],Y,N,None,Y,42,36,25,,,,male,20,
9,1,100,3,3,3,['k'],['k'],Y,,,,,,,,,,male,20,
9,2,101,9,9,3,['d'],['d'],Y,,,,,,,,,,male,20,
9,3,102,4,4,3,['k'],['d'],N,N,None,Y,,,,,,,male,20,
9,4,103,6,6,3,['k'],['k'],Y,Y,None,N,,,,,,,male,20,
9,5,104,5,5,3,['d'],['d'],Y,N,None,Y,,,,,,,male,20,
9,6,105,10,10,3,['d'],['d'],Y,N,['space'],N,,,,,,,male,20,
9,7,106,10,10,3,['d'],['d'],Y,N,None,Y,,,,,,,male,20,
9,8,107,10,10,3,['d'],['d'],Y,N,None,Y,,,,,,,male,20,
9,9,108,9,9,3,['k'],['k'],Y,N,None,Y,,,,,,,male,20,
9,10,109,8,8,3,['k'],['k'],Y,N,None,Y,,,,,,,male,20,
10,0,110,5,5,3,['d'],['d'],Y,Y,['space'],Y,,,,,,,male,20,
10,1,111,0,0,3,['d'],['d'],Y,Y,['space'],Y,,,,,,,male,20,
10,2,112,1,1,3,['k'],['k'],Y,N,None,Y,,,,,,,male,20,
10,3,113,4,4,3,['k'],['k'],Y,Y,['space'],Y,,,,,,,male,20,
10,4,114,9,9,3,['k'],['k'],Y,N,None,Y,,,,,,,male,20,
10,5,115,1,1,3,['k'],['k'],Y,Y,['space'],Y,,,,,,,male,20,
10,6,116,1,1,3,['k'],['k'],Y,N,None,Y,,,,,,,male,20,
10,7,117,3,3,3,['d'],['d'],Y,Y,['space'],Y,,,,,,,male,20,
10,8,118,4,4,3,['k'],['k'],Y,N,None,Y,,,,,,,male,20,
10,9,119,4,4,3,['k'],['k'],Y,N,None,Y,,,,,,,male,20,
10,10,120,9,9,3,['k'],['k'],Y,N,None,Y,,,,,,,male,20,
11,0,121,2,2,3,['d'],['d'],Y,Y,['space'],Y,,,,,,,male,20,
11,1,122,8,8,3,['k'],['k'],Y,Y,['space'],Y,,,,,,,male,20,
11,2,123,10,10,3,['d'],['d'],Y,N,None,Y,,,,,,,male,20,
11,3,124,6,6,3,['d'],['d'],Y,Y,['space'],Y,,,,,,,male,20,
11,4,125,0,0,3,['d'],['d'],Y,Y,None,N,,,,,,,male,20,
11,5,126,6,6,3,['d'],['k'],N,Y,None,N,,,,,,,male,20,
11,6,127,4,4,3,['k'],['k'],Y,Y,['space'],Y,,,,,,,male,20,
11,7,128,10,10,3,['k'],['k'],Y,Y,['space'],Y,,,,,,,male,20,
11,8,129,10,10,3,['k'],['k'],Y,Y,['space'],Y,,,,,,,male,20,
11,9,130,5,5,3,['d'],['d'],Y,Y,['space'],Y,,,,,,,male,20,
11,10,131,2,2,3,['d'],['d'],Y,Y,['space'],Y,,,,,,,male,20,
12,0,132,10,10,3,['d'],['d'],Y,N,None,Y,,,,,,,male,20,
12,1,133,9,9,3,['k'],['k'],Y,Y,['space'],Y,,,,,,,male,20,
12,2,134,10,10,3,['k'],['k'],Y,Y,['space'],Y,,,,,,,male,20,
12,3,135,10,10,3,['d'],['d'],Y,N,None,Y,,,,,,,male,20,
12,4,136,4,4,3,['k'],['k'],Y,Y,['space'],Y,,,,,,,male,20,
12,5,137,0,0,3,['k'],['k'],Y,N,None,Y,,,,,,,male,20,
12,6,138,8,8,3,['k'],['k'],Y,Y,['space'],Y,,,,,,,male,20,
12,7,139,0,0,3,['k'],['k'],Y,N,None,Y,,,,,,,male,20,
12,8,140,6,6,3,['d'],['d'],Y,Y,['space'],Y,,,,,,,male,20,
12,9,141,1,1,3,['d'],['d'],Y,Y,['space'],Y,,,,,,,male,20,
12,10,142,5,5,3,['k'],['d'],N,N,None,Y,,,,,,,male,20,
13,0,143,4,4,3,['d'],['d'],Y,N,None,Y,,,,,,,male,20,
13,1,144,2,2,3,['k'],['d'],N,Y,['space'],Y,,,,,,,male,20,
13,2,145,0,0,3,['k'],['k'],Y,N,None,Y,,,,,,,male,20,
13,3,146,8,8,3,['d'],['d'],Y,N,None,Y,,,,,,,male,20,
13,4,147,7,7,3,['k'],['k'],Y,N,None,Y,,,,,,,male,20,
13,5,148,6,6,3,['k'],['k'],Y,N,None,Y,,,,,,,male,20,
13,6,149,9,9,3,['d'],['d'],Y,Y,['space'],Y,46,44,24,,,,male,20,
13,7,150,10,10,4,['d'],['d'],Y,,,,,,,,,,male,20,
13,8,151,1,1,4,['d'],['d'],Y,,,,,,,,,,male,20,
13,9,152,5,5,4,['k'],['k'],Y,Y,['space'],Y,,,,,,,male,20,
13,10,153,9,9,4,['k'],['k'],Y,N,None,Y,,,,,,,male,20,
14,0,154,5,5,4,['k'],['k'],Y,N,None,Y,,,,,,,male,20,
14,1,155,8,8,4,['d'],['d'],Y,Y,['space'],Y,,,,,,,male,20,
14,2,156,7,7,4,['d'],['d'],Y,N,None,Y,,,,,,,male,20,
14,3,157,7,7,4,['d'],['d'],Y,Y,['space'],Y,,,,,,,male,20,
14,4,158,3,3,4,['d'],['d'],Y,N,None,Y,,,,,,,male,20,
14,5,159,3,3,4,['d'],['d'],Y,N,None,Y,,,,,,,male,20,
14,6,160,2,2,4,['k'],['d'],N,N,None,Y,,,,,,,male,20,
14,7,161,10,10,4,['k'],['k'],Y,N,None,Y,,,,,,,male,20,
14,8,162,1,1,4,['k'],['k'],Y,Y,['space'],Y,,,,,,,male,20,
14,9,163,4,4,4,['k'],['k'],Y,Y,['space'],Y,,,,,,,male,20,
14,10,164,9,9,4,['d'],['d'],Y,Y,['space'],Y,,,,,,,male,20,
15,0,165,0,0,4,['d'],['d'],Y,N,None,Y,,,,,,,male,20,
15,1,166,0,0,4,['k'],['k'],Y,Y,['space'],Y,,,,,,,male,20,
15,2,167,10,10,4,['d'],['d'],Y,N,None,Y,,,,,,,male,20,
15,3,168,1,1,4,['d'],['d'],Y,Y,['space'],Y,,,,,,,male,20,
15,4,169,10,10,4,['d'],['d'],Y,N,None,Y,,,,,,,male,20,
15,5,170,2,2,4,['k'],['d'],N,Y,['space'],Y,,,,,,,male,20,
15,6,171,2,2,4,['d'],['k'],N,Y,None,N,,,,,,,male,20,
15,7,172,3,3,4,['k'],['k'],Y,Y,None,N,,,,,,,male,20,
15,8,173,9,9,4,['k'],['k'],Y,Y,['space'],Y,,,,,,,male,20,
15,9,174,0,0,4,['d'],['d'],Y,Y,None,N,,,,,,,male,20,
15,10,175,9,9,4,['k'],['k'],Y,Y,None,N,,,,,,,male,20,
16,0,176,5,5,4,['k'],['k'],Y,N,None,Y,,,,,,,male,20,
16,1,177,0,0,4,['d'],['d'],Y,N,None,Y,,,,,,,male,20,
16,2,178,9,9,4,['d'],['d'],Y,Y,['space'],Y,,,,,,,male,20,
16,3,179,0,0,4,['k'],['d'],N,N,None,Y,,,,,,,male,20,
16,4,180,6,6,4,['d'],['d'],Y,Y,None,N,,,,,,,male,20,
16,5,181,5,5,4,['k'],['k'],Y,N,None,Y,,,,,,,male,20,
16,6,182,9,9,4,['d'],['d'],Y,Y,['space'],Y,,,,,,,male,20,
16,7,183,8,8,4,['d'],['d'],Y,Y,['space'],Y,,,,,,,male,20,
16,8,184,6,6,4,['d'],['k'],N,N,None,Y,,,,,,,male,20,
16,9,185,7,7,4,['k'],['k'],Y,N,None,Y,,,,,,,male,20,
16,10,186,3,3,4,['d'],['d'],Y,Y,['space'],Y,,,,,,,male,20,
17,0,187,9,9,4,['d'],['d'],Y,Y,None,N,,,,,,,male,20,
17,1,188,7,7,4,['d'],['d'],Y,N,['space'],N,,,,,,,male,20,
17,2,189,6,6,4,['d'],['d'],Y,N,None,Y,,,,,,,male,20,
17,3,190,3,3,4,['d'],['d'],Y,N,None,Y,,,,,,,male,20,
17,4,191,0,0,4,['d'],['k'],N,Y,['space'],Y,,,,,,,male,20,
17,5,192,8,8,4,['d'],['k'],N,N,None,Y,,,,,,,male,20,
17,6,193,0,0,4,['k'],['k'],Y,N,None,Y,,,,,,,male,20,
17,7,194,4,4,4,['d'],['d'],Y,N,None,Y,,,,,,,male,20,
17,8,195,3,3,4,['k'],['k'],Y,Y,['space'],Y,,,,,,,male,20,
17,9,196,10,10,4,['d'],['d'],Y,Y,['space'],Y,,,,,,,male,20,
17,10,197,2,2,4,['d'],['d'],Y,N,None,Y,,,,,,,male,20,
18,0,198,4,4,4,['k'],['k'],Y,N,None,Y,,,,,,,male,20,
18,1,199,8,8,4,['d'],['d'],Y,Y,None,N,43,40,24,,,,male,20,
18,2,200,3,3,5,['k'],['k'],Y,,,,,,,,,,male,20,
18,3,201,5,5,5,['k'],['k'],Y,,,,,,,,,,male,20,
18,4,202,1,1,5,['d'],['d'],Y,Y,None,N,,,,,,,male,20,
18,5,203,1,1,5,['k'],['k'],Y,Y,['space'],Y,,,,,,,male,20,
18,6,204,1,1,5,['d'],['d'],Y,N,None,Y,,,,,,,male,20,
18,7,205,9,9,5,['k'],['k'],Y,Y,None,N,,,,,,,male,20,
18,8,206,8,8,5,['k'],['k'],Y,Y,['space'],Y,,,,,,,male,20,
18,9,207,7,7,5,['k'],['k'],Y,Y,['space'],Y,,,,,,,male,20,
18,10,208,7,7,5,['d'],['d'],Y,N,None,Y,,,,,,,male,20,
19,0,209,3,3,5,['k'],['k'],Y,N,None,Y,,,,,,,male,20,
19,1,210,0,0,5,['k'],['k'],Y,Y,['space'],Y,,,,,,,male,20,
19,2,211,8,8,5,['d'],['d'],Y,N,None,Y,,,,,,,male,20,
19,3,212,5,5,5,['k'],['k'],Y,Y,['space'],Y,,,,,,,male,20,
19,4,213,9,9,5,['k'],['k'],Y,N,None,Y,,,,,,,male,20,
19,5,214,4,4,5,['d'],['d'],Y,Y,['space'],Y,,,,,,,male,20,
19,6,215,1,1,5,['d'],['d'],Y,Y,['space'],Y,,,,,,,male,20,
19,7,216,2,2,5,['d'],['d'],Y,Y,['space'],Y,,,,,,,male,20,
19,8,217,7,7,5,['k'],['d'],N,Y,['space'],Y,,,,,,,male,20,
19,9,218,4,4,5,['k'],['k'],Y,Y,['space'],Y,,,,,,,male,20,
19,10,219,5,5,5,['k'],['k'],Y,N,None,Y,,,,,,,male,20,
20,0,220,4,4,5,['k'],['k'],Y,N,None,Y,,,,,,,male,20,
20,1,221,5,5,5,['k'],['k'],Y,N,None,Y,,,,,,,male,20,
20,2,222,0,0,5,['k'],['k'],Y,Y,['space'],Y,,,,,,,male,20,
20,3,223,0,0,5,['d'],['d'],Y,Y,None,N,,,,,,,male,20,
20,4,224,1,1,5,['d'],['d'],Y,N,None,Y,,,,,,,male,20,
20,5,225,5,5,5,['d'],['d'],Y,N,None,Y,,,,,,,male,20,
20,6,226,5,5,5,['k'],['k'],Y,N,None,Y,,,,,,,male,20,
20,7,227,7,7,5,['d'],['d'],Y,Y,['space'],Y,,,,,,,male,20,
20,8,228,2,2,5,['d'],['d'],Y,N,None,Y,,,,,,,male,20,
20,9,229,8,8,5,['d'],['d'],Y,N,None,Y,,,,,,,male,20,
20,10,230,6,6,5,['k'],['k'],Y,Y,['space'],Y,,,,,,,male,20,
21,0,231,1,1,5,['d'],['d'],Y,N,None,Y,,,,,,,male,20,
21,1,232,0,0,5,['d'],['d'],Y,Y,['space'],Y,,,,,,,male,20,
21,2,233,4,4,5,['d'],['k'],N,Y,['space'],Y,,,,,,,male,20,
21,3,234,8,8,5,['k'],['k'],Y,Y,['space'],Y,,,,,,,male,20,
21,4,235,10,10,5,['k'],['k'],Y,N,None,Y,,,,,,,male,20,
21,5,236,8,8,5,['k'],['k'],Y,N,None,Y,,,,,,,male,20,
21,6,237,9,9,5,['k'],['k'],Y,N,None,Y,,,,,,,male,20,
21,7,238,7,7,5,['k'],['k'],Y,N,None,Y,,,,,,,male,20,
21,8,239,5,5,5,['d'],['d'],Y,Y,['space'],Y,,,,,,,male,20,
21,9,240,6,6,5,['k'],['k'],Y,Y,['space'],Y,,,,,,,male,20,
21,10,241,4,4,5,['k'],['k'],Y,N,None,Y,,,,,,,male,20,
22,0,242,2,2,5,['d'],['d'],Y,Y,['space'],Y,,,,,,,male,20,
22,1,243,0,0,5,['k'],['k'],Y,Y,['space'],Y,,,,,,,male,20,
22,2,244,10,10,5,['k'],['k'],Y,N,None,Y,,,,,,,male,20,
22,3,245,10,10,5,['k'],['k'],Y,N,None,Y,,,,,,,male,20,
22,4,246,9,9,5,['d'],['d'],Y,N,None,Y,,,,,,,male,20,
22,5,247,4,4,5,None,,Timed out,N,None,Y,,,,,,,male,20,
22,6,248,1,1,5,['d'],['d'],Y,N,None,Y,,,,,,,male,20,
22,7,249,4,4,5,['k'],['k'],Y,Y,None,N,47,44,24,,,,male,20,
22,8,250,4,4,6,None,,Timed out,,,,,,,,,,male,20,
22,9,251,5,5,6,None,,Timed out,,,,,,,,,,male,20,
22,10,252,3,3,6,['k'],['k'],Y,N,None,Y,,,,,,,male,20,
23,0,253,7,7,6,['d'],['d'],Y,N,None,Y,,,,,,,male,20,
23,1,254,9,9,6,['k'],['k'],Y,N,None,Y,,,,,,,male,20,
23,2,255,3,3,6,['d'],['d'],Y,N,None,Y,,,,,,,male,20,
23,3,256,3,3,6,['d'],['d'],Y,N,None,Y,,,,,,,male,20,
23,4,257,4,4,6,['k'],['k'],Y,Y,['space'],Y,,,,,,,male,20,
23,5,258,1,1,6,['k'],['k'],Y,N,None,Y,,,,,,,male,20,
23,6,259,0,0,6,['d'],['d'],Y,N,None,Y,,,,,,,male,20,
23,7,260,3,3,6,['k'],['k'],Y,N,None,Y,,,,,,,male,20,
23,8,261,10,10,6,['k'],['k'],Y,Y,['space'],Y,,,,,,,male,20,
23,9,262,0,0,6,['k'],['k'],Y,N,None,Y,,,,,,,male,20,
23,10,263,10,10,6,['k'],['k'],Y,Y,['space'],Y,,,,,,,male,20,
24,0,264,8,8,6,['d'],['d'],Y,Y,['space'],Y,,,,,,,male,20,
24,1,265,9,9,6,['k'],['k'],Y,N,None,Y,,,,,,,male,20,
24,2,266,2,2,6,['k'],['k'],Y,N,None,Y,,,,,,,male,20,
24,3,267,7,7,6,['d'],['d'],Y,N,None,Y,,,,,,,male,20,
24,4,268,2,2,6,['d'],['d'],Y,Y,['space'],Y,,,,,,,male,20,
24,5,269,3,3,6,['d'],['d'],Y,N,None,Y,,,,,,,male,20,
24,6,270,5,5,6,['d'],['d'],Y,N,None,Y,,,,,,,male,20,
24,7,271,3,3,6,['d'],['d'],Y,N,None,Y,,,,,,,male,20,
24,8,272,3,3,6,['k'],['k'],Y,Y,['space'],Y,,,,,,,male,20,
24,9,273,1,1,6,['d'],['d'],Y,N,None,Y,,,,,,,male,20,
24,10,274,6,6,6,['d'],['d'],Y,Y,['space'],Y,,,,,,,male,20,
25,0,275,0,0,6,['k'],['k'],Y,Y,['space'],Y,,,,,,,male,20,
25,1,276,9,9,6,['d'],['d'],Y,N,None,Y,,,,,,,male,20,
25,2,277,7,7,6,['k'],['k'],Y,N,None,Y,,,,,,,male,20,
25,3,278,7,7,6,['d'],['d'],Y,Y,['space'],Y,,,,,,,male,20,
25,4,279,4,4,6,['d'],['k'],N,N,None,Y,,,,,,,male,20,
25,5,280,10,10,6,['k'],['k'],Y,N,None,Y,,,,,,,male,20,
25,6,281,6,6,6,['k'],['k'],Y,N,None,Y,,,,,,,male,20,
25,7,282,0,0,6,['k'],['k'],Y,Y,['space'],Y,,,,,,,male,20,
25,8,283,8,8,6,['k'],['k'],Y,Y,['space'],Y,,,,,,,male,20,
25,9,284,7,7,6,['k'],['k'],Y,N,None,Y,,,,,,,male,20,
25,10,285,6,6,6,['d'],['d'],Y,Y,['space'],Y,,,,,,,male,20,
26,0,286,7,7,6,['d'],['d'],Y,Y,['space'],Y,,,,,,,male,20,
26,1,287,7,7,6,['k'],['k'],Y,N,None,Y,,,,,,,male,20,
26,2,288,7,7,6,['d'],['d'],Y,Y,['space'],Y,,,,,,,male,20,
26,3,289,9,9,6,['k'],['k'],Y,N,None,Y,,,,,,,male,20,
26,4,290,10,10,6,['d'],['d'],Y,N,None,Y,,,,,,,male,20,
26,5,291,6,6,6,['d'],['d'],Y,N,None,Y,,,,,,,male,20,
26,6,292,3,3,6,['d'],['d'],Y,Y,['space'],Y,,,,,,,male,20,
26,7,293,8,8,6,['d'],['d'],Y,N,None,Y,,,,,,,male,20,
26,8,294,3,3,6,['k'],['k'],Y,Y,['space'],Y,,,,,,,male,20,
26,9,295,2,2,6,['d'],['d'],Y,Y,['space'],Y,,,,,,,male,20,
26,10,296,1,1,6,['k'],['k'],Y,Y,['space'],Y,,,,,,,male,20,
27,0,297,7,7,6,['k'],['k'],Y,N,None,Y,,,,,,,male,20,
27,1,298,10,10,6,['d'],['d'],Y,Y,['space'],Y,,,,,,,male,20,
27,2,299,1,1,6,['d'],['d'],Y,N,None,Y,47,48,19,,,,male,20,
27,3,300,5,5,7,['d'],['d'],Y,,,,,,,,,,male,20,
27,4,301,8,8,7,['d'],['d'],Y,,,,,,,,,,male,20,
27,5,302,10,10,7,['k'],['k'],Y,Y,['space'],Y,,,,,,,male,20,
27,6,303,10,10,7,['d'],['d'],Y,N,None,Y,,,,,,,male,20,
27,7,304,8,8,7,['k'],['k'],Y,Y,['space'],Y,,,,,,,male,20,
27,8,305,5,5,7,['d'],['d'],Y,Y,['space'],Y,,,,,,,male,20,
27,9,306,6,6,7,['d'],['d'],Y,N,None,Y,,,,,,,male,20,
27,10,307,10,10,7,['d'],['k'],N,Y,['space'],Y,,,,,,,male,20,
28,0,308,8,8,7,['k'],['k'],Y,N,None,Y,,,,,,,male,20,
28,1,309,8,8,7,['k'],['k'],Y,N,None,Y,,,,,,,male,20,
28,2,310,7,7,7,['d'],['d'],Y,N,None,Y,,,,,,,male,20,
28,3,311,4,4,7,['k'],['k'],Y,Y,['space'],Y,,,,,,,male,20,
28,4,312,2,2,7,['d'],['d'],Y,N,None,Y,,,,,,,male,20,
28,5,313,1,1,7,['k'],['k'],Y,N,None,Y,,,,,,,male,20,
28,6,314,0,0,7,['d'],['d'],Y,Y,['space'],Y,,,,,,,male,20,
28,7,315,4,4,7,['k'],['k'],Y,N,None,Y,,,,,,,male,20,
28,8,316,0,0,7,['d'],['d'],Y,Y,['space'],Y,,,,,,,male,20,
28,9,317,9,9,7,['d'],['k'],N,N,None,Y,,,,,,,male,20,
28,10,318,9,9,7,['d'],['d'],Y,N,None,Y,,,,,,,male,20,
29,0,319,10,10,7,['d'],['d'],Y,Y,['space'],Y,,,,,,,male,20,
29,1,320,6,6,7,['d'],['d'],Y,N,None,Y,,,,,,,male,20,
29,2,321,3,3,7,['d'],['d'],Y,Y,['space'],Y,,,,,,,male,20,
29,3,322,9,9,7,['d'],['d'],Y,Y,['space'],Y,,,,,,,male,20,
29,4,323,1,1,7,['k'],['k'],Y,Y,['space'],Y,,,,,,,male,20,
29,5,324,3,3,7,['d'],['d'],Y,N,None,Y,,,,,,,male,20,
29,6,325,5,5,7,['k'],['k'],Y,N,None,Y,,,,,,,male,20,
29,7,326,10,10,7,['k'],['k'],Y,Y,['space'],Y,,,,,,,male,20,
29,8,327,6,6,7,['d'],['d'],Y,N,None,Y,,,,,,,male,20,
29,9,328,7,7,7,['d'],['d'],Y,N,None,Y,,,,,,,male,20,
29,10,329,2,2,7,['d'],['d'],Y,N,None,Y,,,,,,,male,20,
30,0,330,9,9,7,['k'],['k'],Y,Y,['space'],Y,,,,,,,male,20,
30,1,331,0,0,7,['k'],['k'],Y,Y,['space'],Y,,,,,,,male,20,
30,2,332,2,2,7,['d'],['d'],Y,N,None,Y,,,,,,,male,20,
30,3,333,8,8,7,['d'],['d'],Y,Y,['space'],Y,,,,,,,male,20,
30,4,334,0,0,7,['d'],['d'],Y,N,None,Y,,,,,,,male,20,
30,5,335,4,4,7,['k'],['k'],Y,Y,['space'],Y,,,,,,,male,20,
30,6,336,4,4,7,['d'],['d'],Y,Y,['space'],Y,,,,,,,male,20,
30,7,337,4,4,7,['k'],['k'],Y,N,None,Y,,,,,,,male,20,
30,8,338,1,1,7,['d'],['d'],Y,N,None,Y,,,,,,,male,20,
30,9,339,7,7,7,['k'],['k'],Y,Y,['space'],Y,,,,,,,male,20,
30,10,340,10,10,7,['k'],['k'],Y,Y,None,N,,,,,,,male,20,
31,0,341,10,10,7,['d'],['k'],N,N,None,Y,,,,,,,male,20,
31,1,342,2,2,7,['d'],['k'],N,Y,None,N,,,,,,,male,20,
31,2,343,2,2,7,['d'],['d'],Y,N,None,Y,,,,,,,male,20,
31,3,344,10,10,7,['k'],['k'],Y,N,None,Y,,,,,,,male,20,
31,4,345,2,2,7,['d'],['d'],Y,N,None,Y,,,,,,,male,20,
31,5,346,10,10,7,['d'],['d'],Y,Y,['space'],Y,,,,,,,male,20,
31,6,347,8,8,7,['d'],['d'],Y,N,None,Y,,,,,,,male,20,
31,7,348,4,4,7,['d'],['d'],Y,Y,['space'],Y,,,,,,,male,20,
31,8,349,4,4,7,['d'],['d'],Y,N,None,Y,46,46,22,,,,male,20,
31,9,350,2,2,8,['k'],['k'],Y,,,,,,,,,,male,20,
31,10,351,1,1,8,['k'],['k'],Y,,,,,,,,,,male,20,
32,0,352,7,7,8,['d'],['d'],Y,N,None,Y,,,,,,,male,20,
32,1,353,8,8,8,['k'],['k'],Y,Y,['space'],Y,,,,,,,male,20,
32,2,354,7,7,8,['d'],['d'],Y,Y,['space'],Y,,,,,,,male,20,
32,3,355,5,5,8,['d'],['d'],Y,Y,['space'],Y,,,,,,,male,20,
32,4,356,7,7,8,['d'],['d'],Y,Y,['space'],Y,,,,,,,male,20,
32,5,357,7,7,8,['k'],['k'],Y,Y,['space'],Y,,,,,,,male,20,
32,6,358,1,1,8,['d'],['d'],Y,Y,['space'],Y,,,,,,,male,20,
32,7,359,3,3,8,['d'],['d'],Y,N,None,Y,,,,,,,male,20,
32,8,360,0,0,8,['k'],['d'],N,N,None,Y,,,,,,,male,20,
32,9,361,5,5,8,['k'],['k'],Y,N,None,Y,,,,,,,male,20,
32,10,362,8,8,8,['d'],['d'],Y,Y,['space'],Y,,,,,,,male,20,
33,0,363,5,5,8,['d'],['d'],Y,N,None,Y,,,,,,,male,20,
33,1,364,7,7,8,['k'],['k'],Y,Y,['space'],Y,,,,,,,male,20,
33,2,365,0,0,8,['d'],['k'],N,Y,['space'],Y,,,,,,,male,20,
33,3,366,0,0,8,['k'],['k'],Y,Y,['space'],Y,,,,,,,male,20,
33,4,367,0,0,8,['d'],['k'],N,N,None,Y,,,,,,,male,20,
33,5,368,7,7,8,['k'],['k'],Y,Y,['space'],Y,,,,,,,male,20,
33,6,369,9,9,8,['d'],['d'],Y,Y,['space'],Y,,,,,,,male,20,
33,7,370,6,6,8,['k'],['k'],Y,N,None,Y,,,,,,,male,20,
33,8,371,0,0,8,['k'],['k'],Y,N,None,Y,,,,,,,male,20,
33,9,372,6,6,8,['k'],['k'],Y,N,None,Y,,,,,,,male,20,
33,10,373,9,9,8,['k'],['k'],Y,N,None,Y,,,,,,,male,20,
34,0,374,1,1,8,['d'],['d'],Y,Y,None,N,,,,,,,male,20,
34,1,375,5,5,8,['k'],['k'],Y,N,None,Y,,,,,,,male,20,
34,2,376,9,9,8,['k'],['k'],Y,N,None,Y,,,,,,,male,20,
34,3,377,0,0,8,['k'],['k'],Y,N,None,Y,,,,,,,male,20,
34,4,378,9,9,8,['d'],['d'],Y,Y,['space'],Y,,,,,,,male,20,
34,5,379,6,6,8,['d'],['d'],Y,Y,['space'],Y,,,,,,,male,20,
34,6,380,4,4,8,['k'],['k'],Y,N,None,Y,,,,,,,male,20,
34,7,381,4,4,8,['k'],['k'],Y,Y,['space'],Y,,,,,,,male,20,
34,8,382,7,7,8,['k'],['k'],Y,Y,['space'],Y,,,,,,,male,20,
34,9,383,7,7,8,['d'],['k'],N,Y,['space'],Y,,,,,,,male,20,
34,10,384,7,7,8,['d'],['d'],Y,Y,['space'],Y,,,,,,,male,20,
35,0,385,4,4,8,['d'],['d'],Y,N,None,Y,,,,,,,male,20,
35,1,386,1,1,8,['d'],['d'],Y,N,None,Y,,,,,,,male,20,
35,2,387,5,5,8,['k'],['k'],Y,N,None,Y,,,,,,,male,20,
35,3,388,3,3,8,['d'],['k'],N,Y,None,N,,,,,,,male,20,
35,4,389,1,1,8,['d'],['d'],Y,Y,['space'],Y,,,,,,,male,20,
35,5,390,3,3,8,['d'],['k'],N,N,None,Y,,,,,,,male,20,
35,6,391,0,0,8,['k'],['k'],Y,N,None,Y,,,,,,,male,20,
35,7,392,0,0,8,['d'],['d'],Y,N,None,Y,,,,,,,male,20,
35,8,393,2,2,8,['k'],['k'],Y,N,None,Y,,,,,,,male,20,
35,9,394,10,10,8,['k'],['k'],Y,Y,['space'],Y,,,,,,,male,20,
35,10,395,7,7,8,['d'],['d'],Y,N,None,Y,,,,,,,male,20,
36,0,396,0,0,8,['d'],['d'],Y,N,None,Y,,,,,,,male,20,
36,1,397,10,10,8,['k'],['k'],Y,Y,['space'],Y,,,,,,,male,20,
36,2,398,6,6,8,['k'],['k'],Y,N,None,Y,,,,,,,male,20,
36,3,399,7,7,8,['k'],['k'],Y,Y,['space'],Y,44,46,24,,,,male,20,
36,4,400,3,3,9,['d'],['d'],Y,,,,,,,,,,male,20,
36,5,401,8,8,9,['d'],['d'],Y,,,,,,,,,,male,20,
36,6,402,5,5,9,['d'],['k'],N,Y,None,N,,,,,,,male,20,
36,7,403,10,10,9,['k'],['k'],Y,Y,['space'],Y,,,,,,,male,20,
36,8,404,6,6,9,['d'],['d'],Y,Y,['space'],Y,,,,,,,male,20,
36,9,405,4,4,9,['k'],['k'],Y,Y,['space'],Y,,,,,,,male,20,
36,10,406,6,6,9,['d'],['d'],Y,Y,['space'],Y,,,,,,,male,20,
37,0,407,2,2,9,['k'],['k'],Y,N,None,Y,,,,,,,male,20,
37,1,408,5,5,9,['k'],['k'],Y,Y,None,N,,,,,,,male,20,
37,2,409,3,3,9,['d'],['k'],N,N,None,Y,,,,,,,male,20,
37,3,410,10,10,9,['k'],['k'],Y,N,None,Y,,,,,,,male,20,
37,4,411,5,5,9,['k'],['k'],Y,Y,['space'],Y,,,,,,,male,20,
37,5,412,1,1,9,['d'],['k'],N,Y,None,N,,,,,,,male,20,
37,6,413,5,5,9,['k'],['k'],Y,Y,['space'],Y,,,,,,,male,20,
37,7,414,7,7,9,['k'],['k'],Y,N,None,Y,,,,,,,male,20,
37,8,415,2,2,9,['k'],['k'],Y,Y,['space'],Y,,,,,,,male,20,
37,9,416,3,3,9,['d'],['k'],N,Y,['space'],Y,,,,,,,male,20,
37,10,417,10,10,9,['d'],['d'],Y,N,None,Y,,,,,,,male,20,
38,0,418,9,9,9,['d'],['d'],Y,Y,['space'],Y,,,,,,,male,20,
38,1,419,10,10,9,['d'],['d'],Y,Y,['space'],Y,,,,,,,male,20,
38,2,420,2,2,9,['d'],['d'],Y,Y,['space'],Y,,,,,,,male,20,
38,3,421,10,10,9,['d'],['d'],Y,N,None,Y,,,,,,,male,20,
38,4,422,9,9,9,['k'],['k'],Y,N,None,Y,,,,,,,male,20,
38,5,423,4,4,9,['d'],['d'],Y,N,None,Y,,,,,,,male,20,
38,6,424,6,6,9,['k'],['k'],Y,Y,['space'],Y,,,,,,,male,20,
38,7,425,7,7,9,['d'],['d'],Y,Y,['space'],Y,,,,,,,male,20,
38,8,426,2,2,9,['k'],['k'],Y,N,None,Y,,,,,,,male,20,
38,9,427,8,8,9,['k'],['k'],Y,Y,['space'],Y,,,,,,,male,20,
38,10,428,8,8,9,['d'],['d'],Y,Y,['space'],Y,,,,,,,male,20,
39,0,429,2,2,9,['d'],['d'],Y,N,None,Y,,,,,,,male,20,
39,1,430,10,10,9,['k'],['k'],Y,Y,None,N,,,,,,,male,20,
39,2,431,5,5,9,['k'],['k'],Y,N,None,Y,,,,,,,male,20,
39,3,432,5,5,9,['d'],['d'],Y,Y,['space'],Y,,,,,,,male,20,
39,4,433,7,7,9,['d'],['d'],Y,N,None,Y,,,,,,,male,20,
39,5,434,6,6,9,['k'],['d'],N,N,None,Y,,,,,,,male,20,
39,6,435,2,2,9,['d'],['d'],Y,Y,['space'],Y,,,,,,,male,20,
39,7,436,1,1,9,['d'],['d'],Y,N,None,Y,,,,,,,male,20,
39,8,437,6,6,9,['k'],['k'],Y,N,None,Y,,,,,,,male,20,
39,9,438,8,8,9,['k'],['k'],Y,Y,['space'],Y,,,,,,,male,20,
39,10,439,9,9,9,['d'],['d'],Y,Y,['space'],Y,,,,,,,male,20,
40,0,440,7,7,9,['k'],['k'],Y,N,None,Y,,,,,,,male,20,
40,1,441,9,9,9,['d'],['d'],Y,N,None,Y,,,,,,,male,20,
40,2,442,9,9,9,['k'],['k'],Y,Y,None,N,,,,,,,male,20,
40,3,443,3,3,9,['k'],['k'],Y,Y,['space'],Y,,,,,,,male,20,
40,4,444,8,8,9,['d'],['k'],N,N,None,Y,,,,,,,male,20,
40,5,445,2,2,9,['d'],['d'],Y,N,None,Y,,,,,,,male,20,
40,6,446,8,8,9,['d'],['d'],Y,N,None,Y,,,,,,,male,20,
40,7,447,5,5,9,['k'],['k'],Y,N,None,Y,,,,,,,male,20,
40,8,448,3,3,9,['d'],['d'],Y,N,None,Y,,,,,,,male,20,
40,9,449,6,6,9,['k'],['k'],Y,N,None,Y,44,43,25,,,,male,20,
40,10,450,5,5,10,['k'],['d'],N,,,,,,,,,,male,20,
41,0,451,3,3,10,['k'],['k'],Y,,,,,,,,,,male,20,
41,1,452,3,3,10,['d'],['d'],Y,N,None,Y,,,,,,,male,20,
41,2,453,1,1,10,['d'],['d'],Y,N,None,Y,,,,,,,male,20,
41,3,454,3,3,10,['k'],['k'],Y,N,None,Y,,,,,,,male,20,
41,4,455,4,4,10,['d'],['d'],Y,Y,['space'],Y,,,,,,,male,20,
41,5,456,6,6,10,['k'],['k'],Y,Y,['space'],Y,,,,,,,male,20,
41,6,457,9,9,10,['d'],['d'],Y,Y,['space'],Y,,,,,,,male,20,
41,7,458,5,5,10,['d'],['d'],Y,Y,['space'],Y,,,,,,,male,20,
41,8,459,10,10,10,['k'],['k'],Y,N,None,Y,,,,,,,male,20,
41,9,460,8,8,10,['d'],['d'],Y,Y,['space'],Y,,,,,,,male,20,
41,10,461,1,1,10,['k'],['k'],Y,Y,['space'],Y,,,,,,,male,20,
42,0,462,1,1,10,['k'],['k'],Y,N,None,Y,,,,,,,male,20,
42,1,463,6,6,10,['d'],['d'],Y,Y,['space'],Y,,,,,,,male,20,
42,2,464,2,2,10,['d'],['k'],N,Y,['space'],Y,,,,,,,male,20,
42,3,465,4,4,10,['d'],['d'],Y,Y,['space'],Y,,,,,,,male,20,
42,4,466,9,9,10,['k'],['k'],Y,N,None,Y,,,,,,,male,20,
42,5,467,4,4,10,['k'],['k'],Y,N,None,Y,,,,,,,male,20,
42,6,468,8,8,10,['d'],['d'],Y,N,None,Y,,,,,,,male,20,
42,7,469,8,8,10,['d'],['d'],Y,Y,['space'],Y,,,,,,,male,20,
42,8,470,2,2,10,['d'],['d'],Y,N,None,Y,,,,,,,male,20,
42,9,471,6,6,10,['d'],['k'],N,N,None,Y,,,,,,,male,20,
42,10,472,6,6,10,['d'],['d'],Y,N,None,Y,,,,,,,male,20,
43,0,473,3,3,10,['k'],['d'],N,N,None,Y,,,,,,,male,20,
43,1,474,9,9,10,['k'],['k'],Y,Y,['space'],Y,,,,,,,male,20,
43,2,475,2,2,10,['k'],['k'],Y,Y,None,N,,,,,,,male,20,
43,3,476,4,4,10,['k'],['k'],Y,N,None,Y,,,,,,,male,20,
43,4,477,4,4,10,['d'],['k'],N,Y,['space'],Y,,,,,,,male,20,
43,5,478,1,1,10,['k'],['k'],Y,Y,['space'],Y,,,,,,,male,20,
43,6,479,7,7,10,['k'],['k'],Y,N,None,Y,,,,,,,male,20,
43,7,480,7,7,10,['d'],['d'],Y,N,None,Y,,,,,,,male,20,
43,8,481,6,6,10,['d'],['d'],Y,Y,['space'],Y,,,,,,,male,20,
43,9,482,9,9,10,['d'],['d'],Y,N,None,Y,,,,,,,male,20,
43,10,483,0,0,10,['d'],['d'],Y,N,None,Y,,,,,,,male,20,
44,0,484,5,5,10,['k'],['k'],Y,Y,['space'],Y,,,,,,,male,20,
44,1,485,2,2,10,['k'],['k'],Y,N,None,Y,,,,,,,male,20,
44,2,486,0,0,10,['k'],['k'],Y,N,None,Y,,,,,,,male,20,
44,3,487,4,4,10,['k'],['k'],Y,Y,['space'],Y,,,,,,,male,20,
44,4,488,8,8,10,['k'],['k'],Y,N,None,Y,,,,,,,male,20,
44,5,489,7,7,10,['k'],['k'],Y,N,None,Y,,,,,,,male,20,
44,6,490,5,5,10,['d'],['d'],Y,N,None,Y,,,,,,,male,20,
44,7,491,6,6,10,['d'],['d'],Y,N,None,Y,,,,,,,male,20,
44,8,492,6,6,10,['k'],['k'],Y,Y,['space'],Y,,,,,,,male,20,
44,9,493,5,5,10,['k'],['k'],Y,N,None,Y,,,,,,,male,20,
44,10,494,1,1,10,['k'],['k'],Y,Y,['space'],Y,,,,,,,male,20,
45,0,495,2,2,10,['k'],['k'],Y,N,None,Y,,,,,,,male,20,
45,1,496,10,10,10,['d'],['d'],Y,N,None,Y,,,,,,,male,20,
45,2,497,3,3,10,['d'],['d'],Y,Y,['space'],Y,,,,,,,male,20,
45,3,498,3,3,10,['k'],['k'],Y,N,None,Y,,,,,,,male,20,
45,4,499,3,3,10,['k'],['k'],Y,Y,['space'],Y,45,47,21,,,,male,20,
45,5,500,5,5,11,['k'],['d'],Y,,,,,,,Y,Y,Y,male,20,
45,6,501,0,0,11,['k'],['d'],Y,,,,,,,,Y,Y,male,20,
45,7,502,8,8,11,['k'],['d'],Y,N,None,Y,,,,,Y,Y,male,20,
45,8,503,0,0,11,['d'],['k'],Y,Y,['space'],Y,,,,,Y,Y,male,20,
45,9,504,6,6,11,['k'],['d'],Y,N,None,Y,,,,,Y,Y,male,20,
45,10,505,1,1,11,['d'],['k'],Y,N,None,Y,,,,,Y,Y,male,20,
46,0,506,0,0,11,['d'],['k'],Y,Y,['space'],Y,,,,,Y,Y,male,20,
46,1,507,10,10,11,['d'],['k'],Y,N,None,Y,,,,,Y,Y,male,20,
46,2,508,7,7,11,['d'],['k'],Y,N,None,Y,,,,,Y,Y,male,20,
46,3,509,2,2,11,['k'],['k'],N,N,None,Y,,,,,Y,Y,male,20,
46,4,510,8,8,11,['d'],['k'],Y,N,None,Y,,,,,Y,Y,male,20,
46,5,511,10,10,11,['k'],['d'],Y,Y,['space'],Y,,,,,Y,Y,male,20,
46,6,512,0,0,11,['d'],['d'],N,N,None,Y,,,,,Y,Y,male,20,
46,7,513,3,3,11,['k'],['k'],N,N,None,Y,,,,,Y,Y,male,20,
46,8,514,0,0,11,None,,Timed out,Y,['space'],Y,,,,,Y,Y,male,20,
46,9,515,9,9,11,['d'],['d'],N,Y,None,N,,,,,Y,Y,male,20,
46,10,516,4,4,11,['k'],['d'],Y,Y,None,N,,,,,Y,Y,male,20,
47,0,517,5,5,11,['d'],['k'],Y,N,None,Y,,,,,Y,Y,male,20,
47,1,518,3,3,11,['d'],['k'],Y,N,None,Y,,,,,Y,Y,male,20,
47,2,519,6,6,11,['k'],['d'],Y,Y,['space'],Y,,,,,Y,Y,male,20,
47,3,520,1,1,11,['d'],['k'],Y,Y,['space'],Y,,,,,Y,Y,male,20,
47,4,521,1,1,11,['k'],['d'],Y,N,None,Y,,,,,Y,Y,male,20,
47,5,522,2,2,11,['k'],['d'],Y,N,None,Y,,,,,Y,Y,male,20,
47,6,523,2,2,11,['d'],['k'],Y,N,None,Y,,,,,Y,Y,male,20,
47,7,524,1,1,11,['k'],['d'],Y,Y,['space'],Y,,,,,Y,Y,male,20,
47,8,525,1,1,11,['k'],['d'],Y,N,None,Y,,,,,Y,Y,male,20,
47,9,526,0,0,11,['k'],['k'],N,N,None,Y,,,,,Y,Y,male,20,
47,10,527,2,2,11,['k'],['d'],Y,Y,['space'],Y,,,,,Y,Y,male,20,
48,0,528,8,8,11,['d'],['k'],Y,N,None,Y,,,,,Y,Y,male,20,
48,1,529,3,3,11,['k'],['k'],N,N,None,Y,,,,,Y,Y,male,20,
48,2,530,1,1,11,['k'],['k'],N,N,None,Y,,,,,Y,Y,male,20,
48,3,531,2,2,11,['k'],['d'],Y,Y,None,N,,,,,Y,Y,male,20,
48,4,532,9,9,11,['k'],['d'],Y,N,None,Y,,,,,Y,Y,male,20,
48,5,533,0,0,11,['d'],['k'],Y,Y,None,N,,,,,Y,Y,male,20,
48,6,534,1,1,11,['d'],['k'],Y,N,None,Y,,,,,Y,Y,male,20,
48,7,535,0,0,11,['k'],['d'],Y,Y,['space'],Y,,,,,Y,Y,male,20,
48,8,536,6,6,11,['d'],['k'],Y,N,None,Y,,,,,Y,Y,male,20,
48,9,537,3,3,11,['k'],['d'],Y,Y,['space'],Y,,,,,Y,Y,male,20,
48,10,538,5,5,11,['d'],['k'],Y,Y,None,N,,,,,Y,Y,male,20,
49,0,539,8,8,11,['k'],['d'],Y,N,None,Y,,,,,Y,Y,male,20,
49,1,540,2,2,11,['k'],['d'],Y,Y,['space'],Y,,,,,Y,Y,male,20,
49,2,541,9,9,11,['d'],['d'],N,Y,['space'],Y,,,,,Y,Y,male,20,
49,3,542,1,1,11,['d'],['k'],Y,Y,None,N,,,,,Y,Y,male,20,
49,4,543,2,2,11,['d'],['k'],Y,Y,['space'],Y,,,,,Y,Y,male,20,
49,5,544,0,0,11,['k'],['d'],Y,Y,None,N,,,,,Y,Y,male,20,
49,6,545,5,5,11,['k'],['d'],Y,N,None,Y,,,,,Y,Y,male,20,
49,7,546,6,6,11,['k'],['d'],Y,Y,['space'],Y,,,,,Y,Y,male,20,
49,8,547,6,6,11,['k'],['d'],Y,Y,['space'],Y,,,,,Y,Y,male,20,
49,9,548,9,9,11,['k'],['d'],Y,Y,['space'],Y,,,,,Y,Y,male,20,
49,10,549,8,8,11,['k'],['d'],Y,Y,['space'],Y,41,41,24,,Y,Y,male,20,
50,0,550,0,0,12,['d'],['k'],Y,,,,,,,,Y,Y,male,20,
50,1,551,4,4,12,['d'],['k'],Y,,,,,,,,Y,Y,male,20,
50,2,552,3,3,12,['k'],['d'],Y,Y,['space'],Y,,,,,Y,Y,male,20,
50,3,553,8,8,12,['d'],['k'],Y,N,None,Y,,,,,Y,Y,male,20,
50,4,554,0,0,12,['d'],['k'],Y,N,None,Y,,,,,Y,Y,male,20,
50,5,555,3,3,12,['d'],['k'],Y,Y,['space'],Y,,,,,Y,Y,male,20,
50,6,556,9,9,12,['d'],['k'],Y,Y,['space'],Y,,,,,Y,Y,male,20,
50,7,557,3,3,12,['d'],['k'],Y,N,None,Y,,,,,Y,Y,male,20,
50,8,558,3,3,12,['k'],['d'],Y,N,None,Y,,,,,Y,Y,male,20,
50,9,559,2,2,12,['k'],['d'],Y,Y,['space'],Y,,,,,Y,Y,male,20,
50,10,560,9,9,12,['d'],['k'],Y,Y,['space'],Y,,,,,Y,Y,male,20,
51,0,561,2,2,12,['k'],['d'],Y,Y,['space'],Y,,,,,Y,Y,male,20,
51,1,562,0,0,12,['k'],['d'],Y,N,None,Y,,,,,Y,Y,male,20,
51,2,563,3,3,12,['d'],['k'],Y,N,None,Y,,,,,Y,Y,male,20,
51,3,564,8,8,12,['d'],['k'],Y,N,None,Y,,,,,Y,Y,male,20,
51,4,565,9,9,12,['k'],['d'],Y,Y,['space'],Y,,,,,Y,Y,male,20,
51,5,566,3,3,12,['d'],['d'],N,Y,['space'],Y,,,,,Y,Y,male,20,
51,6,567,8,8,12,['k'],['d'],Y,N,None,Y,,,,,Y,Y,male,20,
51,7,568,8,8,12,['d'],['k'],Y,Y,None,N,,,,,Y,Y,male,20,
51,8,569,8,8,12,['d'],['k'],Y,N,None,Y,,,,,Y,Y,male,20,
51,9,570,2,2,12,['d'],['k'],Y,Y,['space'],Y,,,,,Y,Y,male,20,
51,10,571,5,5,12,['d'],['k'],Y,Y,['space'],Y,,,,,Y,Y,male,20,
52,0,572,1,1,12,['k'],['d'],Y,Y,['space'],Y,,,,,Y,Y,male,20,
52,1,573,7,7,12,['d'],['k'],Y,N,None,Y,,,,,Y,Y,male,20,
52,2,574,8,8,12,['k'],['d'],Y,Y,['space'],Y,,,,,Y,Y,male,20,
52,3,575,6,6,12,['d'],['d'],N,N,None,Y,,,,,Y,Y,male,20,
52,4,576,2,2,12,['d'],['k'],Y,Y,['space'],Y,,,,,Y,Y,male,20,
52,5,577,1,1,12,['k'],['d'],Y,N,None,Y,,,,,Y,Y,male,20,
52,6,578,4,4,12,['k'],['d'],Y,Y,['space'],Y,,,,,Y,Y,male,20,
52,7,579,7,7,12,['k'],['d'],Y,Y,['space'],Y,,,,,Y,Y,male,20,
52,8,580,7,7,12,['k'],['d'],Y,Y,['space'],Y,,,,,Y,Y,male,20,
52,9,581,6,6,12,['k'],['d'],Y,N,None,Y,,,,,Y,Y,male,20,
52,10,582,0,0,12,['d'],['k'],Y,N,None,Y,,,,,Y,Y,male,20,
53,0,583,8,8,12,['k'],['d'],Y,Y,['space'],Y,,,,,Y,Y,male,20,
53,1,584,7,7,12,['k'],['d'],Y,N,None,Y,,,,,Y,Y,male,20,
53,2,585,9,9,12,['k'],['d'],Y,Y,['space'],Y,,,,,Y,Y,male,20,
53,3,586,9,9,12,None,,Timed out,N,None,Y,,,,,Y,Y,male,20,
53,4,587,3,3,12,['k'],['d'],Y,N,None,Y,,,,,Y,Y,male,20,
53,5,588,5,5,12,['d'],['k'],Y,Y,['space'],Y,,,,,Y,Y,male,20,
53,6,589,4,4,12,['d'],['k'],Y,N,None,Y,,,,,Y,Y,male,20,
53,7,590,1,1,12,['k'],['d'],Y,Y,['space'],Y,,,,,Y,Y,male,20,
53,8,591,6,6,12,['d'],['k'],Y,N,None,Y,,,,,Y,Y,male,20,
53,9,592,4,4,12,['d'],['k'],Y,Y,['space'],Y,,,,,Y,Y,male,20,
53,10,593,5,5,12,['k'],['d'],Y,Y,['space'],Y,,,,,Y,Y,male,20,
54,0,594,3,3,12,['k'],['d'],Y,N,None,Y,,,,,Y,Y,male,20,
54,1,595,6,6,12,None,,Timed out,Y,['space'],Y,,,,,Y,Y,male,20,
54,2,596,10,10,12,['k'],['d'],Y,Y,['space'],Y,,,,,Y,Y,male,20,
54,3,597,5,5,12,['d'],['k'],Y,N,None,Y,,,,,Y,Y,male,20,
54,4,598,7,7,12,['d'],['k'],Y,N,None,Y,,,,,Y,Y,male,20,
54,5,599,6,6,12,['k'],['d'],Y,N,None,Y,46,47,25,,Y,Y,male,20,
