.thisRepN,.thisTrialN,.thisN,.thisIndex,.thisTrial,Block Number,Key pressed,Category,Correct?,Int Match?,Int Response,Int Correct?,Line Accuracy,Interference Accuracy,Matching Interferences,New instruction shown?,Buttons switched?,Fast?,gender,age,
0,0,0,9,9,1,['k'],['k'],Y,,,,,,,,,,F,22,
0,1,1,2,2,1,['d'],['k'],N,,,,,,,,,,F,22,
0,2,2,4,4,1,['d'],['d'],Y,Y,None,N,,,,,,,F,22,
0,3,3,6,6,1,['d'],['d'],Y,N,None,Y,,,,,,,F,22,
0,4,4,3,3,1,['d'],['k'],N,N,['space'],N,,,,,,,F,22,
0,5,5,4,4,1,['d'],['k'],N,Y,['space'],Y,,,,,,,F,22,
0,6,6,10,10,1,['k'],['d'],N,N,None,Y,,,,,,,F,22,
0,7,7,6,6,1,['k'],['d'],N,Y,['space'],Y,,,,,,,F,22,
0,8,8,7,7,1,['d'],['d'],Y,N,None,Y,,,,,,,F,22,
0,9,9,8,8,1,['d'],['k'],N,N,None,Y,,,,,,,F,22,
0,10,10,0,0,1,['d'],['d'],Y,Y,['space'],Y,,,,,,,F,22,
1,0,11,0,0,1,['d'],['d'],Y,N,None,Y,,,,,,,F,22,
1,1,12,7,7,1,['d'],['k'],N,N,None,Y,,,,,,,F,22,
1,2,13,7,7,1,['k'],['k'],Y,N,['space'],N,,,,,,,F,22,
1,3,14,0,0,1,['d'],['d'],Y,Y,None,N,,,,,,,F,22,
1,4,15,10,10,1,['k'],['k'],Y,N,['space'],N,,,,,,,F,22,
1,5,16,4,4,1,['k'],['d'],N,N,None,Y,,,,,,,F,22,
1,6,17,5,5,1,['d'],['d'],Y,Y,['d'],N,,,,,,,F,22,
1,7,18,6,6,1,['k'],['k'],Y,N,None,Y,,,,,,,F,22,
1,8,19,2,2,1,['d'],['k'],N,Y,['space'],Y,,,,,,,F,22,
1,9,20,8,8,1,['k'],['d'],N,N,None,Y,,,,,,,F,22,
1,10,21,7,7,1,['d'],['d'],Y,Y,None,N,,,,,,,F,22,
2,0,22,8,8,1,['d'],['d'],Y,N,None,Y,,,,,,,F,22,
2,1,23,0,0,1,['k'],['d'],N,Y,['space'],Y,,,,,,,F,22,
2,2,24,6,6,1,['d'],['d'],Y,Y,['space'],Y,,,,,,,F,22,
2,3,25,0,0,1,['k'],['d'],N,N,None,Y,,,,,,,F,22,
2,4,26,10,10,1,['d'],['d'],Y,N,['space'],N,,,,,,,F,22,
2,5,27,10,10,1,['k'],['d'],N,N,None,Y,,,,,,,F,22,
2,6,28,10,10,1,['k'],['d'],N,N,['space'],N,,,,,,,F,22,
2,7,29,6,6,1,['d'],['k'],N,N,None,Y,,,,,,,F,22,
2,8,30,4,4,1,['k'],['k'],Y,N,['space'],N,,,,,,,F,22,
2,9,31,9,9,1,['k'],['d'],N,Y,['space'],Y,,,,,,,F,22,
2,10,32,4,4,1,['k'],['d'],N,N,['space'],N,,,,,,,F,22,
3,0,33,9,9,1,['d'],['d'],Y,N,None,Y,,,,,,,F,22,
3,1,34,1,1,1,['k'],['d'],N,N,None,Y,,,,,,,F,22,
3,2,35,10,10,1,['d'],['k'],N,N,['space'],N,,,,,,,F,22,
3,3,36,4,4,1,['k'],['d'],N,N,['space'],N,,,,,,,F,22,
3,4,37,6,6,1,['k'],['d'],N,N,None,Y,,,,,,,F,22,
3,5,38,2,2,1,['d'],['d'],Y,Y,['space'],Y,,,,,,,F,22,
3,6,39,0,0,1,['k'],['k'],Y,N,None,Y,,,,,,,F,22,
3,7,40,7,7,1,['d'],['d'],Y,N,None,Y,,,,,,,F,22,
3,8,41,7,7,1,['k'],['k'],Y,Y,None,N,,,,,,,F,22,
3,9,42,5,5,1,['k'],['k'],Y,N,None,Y,,,,,,,F,22,
3,10,43,3,3,1,['k'],['k'],Y,Y,['space'],Y,,,,,,,F,22,
4,0,44,1,1,1,['d'],['k'],N,Y,['space'],Y,,,,,,,F,22,
4,1,45,10,10,1,['d'],['d'],Y,Y,['space'],Y,,,,,,,F,22,
4,2,46,6,6,1,['k'],['k'],Y,N,None,Y,,,,,,,F,22,
4,3,47,6,6,1,['k'],['d'],N,N,None,Y,,,,,,,F,22,
4,4,48,8,8,1,['d'],['d'],Y,N,None,Y,,,,,,,F,22,
4,5,49,4,4,1,['k'],['d'],N,Y,['space'],Y,26,34,17,,,,F,22,
4,6,50,3,3,2,['d'],['d'],Y,,,,,,,,,,F,22,
4,7,51,5,5,2,['k'],['k'],Y,,,,,,,,,,F,22,
4,8,52,8,8,2,['d'],['k'],N,N,None,Y,,,,,,,F,22,
4,9,53,9,9,2,['k'],['d'],N,Y,['space'],Y,,,,,,,F,22,
4,10,54,4,4,2,['d'],['k'],N,N,None,Y,,,,,,,F,22,
5,0,55,1,1,2,['k'],['k'],Y,N,None,Y,,,,,,,F,22,
5,1,56,10,10,2,['k'],['d'],N,N,None,Y,,,,,,,F,22,
5,2,57,1,1,2,['k'],['k'],Y,Y,['space'],Y,,,,,,,F,22,
5,3,58,4,4,2,['k'],['k'],Y,Y,['space'],Y,,,,,,,F,22,
5,4,59,7,7,2,['k'],['d'],N,N,None,Y,,,,,,,F,22,
5,5,60,4,4,2,['d'],['k'],N,N,None,Y,,,,,,,F,22,
5,6,61,6,6,2,['k'],['d'],N,N,None,Y,,,,,,,F,22,
5,7,62,7,7,2,['k'],['k'],Y,Y,['space'],Y,,,,,,,F,22,
5,8,63,1,1,2,['k'],['k'],Y,N,None,Y,,,,,,,F,22,
5,9,64,5,5,2,['k'],['d'],N,N,None,Y,,,,,,,F,22,
5,10,65,7,7,2,['d'],['d'],Y,Y,['space'],Y,,,,,,,F,22,
6,0,66,6,6,2,['k'],['k'],Y,Y,['space'],Y,,,,,,,F,22,
6,1,67,9,9,2,['k'],['k'],Y,N,None,Y,,,,,,,F,22,
6,2,68,1,1,2,['k'],['k'],Y,N,None,Y,,,,,,,F,22,
6,3,69,1,1,2,['k'],['k'],Y,Y,['space'],Y,,,,,,,F,22,
6,4,70,2,2,2,['k'],['k'],Y,Y,['space'],Y,,,,,,,F,22,
6,5,71,10,10,2,['k'],['d'],N,Y,['space'],Y,,,,,,,F,22,
6,6,72,4,4,2,['k'],['k'],Y,N,None,Y,,,,,,,F,22,
6,7,73,3,3,2,['d'],['k'],N,N,None,Y,,,,,,,F,22,
6,8,74,9,9,2,['k'],['d'],N,Y,['space'],Y,,,,,,,F,22,
6,9,75,0,0,2,['k'],['k'],Y,N,None,Y,,,,,,,F,22,
6,10,76,0,0,2,['d'],['d'],Y,Y,None,N,,,,,,,F,22,
7,0,77,7,7,2,['k'],['k'],Y,N,None,Y,,,,,,,F,22,
7,1,78,6,6,2,['k'],['k'],Y,N,None,Y,,,,,,,F,22,
7,2,79,7,7,2,['d'],['d'],Y,Y,['space'],Y,,,,,,,F,22,
7,3,80,5,5,2,['k'],['d'],N,Y,['space'],Y,,,,,,,F,22,
7,4,81,2,2,2,['d'],['k'],N,N,None,Y,,,,,,,F,22,
7,5,82,0,0,2,['k'],['k'],Y,N,None,Y,,,,,,,F,22,
7,6,83,10,10,2,['d'],['d'],Y,Y,None,N,,,,,,,F,22,
7,7,84,5,5,2,['d'],['k'],N,N,None,Y,,,,,,,F,22,
7,8,85,6,6,2,['d'],['k'],N,Y,['space'],Y,,,,,,,F,22,
7,9,86,0,0,2,['k'],['k'],Y,N,None,Y,,,,,,,F,22,
7,10,87,6,6,2,['k'],['k'],Y,Y,None,N,,,,,,,F,22,
8,0,88,9,9,2,['d'],['k'],N,Y,['space'],Y,,,,,,,F,22,
8,1,89,2,2,2,['k'],['d'],N,N,['space'],N,,,,,,,F,22,
8,2,90,0,0,2,['d'],['d'],Y,Y,None,N,,,,,,,F,22,
8,3,91,6,6,2,['k'],['d'],N,Y,['space'],Y,,,,,,,F,22,
8,4,92,10,10,2,['k'],['d'],N,Y,['space'],Y,,,,,,,F,22,
8,5,93,8,8,2,['d'],['d'],Y,Y,['space'],Y,,,,,,,F,22,
8,6,94,9,9,2,['k'],['d'],N,N,None,Y,,,,,,,F,22,
8,7,95,5,5,2,['d'],['k'],N,Y,['space'],Y,,,,,,,F,22,
8,8,96,2,2,2,['k'],['k'],Y,Y,['space'],Y,,,,,,,F,22,
8,9,97,9,9,2,['d'],['d'],Y,N,None,Y,,,,,,,F,22,
8,10,98,4,4,2,['d'],['d'],Y,Y,['space'],Y,,,,,,,F,22,
9,0,99,8,8,2,"['d', 'k']",['k'],N,N,None,Y,28,43,24,,,,F,22,
9,1,100,8,8,3,['d'],['k'],N,,,,,,,,,,F,22,
9,2,101,6,6,3,['d'],['d'],Y,,,,,,,,,,F,22,
9,3,102,10,10,3,['k'],['d'],N,N,None,Y,,,,,,,F,22,
9,4,103,9,9,3,['d'],['d'],Y,Y,['space'],Y,,,,,,,F,22,
9,5,104,10,10,3,['k'],['d'],N,N,None,Y,,,,,,,F,22,
9,6,105,5,5,3,['d'],['d'],Y,Y,['space'],Y,,,,,,,F,22,
9,7,106,9,9,3,['k'],['k'],Y,Y,['space'],Y,,,,,,,F,22,
9,8,107,10,10,3,['k'],['d'],N,Y,['space'],Y,,,,,,,F,22,
9,9,108,4,4,3,['k'],['d'],N,Y,['space'],Y,,,,,,,F,22,
9,10,109,8,8,3,['k'],['k'],Y,Y,['space'],Y,,,,,,,F,22,
10,0,110,4,4,3,['k'],['d'],N,N,None,Y,,,,,,,F,22,
10,1,111,10,10,3,['k'],['k'],Y,N,None,Y,,,,,,,F,22,
10,2,112,6,6,3,['d'],['d'],Y,Y,['space'],Y,,,,,,,F,22,
10,3,113,3,3,3,['k'],['k'],Y,N,None,Y,,,,,,,F,22,
10,4,114,6,6,3,['d'],['d'],Y,N,None,Y,,,,,,,F,22,
10,5,115,1,1,3,['d'],['k'],N,N,None,Y,,,,,,,F,22,
10,6,116,10,10,3,['k'],['d'],N,N,None,Y,,,,,,,F,22,
10,7,117,8,8,3,['d'],['k'],N,N,None,Y,,,,,,,F,22,
10,8,118,0,0,3,['k'],['k'],Y,N,None,Y,,,,,,,F,22,
10,9,119,3,3,3,['d'],['d'],Y,Y,['space'],Y,,,,,,,F,22,
10,10,120,9,9,3,['k'],['d'],N,N,None,Y,,,,,,,F,22,
11,0,121,1,1,3,['k'],['k'],Y,Y,['space'],Y,,,,,,,F,22,
11,1,122,7,7,3,['k'],['d'],N,Y,['space'],Y,,,,,,,F,22,
11,2,123,1,1,3,['d'],['k'],N,Y,['space'],Y,,,,,,,F,22,
11,3,124,10,10,3,['d'],['d'],Y,Y,['space'],Y,,,,,,,F,22,
11,4,125,1,1,3,['k'],['k'],Y,Y,['space'],Y,,,,,,,F,22,
11,5,126,9,9,3,['k'],['d'],N,Y,['space'],Y,,,,,,,F,22,
11,6,127,7,7,3,['d'],['k'],N,N,None,Y,,,,,,,F,22,
11,7,128,3,3,3,['k'],['d'],N,N,None,Y,,,,,,,F,22,
11,8,129,1,1,3,['d'],['d'],Y,Y,['space'],Y,,,,,,,F,22,
11,9,130,7,7,3,['k'],['k'],Y,Y,['space'],Y,,,,,,,F,22,
11,10,131,3,3,3,['k'],['k'],Y,Y,['space'],Y,,,,,,,F,22,
12,0,132,2,2,3,['d'],['d'],Y,Y,['space'],Y,,,,,,,F,22,
12,1,133,7,7,3,['k'],['k'],Y,N,['space'],N,,,,,,,F,22,
12,2,134,6,6,3,['k'],['k'],Y,N,None,Y,,,,,,,F,22,
12,3,135,10,10,3,['k'],['k'],Y,N,None,Y,,,,,,,F,22,
12,4,136,8,8,3,['k'],['k'],Y,Y,['space'],Y,,,,,,,F,22,
12,5,137,10,10,3,['k'],['d'],N,N,['space'],N,,,,,,,F,22,
12,6,138,8,8,3,['k'],['k'],Y,Y,['space'],Y,,,,,,,F,22,
12,7,139,4,4,3,['d'],['d'],Y,Y,['space'],Y,,,,,,,F,22,
12,8,140,3,3,3,['k'],['d'],N,N,None,Y,,,,,,,F,22,
12,9,141,9,9,3,['k'],['d'],N,N,None,Y,,,,,,,F,22,
12,10,142,4,4,3,['d'],['d'],Y,N,None,Y,,,,,,,F,22,
13,0,143,2,2,3,['k'],['k'],Y,N,None,Y,,,,,,,F,22,
13,1,144,7,7,3,['k'],['k'],Y,Y,None,N,,,,,,,F,22,
13,2,145,7,7,3,['k'],['k'],Y,N,['space'],N,,,,,,,F,22,
13,3,146,4,4,3,['k'],['d'],N,N,None,Y,,,,,,,F,22,
13,4,147,6,6,3,['k'],['d'],N,N,['space'],N,,,,,,,F,22,
13,5,148,6,6,3,['k'],['k'],Y,N,None,Y,,,,,,,F,22,
13,6,149,1,1,3,['k'],['d'],N,N,None,Y,29,43,22,,,,F,22,
13,7,150,6,6,4,['k'],['k'],Y,,,,,,,,,,F,22,
13,8,151,10,10,4,['k'],['k'],Y,,,,,,,,,,F,22,
13,9,152,10,10,4,['d'],['k'],N,N,['space'],N,,,,,,,F,22,
13,10,153,0,0,4,['k'],['k'],Y,Y,['space'],Y,,,,,,,F,22,
14,0,154,7,7,4,['k'],['k'],Y,N,None,Y,,,,,,,F,22,
14,1,155,9,9,4,['k'],['k'],Y,N,None,Y,,,,,,,F,22,
14,2,156,5,5,4,['k'],['k'],Y,Y,['space'],Y,,,,,,,F,22,
14,3,157,3,3,4,['k'],['d'],N,Y,['space'],Y,,,,,,,F,22,
14,4,158,3,3,4,['k'],['k'],Y,N,None,Y,,,,,,,F,22,
14,5,159,5,5,4,['d'],['k'],N,Y,['space'],Y,,,,,,,F,22,
14,6,160,9,9,4,['k'],['d'],N,N,['space'],N,,,,,,,F,22,
14,7,161,5,5,4,['k'],['k'],Y,N,None,Y,,,,,,,F,22,
14,8,162,5,5,4,['k'],['k'],Y,Y,['space'],Y,,,,,,,F,22,
14,9,163,8,8,4,['k'],['k'],Y,N,None,Y,,,,,,,F,22,
14,10,164,8,8,4,['k'],['d'],N,Y,['space'],Y,,,,,,,F,22,
15,0,165,5,5,4,['k'],['k'],Y,N,None,Y,,,,,,,F,22,
15,1,166,9,9,4,['k'],['d'],N,Y,['space'],Y,,,,,,,F,22,
15,2,167,8,8,4,['d'],['d'],Y,N,None,Y,,,,,,,F,22,
15,3,168,3,3,4,['k'],['d'],N,N,None,Y,,,,,,,F,22,
15,4,169,8,8,4,['k'],['d'],N,N,None,Y,,,,,,,F,22,
15,5,170,6,6,4,['k'],['k'],Y,Y,['space'],Y,,,,,,,F,22,
15,6,171,10,10,4,['k'],['d'],N,N,None,Y,,,,,,,F,22,
15,7,172,2,2,4,['d'],['k'],N,N,None,Y,,,,,,,F,22,
15,8,173,8,8,4,['k'],['d'],N,Y,['space'],Y,,,,,,,F,22,
15,9,174,0,0,4,['d'],['d'],Y,Y,None,N,,,,,,,F,22,
15,10,175,0,0,4,['k'],['k'],Y,Y,['space'],Y,,,,,,,F,22,
16,0,176,3,3,4,['k'],['d'],N,Y,['space'],Y,,,,,,,F,22,
16,1,177,2,2,4,['k'],['k'],Y,N,['space'],N,,,,,,,F,22,
16,2,178,7,7,4,['d'],['k'],N,Y,['space'],Y,,,,,,,F,22,
16,3,179,5,5,4,['k'],['d'],N,N,None,Y,,,,,,,F,22,
16,4,180,5,5,4,['d'],['d'],Y,Y,['space'],Y,,,,,,,F,22,
16,5,181,9,9,4,['k'],['d'],N,N,None,Y,,,,,,,F,22,
16,6,182,7,7,4,['d'],['d'],Y,N,None,Y,,,,,,,F,22,
16,7,183,5,5,4,['d'],['d'],Y,Y,['space'],Y,,,,,,,F,22,
16,8,184,1,1,4,['k'],['k'],Y,N,None,Y,,,,,,,F,22,
16,9,185,9,9,4,['d'],['k'],N,Y,['space'],Y,,,,,,,F,22,
16,10,186,10,10,4,['k'],['k'],Y,Y,['space'],Y,,,,,,,F,22,
17,0,187,2,2,4,['d'],['k'],N,N,None,Y,,,,,,,F,22,
17,1,188,6,6,4,['d'],['k'],N,N,None,Y,,,,,,,F,22,
17,2,189,2,2,4,['k'],['d'],N,Y,['space'],Y,,,,,,,F,22,
17,3,190,7,7,4,['d'],['d'],Y,Y,['space'],Y,,,,,,,F,22,
17,4,191,6,6,4,['k'],['d'],N,N,['space'],N,,,,,,,F,22,
17,5,192,2,2,4,['k'],['d'],N,N,None,Y,,,,,,,F,22,
17,6,193,5,5,4,['d'],['d'],Y,Y,['space'],Y,,,,,,,F,22,
17,7,194,9,9,4,['d'],['d'],Y,Y,['space'],Y,,,,,,,F,22,
17,8,195,3,3,4,['k'],['d'],N,N,None,Y,,,,,,,F,22,
17,9,196,2,2,4,['d'],['d'],Y,N,None,Y,,,,,,,F,22,
17,10,197,6,6,4,['d'],['d'],Y,N,['space'],N,,,,,,,F,22,
18,0,198,3,3,4,['d'],['d'],Y,Y,['space'],Y,,,,,,,F,22,
18,1,199,1,1,4,['d'],['d'],Y,Y,['space'],Y,28,42,23,,,,F,22,
18,2,200,3,3,5,['d'],['d'],Y,,,,,,,,,,F,22,
18,3,201,1,1,5,['d'],['d'],Y,,,,,,,,,,F,22,
18,4,202,3,3,5,['d'],['k'],N,N,None,Y,,,,,,,F,22,
18,5,203,6,6,5,['d'],['k'],N,N,None,Y,,,,,,,F,22,
18,6,204,9,9,5,['d'],['k'],N,Y,['space'],Y,,,,,,,F,22,
18,7,205,1,1,5,['d'],['d'],Y,N,None,Y,,,,,,,F,22,
18,8,206,9,9,5,['d'],['d'],Y,N,None,Y,,,,,,,F,22,
18,9,207,1,1,5,['d'],['d'],Y,Y,['space'],Y,,,,,,,F,22,
18,10,208,5,5,5,['d'],['d'],Y,N,None,Y,,,,,,,F,22,
19,0,209,7,7,5,['d'],['d'],Y,N,None,Y,,,,,,,F,22,
19,1,210,7,7,5,['d'],['d'],Y,Y,['space'],Y,,,,,,,F,22,
19,2,211,0,0,5,['d'],['k'],N,N,None,Y,,,,,,,F,22,
19,3,212,8,8,5,['d'],['d'],Y,N,None,Y,,,,,,,F,22,
19,4,213,5,5,5,['k'],['k'],Y,N,['space'],N,,,,,,,F,22,
19,5,214,7,7,5,['d'],['k'],N,Y,['space'],Y,,,,,,,F,22,
19,6,215,0,0,5,['d'],['k'],N,N,None,Y,,,,,,,F,22,
19,7,216,5,5,5,['d'],['k'],N,Y,['space'],Y,,,,,,,F,22,
19,8,217,1,1,5,['d'],['k'],N,N,None,Y,,,,,,,F,22,
19,9,218,8,8,5,['d'],['k'],N,Y,['space'],Y,,,,,,,F,22,
19,10,219,1,1,5,['d'],['d'],Y,Y,['space'],Y,,,,,,,F,22,
20,0,220,7,7,5,['d'],['k'],N,N,None,Y,,,,,,,F,22,
20,1,221,10,10,5,['d'],['d'],Y,Y,['space'],Y,,,,,,,F,22,
20,2,222,4,4,5,['d'],['d'],Y,Y,['space'],Y,,,,,,,F,22,
20,3,223,5,5,5,['d'],['k'],N,N,None,Y,,,,,,,F,22,
20,4,224,10,10,5,['d'],['d'],Y,Y,['space'],Y,,,,,,,F,22,
20,5,225,0,0,5,['d'],['d'],Y,Y,['space'],Y,,,,,,,F,22,
20,6,226,3,3,5,['d'],['d'],Y,N,None,Y,,,,,,,F,22,
20,7,227,4,4,5,['d'],['k'],N,N,None,Y,,,,,,,F,22,
20,8,228,9,9,5,['d'],['d'],Y,N,None,Y,,,,,,,F,22,
20,9,229,2,2,5,['d'],['d'],Y,Y,['space'],Y,,,,,,,F,22,
20,10,230,10,10,5,['k'],['d'],N,Y,['space'],Y,,,,,,,F,22,
21,0,231,9,9,5,['d'],['k'],N,N,['space'],N,,,,,,,F,22,
21,1,232,5,5,5,['k'],['d'],N,N,None,Y,,,,,,,F,22,
21,2,233,7,7,5,['d'],['k'],N,Y,['space'],Y,,,,,,,F,22,
21,3,234,7,7,5,['k'],['k'],Y,Y,['space'],Y,,,,,,,F,22,
21,4,235,3,3,5,['d'],['d'],Y,Y,['space'],Y,,,,,,,F,22,
21,5,236,7,7,5,['d'],['d'],Y,Y,['space'],Y,,,,,,,F,22,
21,6,237,5,5,5,['k'],['d'],N,N,None,Y,,,,,,,F,22,
21,7,238,6,6,5,['d'],['k'],N,N,None,Y,,,,,,,F,22,
21,8,239,8,8,5,['k'],['k'],Y,Y,['space'],Y,,,,,,,F,22,
21,9,240,4,4,5,['k'],['d'],N,N,None,Y,,,,,,,F,22,
21,10,241,5,5,5,['d'],['k'],N,N,None,Y,,,,,,,F,22,
22,0,242,7,7,5,['d'],['k'],N,Y,['space'],Y,,,,,,,F,22,
22,1,243,7,7,5,['k'],['d'],N,N,None,Y,,,,,,,F,22,
22,2,244,9,9,5,['k'],['d'],N,Y,['space'],Y,,,,,,,F,22,
22,3,245,3,3,5,['d'],['d'],Y,Y,['space'],Y,,,,,,,F,22,
22,4,246,3,3,5,['d'],['d'],Y,N,None,Y,,,,,,,F,22,
22,5,247,6,6,5,['k'],['d'],N,N,None,Y,,,,,,,F,22,
22,6,248,5,5,5,['d'],['d'],Y,Y,['space'],Y,,,,,,,F,22,
22,7,249,10,10,5,['k'],['d'],N,Y,['space'],Y,25,46,23,,,,F,22,
22,8,250,2,2,6,['k'],['d'],N,,,,,,,,,,F,22,
22,9,251,6,6,6,['k'],['d'],N,,,,,,,,,,F,22,
22,10,252,3,3,6,['d'],['k'],N,N,['space'],N,,,,,,,F,22,
23,0,253,5,5,6,['d'],['k'],N,Y,['space'],Y,,,,,,,F,22,
23,1,254,0,0,6,['d'],['d'],Y,N,None,Y,,,,,,,F,22,
23,2,255,7,7,6,['d'],['d'],Y,Y,['space'],Y,,,,,,,F,22,
23,3,256,3,3,6,['k'],['k'],Y,N,None,Y,,,,,,,F,22,
23,4,257,4,4,6,['d'],['d'],Y,N,None,Y,,,,,,,F,22,
23,5,258,5,5,6,['k'],['d'],N,Y,['space'],Y,,,,,,,F,22,
23,6,259,3,3,6,['d'],['k'],N,Y,['space'],Y,,,,,,,F,22,
23,7,260,8,8,6,['k'],['d'],N,Y,None,N,,,,,,,F,22,
23,8,261,1,1,6,['k'],['k'],Y,Y,None,N,,,,,,,F,22,
23,9,262,10,10,6,['k'],['k'],Y,N,None,Y,,,,,,,F,22,
23,10,263,7,7,6,['d'],['d'],Y,N,None,Y,,,,,,,F,22,
24,0,264,9,9,6,['k'],['d'],N,N,None,Y,,,,,,,F,22,
24,1,265,3,3,6,['k'],['k'],Y,N,None,Y,,,,,,,F,22,
24,2,266,2,2,6,['k'],['d'],N,N,None,Y,,,,,,,F,22,
24,3,267,7,7,6,['d'],['k'],N,Y,['space'],Y,,,,,,,F,22,
24,4,268,5,5,6,['k'],['d'],N,Y,['k'],N,,,,,,,F,22,
24,5,269,10,10,6,['k'],['k'],Y,Y,None,N,,,,,,,F,22,
24,6,270,7,7,6,['k'],['d'],N,Y,None,N,,,,,,,F,22,
24,7,271,5,5,6,['k'],['k'],Y,N,None,Y,,,,,,,F,22,
24,8,272,8,8,6,['k'],['d'],N,Y,['space'],Y,,,,,,,F,22,
24,9,273,1,1,6,['k'],['k'],Y,Y,['space'],Y,,,,,,,F,22,
24,10,274,1,1,6,['k'],['k'],Y,N,None,Y,,,,,,,F,22,
25,0,275,7,7,6,['d'],['k'],N,N,None,Y,,,,,,,F,22,
25,1,276,5,5,6,['k'],['d'],N,Y,['space'],Y,,,,,,,F,22,
25,2,277,0,0,6,['d'],['d'],Y,N,None,Y,,,,,,,F,22,
25,3,278,6,6,6,['k'],['d'],N,Y,None,N,,,,,,,F,22,
25,4,279,8,8,6,['d'],['d'],Y,Y,['space'],Y,,,,,,,F,22,
25,5,280,2,2,6,['d'],['k'],N,Y,['space'],Y,,,,,,,F,22,
25,6,281,2,2,6,['k'],['k'],Y,N,None,Y,,,,,,,F,22,
25,7,282,9,9,6,['k'],['d'],N,N,None,Y,,,,,,,F,22,
25,8,283,8,8,6,['k'],['d'],N,Y,['space'],Y,,,,,,,F,22,
25,9,284,0,0,6,['d'],['k'],N,Y,None,N,,,,,,,F,22,
25,10,285,0,0,6,['k'],['k'],Y,N,None,Y,,,,,,,F,22,
26,0,286,9,9,6,['d'],['k'],N,N,None,Y,,,,,,,F,22,
26,1,287,7,7,6,['k'],['k'],Y,N,None,Y,,,,,,,F,22,
26,2,288,7,7,6,['k'],['k'],Y,Y,['space'],Y,,,,,,,F,22,
26,3,289,2,2,6,['d'],['k'],N,N,None,Y,,,,,,,F,22,
26,4,290,6,6,6,['k'],['d'],N,N,None,Y,,,,,,,F,22,
26,5,291,9,9,6,['d'],['d'],Y,N,None,Y,,,,,,,F,22,
26,6,292,2,2,6,['d'],['d'],Y,Y,['space'],Y,,,,,,,F,22,
26,7,293,2,2,6,['k'],['k'],Y,N,None,Y,,,,,,,F,22,
26,8,294,1,1,6,['d'],['d'],Y,N,None,Y,,,,,,,F,22,
26,9,295,5,5,6,['d'],['k'],N,Y,['space'],Y,,,,,,,F,22,
26,10,296,7,7,6,['k'],['d'],N,N,None,Y,,,,,,,F,22,
27,0,297,7,7,6,['k'],['d'],N,Y,['space'],Y,,,,,,,F,22,
27,1,298,0,0,6,['d'],['k'],N,N,None,Y,,,,,,,F,22,
27,2,299,3,3,6,['k'],['k'],Y,Y,['space'],Y,23,40,23,,,,F,22,
27,3,300,8,8,7,['d'],['d'],Y,,,,,,,,,,F,22,
27,4,301,2,2,7,['d'],['k'],N,,,,,,,,,,F,22,
27,5,302,3,3,7,['k'],['k'],Y,Y,['space'],Y,,,,,,,F,22,
27,6,303,2,2,7,['d'],['k'],N,N,None,Y,,,,,,,F,22,
27,7,304,10,10,7,['k'],['d'],N,Y,['space'],Y,,,,,,,F,22,
27,8,305,8,8,7,['k'],['d'],N,N,['space'],N,,,,,,,F,22,
27,9,306,9,9,7,['d'],['k'],N,N,None,Y,,,,,,,F,22,
27,10,307,0,0,7,['k'],['k'],Y,N,None,Y,,,,,,,F,22,
28,0,308,8,8,7,['k'],['d'],N,Y,['space'],Y,,,,,,,F,22,
28,1,309,0,0,7,['d'],['k'],N,N,None,Y,,,,,,,F,22,
28,2,310,2,2,7,['k'],['d'],N,Y,['space'],Y,,,,,,,F,22,
28,3,311,6,6,7,['k'],['d'],N,Y,['space'],Y,,,,,,,F,22,
28,4,312,10,10,7,['d'],['k'],N,Y,['space'],Y,,,,,,,F,22,
28,5,313,0,0,7,['d'],['d'],Y,N,None,Y,,,,,,,F,22,
28,6,314,7,7,7,['d'],['k'],N,Y,['space'],Y,,,,,,,F,22,
28,7,315,1,1,7,['d'],['d'],Y,Y,['space'],Y,,,,,,,F,22,
28,8,316,5,5,7,['k'],['k'],Y,Y,['space'],Y,,,,,,,F,22,
28,9,317,9,9,7,['k'],['k'],Y,Y,['space'],Y,,,,,,,F,22,
28,10,318,6,6,7,['k'],['d'],N,Y,['space'],Y,,,,,,,F,22,
29,0,319,10,10,7,['k'],['d'],N,N,None,Y,,,,,,,F,22,
29,1,320,5,5,7,['k'],['d'],N,Y,['space'],Y,,,,,,,F,22,
29,2,321,3,3,7,['k'],['k'],Y,N,None,Y,,,,,,,F,22,
29,3,322,0,0,7,['k'],['k'],Y,Y,['space'],Y,,,,,,,F,22,
29,4,323,10,10,7,['k'],['d'],N,Y,['space'],Y,,,,,,,F,22,
29,5,324,0,0,7,['d'],['k'],N,N,['space'],N,,,,,,,F,22,
29,6,325,2,2,7,['k'],['k'],Y,N,None,Y,,,,,,,F,22,
29,7,326,6,6,7,['d'],['k'],N,N,None,Y,,,,,,,F,22,
29,8,327,0,0,7,['k'],['k'],Y,N,['space'],N,,,,,,,F,22,
29,9,328,8,8,7,['k'],['d'],N,N,None,Y,,,,,,,F,22,
29,10,329,2,2,7,['k'],['d'],N,Y,['space'],Y,,,,,,,F,22,
30,0,330,4,4,7,['d'],['d'],Y,Y,['space'],Y,,,,,,,F,22,
30,1,331,3,3,7,['d'],['k'],N,Y,['space'],Y,,,,,,,F,22,
30,2,332,9,9,7,['k'],['k'],Y,Y,['space'],Y,,,,,,,F,22,
30,3,333,0,0,7,['k'],['d'],N,Y,['space'],Y,,,,,,,F,22,
30,4,334,4,4,7,['d'],['d'],Y,Y,['space'],Y,,,,,,,F,22,
30,5,335,2,2,7,['k'],['k'],Y,N,None,Y,,,,,,,F,22,
30,6,336,4,4,7,['d'],['k'],N,Y,['space'],Y,,,,,,,F,22,
30,7,337,7,7,7,['k'],['k'],Y,Y,['space'],Y,,,,,,,F,22,
30,8,338,4,4,7,['k'],['k'],Y,Y,['space'],Y,,,,,,,F,22,
30,9,339,3,3,7,['k'],['k'],Y,N,None,Y,,,,,,,F,22,
30,10,340,10,10,7,['k'],['k'],Y,N,None,Y,,,,,,,F,22,
31,0,341,5,5,7,['k'],['d'],N,N,None,Y,,,,,,,F,22,
31,1,342,1,1,7,['d'],['k'],N,Y,['space'],Y,,,,,,,F,22,
31,2,343,2,2,7,['k'],['k'],Y,Y,['space'],Y,,,,,,,F,22,
31,3,344,9,9,7,['d'],['k'],N,N,None,Y,,,,,,,F,22,
31,4,345,5,5,7,['k'],['k'],Y,N,None,Y,,,,,,,F,22,
31,5,346,1,1,7,['k'],['d'],N,N,None,Y,,,,,,,F,22,
31,6,347,4,4,7,['d'],['d'],Y,N,None,Y,,,,,,,F,22,
31,7,348,2,2,7,['k'],['d'],N,N,None,Y,,,,,,,F,22,
31,8,349,1,1,7,['k'],['d'],N,N,None,Y,22,45,25,,,,F,22,
31,9,350,0,0,8,['d'],['d'],Y,,,,,,,,,,F,22,
31,10,351,9,9,8,['k'],['k'],Y,,,,,,,,,,F,22,
32,0,352,2,2,8,['k'],['k'],Y,Y,['space'],Y,,,,,,,F,22,
32,1,353,9,9,8,['d'],['k'],N,N,None,Y,,,,,,,F,22,
32,2,354,10,10,8,['k'],['k'],Y,Y,['space'],Y,,,,,,,F,22,
32,3,355,7,7,8,['d'],['d'],Y,N,None,Y,,,,,,,F,22,
32,4,356,6,6,8,['d'],['k'],N,N,None,Y,,,,,,,F,22,
32,5,357,4,4,8,['k'],['k'],Y,N,None,Y,,,,,,,F,22,
32,6,358,0,0,8,['k'],['d'],N,N,None,Y,,,,,,,F,22,
32,7,359,0,0,8,['d'],['k'],N,Y,['space'],Y,,,,,,,F,22,
32,8,360,9,9,8,['k'],['k'],Y,N,None,Y,,,,,,,F,22,
32,9,361,2,2,8,['k'],['d'],N,Y,['space'],Y,,,,,,,F,22,
32,10,362,1,1,8,['d'],['k'],N,N,None,Y,,,,,,,F,22,
33,0,363,2,2,8,['k'],['k'],Y,Y,['space'],Y,,,,,,,F,22,
33,1,364,0,0,8,['k'],['d'],N,N,None,Y,,,,,,,F,22,
33,2,365,4,4,8,['k'],['k'],Y,N,None,Y,,,,,,,F,22,
33,3,366,0,0,8,['k'],['k'],Y,N,None,Y,,,,,,,F,22,
33,4,367,0,0,8,['k'],['k'],Y,N,None,Y,,,,,,,F,22,
33,5,368,1,1,8,['d'],['d'],Y,N,None,Y,,,,,,,F,22,
33,6,369,2,2,8,['d'],['k'],N,Y,['space'],Y,,,,,,,F,22,
33,7,370,5,5,8,['k'],['d'],N,N,None,Y,,,,,,,F,22,
33,8,371,0,0,8,['d'],['k'],N,N,None,Y,,,,,,,F,22,
33,9,372,0,0,8,['k'],['k'],Y,N,['space'],N,,,,,,,F,22,
33,10,373,3,3,8,['k'],['k'],Y,N,None,Y,,,,,,,F,22,
34,0,374,8,8,8,['k'],['d'],N,Y,['space'],Y,,,,,,,F,22,
34,1,375,4,4,8,['k'],['k'],Y,Y,['space'],Y,,,,,,,F,22,
34,2,376,6,6,8,['k'],['k'],Y,N,None,Y,,,,,,,F,22,
34,3,377,7,7,8,['d'],['d'],Y,N,None,Y,,,,,,,F,22,
34,4,378,8,8,8,['k'],['k'],Y,Y,['space'],Y,,,,,,,F,22,
34,5,379,3,3,8,['k'],['d'],N,N,['space'],N,,,,,,,F,22,
34,6,380,5,5,8,['d'],['k'],N,Y,None,N,,,,,,,F,22,
34,7,381,5,5,8,['k'],['d'],N,N,None,Y,,,,,,,F,22,
34,8,382,10,10,8,['k'],['d'],N,N,None,Y,,,,,,,F,22,
34,9,383,1,1,8,['k'],['k'],Y,Y,['space'],Y,,,,,,,F,22,
34,10,384,6,6,8,['d'],['d'],Y,N,None,Y,,,,,,,F,22,
35,0,385,1,1,8,['d'],['d'],Y,N,None,Y,,,,,,,F,22,
35,1,386,8,8,8,['d'],['k'],N,N,None,Y,,,,,,,F,22,
35,2,387,1,1,8,['k'],['d'],N,Y,['space'],Y,,,,,,,F,22,
35,3,388,10,10,8,['k'],['k'],Y,Y,['space'],Y,,,,,,,F,22,
35,4,389,7,7,8,['d'],['d'],Y,Y,['space'],Y,,,,,,,F,22,
35,5,390,8,8,8,['k'],['k'],Y,Y,['space'],Y,,,,,,,F,22,
35,6,391,6,6,8,['k'],['d'],N,N,None,Y,,,,,,,F,22,
35,7,392,4,4,8,['d'],['d'],Y,N,None,Y,,,,,,,F,22,
35,8,393,4,4,8,['k'],['k'],Y,Y,['space'],Y,,,,,,,F,22,
35,9,394,8,8,8,['d'],['d'],Y,N,None,Y,,,,,,,F,22,
35,10,395,3,3,8,['d'],['d'],Y,Y,['space'],Y,,,,,,,F,22,
36,0,396,10,10,8,['k'],['k'],Y,Y,['space'],Y,,,,,,,F,22,
36,1,397,5,5,8,['d'],['d'],Y,N,None,Y,,,,,,,F,22,
36,2,398,0,0,8,['d'],['d'],Y,N,None,Y,,,,,,,F,22,
36,3,399,2,2,8,['d'],['d'],Y,N,None,Y,32,45,18,,,,F,22,
36,4,400,5,5,9,['d'],['d'],Y,,,,,,,,,,F,22,
36,5,401,4,4,9,['d'],['d'],Y,,,,,,,,,,F,22,
36,6,402,8,8,9,['d'],['d'],Y,Y,['space'],Y,,,,,,,F,22,
36,7,403,4,4,9,['d'],['d'],Y,Y,['space'],Y,,,,,,,F,22,
36,8,404,1,1,9,['d'],['d'],Y,N,None,Y,,,,,,,F,22,
36,9,405,9,9,9,['k'],['k'],Y,Y,['space'],Y,,,,,,,F,22,
36,10,406,3,3,9,['k'],['k'],Y,Y,['space'],Y,,,,,,,F,22,
37,0,407,6,6,9,['d'],['d'],Y,Y,['space'],Y,,,,,,,F,22,
37,1,408,0,0,9,['k'],['k'],Y,N,None,Y,,,,,,,F,22,
37,2,409,8,8,9,['k'],['k'],Y,Y,['space'],Y,,,,,,,F,22,
37,3,410,10,10,9,['d'],['d'],Y,N,None,Y,,,,,,,F,22,
37,4,411,1,1,9,['d'],['d'],Y,N,None,Y,,,,,,,F,22,
37,5,412,5,5,9,['d'],['d'],Y,N,None,Y,,,,,,,F,22,
37,6,413,0,0,9,['d'],['d'],Y,N,None,Y,,,,,,,F,22,
37,7,414,10,10,9,['k'],['k'],Y,N,None,Y,,,,,,,F,22,
37,8,415,8,8,9,['d'],['d'],Y,Y,['space'],Y,,,,,,,F,22,
37,9,416,4,4,9,['k'],['k'],Y,N,None,Y,,,,,,,F,22,
37,10,417,2,2,9,['k'],['k'],Y,N,None,Y,,,,,,,F,22,
38,0,418,9,9,9,['k'],['k'],Y,Y,['space'],Y,,,,,,,F,22,
38,1,419,9,9,9,['d'],['k'],N,Y,['space'],Y,,,,,,,F,22,
38,2,420,4,4,9,['k'],['d'],N,Y,['space'],Y,,,,,,,F,22,
38,3,421,10,10,9,['k'],['k'],Y,Y,['space'],Y,,,,,,,F,22,
38,4,422,8,8,9,['k'],['k'],Y,N,None,Y,,,,,,,F,22,
38,5,423,3,3,9,['k'],['k'],Y,Y,['space'],Y,,,,,,,F,22,
38,6,424,1,1,9,['k'],['k'],Y,N,None,Y,,,,,,,F,22,
38,7,425,8,8,9,['k'],['k'],Y,N,None,Y,,,,,,,F,22,
38,8,426,6,6,9,['k'],['k'],Y,N,None,Y,,,,,,,F,22,
38,9,427,3,3,9,['k'],['k'],Y,N,None,Y,,,,,,,F,22,
38,10,428,6,6,9,['k'],['d'],N,N,None,Y,,,,,,,F,22,
39,0,429,5,5,9,['d'],['d'],Y,N,None,Y,,,,,,,F,22,
39,1,430,0,0,9,['k'],['k'],Y,Y,['space'],Y,,,,,,,F,22,
39,2,431,2,2,9,['d'],['d'],Y,N,None,Y,,,,,,,F,22,
39,3,432,9,9,9,['d'],['d'],Y,Y,['space'],Y,,,,,,,F,22,
39,4,433,9,9,9,['k'],['d'],N,N,None,Y,,,,,,,F,22,
39,5,434,10,10,9,['d'],['d'],Y,Y,['space'],Y,,,,,,,F,22,
39,6,435,1,1,9,['k'],['k'],Y,Y,['space'],Y,,,,,,,F,22,
39,7,436,2,2,9,['k'],['k'],Y,N,None,Y,,,,,,,F,22,
39,8,437,7,7,9,['k'],['k'],Y,Y,['space'],Y,,,,,,,F,22,
39,9,438,3,3,9,['d'],['d'],Y,N,None,Y,,,,,,,F,22,
39,10,439,7,7,9,['k'],['d'],N,Y,['space'],Y,,,,,,,F,22,
40,0,440,10,10,9,['d'],['d'],Y,N,None,Y,,,,,,,F,22,
40,1,441,9,9,9,['d'],['d'],Y,Y,['space'],Y,,,,,,,F,22,
40,2,442,2,2,9,['k'],['k'],Y,Y,['space'],Y,,,,,,,F,22,
40,3,443,7,7,9,['d'],['d'],Y,Y,['space'],Y,,,,,,,F,22,
40,4,444,2,2,9,['d'],['d'],Y,Y,['space'],Y,,,,,,,F,22,
40,5,445,1,1,9,['d'],['d'],Y,Y,['space'],Y,,,,,,,F,22,
40,6,446,9,9,9,['d'],['d'],Y,N,None,Y,,,,,,,F,22,
40,7,447,1,1,9,['k'],['k'],Y,Y,['space'],Y,,,,,,,F,22,
40,8,448,2,2,9,['d'],['d'],Y,Y,['space'],Y,,,,,,,F,22,
40,9,449,6,6,9,['k'],['k'],Y,N,None,Y,45,48,25,,,,F,22,
40,10,450,8,8,10,['d'],['k'],N,,,,,,,,,,F,22,
41,0,451,6,6,10,['d'],['k'],N,,,,,,,,,,F,22,
41,1,452,10,10,10,['k'],['k'],Y,N,None,Y,,,,,,,F,22,
41,2,453,9,9,10,['d'],['d'],Y,N,None,Y,,,,,,,F,22,
41,3,454,5,5,10,['d'],['d'],Y,Y,['space'],Y,,,,,,,F,22,
41,4,455,6,6,10,['d'],['d'],Y,N,None,Y,,,,,,,F,22,
41,5,456,6,6,10,['k'],['k'],Y,Y,['space'],Y,,,,,,,F,22,
41,6,457,5,5,10,['k'],['k'],Y,Y,['space'],Y,,,,,,,F,22,
41,7,458,8,8,10,['d'],['d'],Y,N,None,Y,,,,,,,F,22,
41,8,459,4,4,10,['k'],['d'],N,N,None,Y,,,,,,,F,22,
41,9,460,4,4,10,['k'],['k'],Y,N,['space'],N,,,,,,,F,22,
41,10,461,1,1,10,['k'],['k'],Y,Y,['space'],Y,,,,,,,F,22,
42,0,462,8,8,10,['k'],['k'],Y,Y,['space'],Y,,,,,,,F,22,
42,1,463,6,6,10,['k'],['k'],Y,Y,['space'],Y,,,,,,,F,22,
42,2,464,8,8,10,['d'],['d'],Y,N,None,Y,,,,,,,F,22,
42,3,465,5,5,10,['d'],['d'],Y,N,None,Y,,,,,,,F,22,
42,4,466,1,1,10,['d'],['d'],Y,N,None,Y,,,,,,,F,22,
42,5,467,1,1,10,['k'],['k'],Y,N,['space'],N,,,,,,,F,22,
42,6,468,4,4,10,['d'],['d'],Y,N,None,Y,,,,,,,F,22,
42,7,469,1,1,10,['k'],['k'],Y,Y,['space'],Y,,,,,,,F,22,
42,8,470,4,4,10,['d'],['d'],Y,Y,['space'],Y,,,,,,,F,22,
42,9,471,4,4,10,['d'],['d'],Y,N,['space'],N,,,,,,,F,22,
42,10,472,7,7,10,['d'],['d'],Y,Y,['space'],Y,,,,,,,F,22,
43,0,473,5,5,10,['d'],['d'],Y,N,None,Y,,,,,,,F,22,
43,1,474,5,5,10,['d'],['d'],Y,Y,['space'],Y,,,,,,,F,22,
43,2,475,2,2,10,['d'],['d'],Y,Y,['space'],Y,,,,,,,F,22,
43,3,476,10,10,10,['d'],['d'],Y,N,None,Y,,,,,,,F,22,
43,4,477,9,9,10,['k'],['k'],Y,Y,['space'],Y,,,,,,,F,22,
43,5,478,9,9,10,['d'],['d'],Y,Y,['space'],Y,,,,,,,F,22,
43,6,479,7,7,10,['d'],['d'],Y,Y,['space'],Y,,,,,,,F,22,
43,7,480,10,10,10,['k'],['k'],Y,Y,['space'],Y,,,,,,,F,22,
43,8,481,6,6,10,['k'],['k'],Y,Y,['space'],Y,,,,,,,F,22,
43,9,482,4,4,10,['k'],['k'],Y,N,None,Y,,,,,,,F,22,
43,10,483,10,10,10,['d'],['d'],Y,Y,['space'],Y,,,,,,,F,22,
44,0,484,0,0,10,['d'],['d'],Y,N,None,Y,,,,,,,F,22,
44,1,485,9,9,10,['d'],['d'],Y,Y,['space'],Y,,,,,,,F,22,
44,2,486,4,4,10,['d'],['d'],Y,Y,['space'],Y,,,,,,,F,22,
44,3,487,0,0,10,['d'],['d'],Y,N,['space'],N,,,,,,,F,22,
44,4,488,8,8,10,['k'],['k'],Y,N,None,Y,,,,,,,F,22,
44,5,489,0,0,10,['d'],['d'],Y,N,None,Y,,,,,,,F,22,
44,6,490,10,10,10,['d'],['d'],Y,Y,['space'],Y,,,,,,,F,22,
44,7,491,7,7,10,['d'],['d'],Y,Y,['space'],Y,,,,,,,F,22,
44,8,492,3,3,10,['k'],['k'],Y,Y,['space'],Y,,,,,,,F,22,
44,9,493,9,9,10,['d'],['d'],Y,N,None,Y,,,,,,,F,22,
44,10,494,0,0,10,['k'],['k'],Y,N,None,Y,,,,,,,F,22,
45,0,495,0,0,10,['k'],['k'],Y,Y,['space'],Y,,,,,,,F,22,
45,1,496,1,1,10,['k'],['k'],Y,N,None,Y,,,,,,,F,22,
45,2,497,3,3,10,['d'],['d'],Y,Y,['space'],Y,,,,,,,F,22,
45,3,498,4,4,10,['k'],['k'],Y,N,None,Y,,,,,,,F,22,
45,4,499,4,4,10,['d'],['d'],Y,Y,['space'],Y,47,44,25,,,,F,22,
45,5,500,8,8,11,['d'],['k'],Y,,,,,,,Y,Y,Y,F,22,
45,6,501,6,6,11,['k'],['d'],Y,,,,,,,,Y,Y,F,22,
45,7,502,4,4,11,['k'],['k'],N,N,None,Y,,,,,Y,Y,F,22,
45,8,503,8,8,11,['k'],['d'],Y,Y,['space'],Y,,,,,Y,Y,F,22,
45,9,504,3,3,11,['d'],['d'],N,Y,['space'],Y,,,,,Y,Y,F,22,
45,10,505,4,4,11,['k'],['d'],Y,Y,['space'],Y,,,,,Y,Y,F,22,
46,0,506,2,2,11,['d'],['k'],Y,Y,['space'],Y,,,,,Y,Y,F,22,
46,1,507,7,7,11,['d'],['k'],Y,Y,['space'],Y,,,,,Y,Y,F,22,
46,2,508,10,10,11,['k'],['d'],Y,Y,['space'],Y,,,,,Y,Y,F,22,
46,3,509,8,8,11,['d'],['k'],Y,N,None,Y,,,,,Y,Y,F,22,
46,4,510,2,2,11,['k'],['d'],Y,Y,['space'],Y,,,,,Y,Y,F,22,
46,5,511,6,6,11,['d'],['d'],N,N,None,Y,,,,,Y,Y,F,22,
46,6,512,1,1,11,['k'],['d'],Y,Y,['space'],Y,,,,,Y,Y,F,22,
46,7,513,10,10,11,['d'],['k'],Y,Y,['space'],Y,,,,,Y,Y,F,22,
46,8,514,10,10,11,['d'],['k'],Y,Y,['space'],Y,,,,,Y,Y,F,22,
46,9,515,8,8,11,['d'],['k'],Y,Y,['space'],Y,,,,,Y,Y,F,22,
46,10,516,5,5,11,['d'],['k'],Y,Y,['space'],Y,,,,,Y,Y,F,22,
47,0,517,4,4,11,['k'],['d'],Y,N,None,Y,,,,,Y,Y,F,22,
47,1,518,3,3,11,['k'],['d'],Y,Y,['space'],Y,,,,,Y,Y,F,22,
47,2,519,5,5,11,['d'],['d'],N,Y,['space'],Y,,,,,Y,Y,F,22,
47,3,520,3,3,11,['d'],['k'],Y,Y,['space'],Y,,,,,Y,Y,F,22,
47,4,521,1,1,11,['k'],['d'],Y,Y,['space'],Y,,,,,Y,Y,F,22,
47,5,522,9,9,11,['k'],['d'],Y,Y,['space'],Y,,,,,Y,Y,F,22,
47,6,523,1,1,11,['d'],['k'],Y,N,None,Y,,,,,Y,Y,F,22,
47,7,524,1,1,11,['d'],['k'],Y,N,None,Y,,,,,Y,Y,F,22,
47,8,525,0,0,11,['d'],['k'],Y,Y,['space'],Y,,,,,Y,Y,F,22,
47,9,526,4,4,11,['d'],['k'],Y,N,None,Y,,,,,Y,Y,F,22,
47,10,527,8,8,11,['d'],['k'],Y,Y,['space'],Y,,,,,Y,Y,F,22,
48,0,528,8,8,11,['d'],['k'],Y,Y,['space'],Y,,,,,Y,Y,F,22,
48,1,529,6,6,11,['d'],['k'],Y,Y,['space'],Y,,,,,Y,Y,F,22,
48,2,530,4,4,11,['d'],['k'],Y,N,None,Y,,,,,Y,Y,F,22,
48,3,531,9,9,11,['d'],['k'],Y,Y,['space'],Y,,,,,Y,Y,F,22,
48,4,532,0,0,11,['k'],['k'],N,N,None,Y,,,,,Y,Y,F,22,
48,5,533,3,3,11,['k'],['d'],Y,N,None,Y,,,,,Y,Y,F,22,
48,6,534,0,0,11,['d'],['k'],Y,Y,['space'],Y,,,,,Y,Y,F,22,
48,7,535,9,9,11,['k'],['d'],Y,Y,['space'],Y,,,,,Y,Y,F,22,
48,8,536,8,8,11,['d'],['k'],Y,Y,['space'],Y,,,,,Y,Y,F,22,
48,9,537,1,1,11,['d'],['k'],Y,N,None,Y,,,,,Y,Y,F,22,
48,10,538,10,10,11,['k'],['d'],Y,N,None,Y,,,,,Y,Y,F,22,
49,0,539,5,5,11,['d'],['k'],Y,N,None,Y,,,,,Y,Y,F,22,
49,1,540,2,2,11,['d'],['k'],Y,N,None,Y,,,,,Y,Y,F,22,
49,2,541,3,3,11,['k'],['d'],Y,N,None,Y,,,,,Y,Y,F,22,
49,3,542,1,1,11,['d'],['k'],Y,N,None,Y,,,,,Y,Y,F,22,
49,4,543,9,9,11,['d'],['k'],Y,N,None,Y,,,,,Y,Y,F,22,
49,5,544,3,3,11,['k'],['d'],Y,N,None,Y,,,,,Y,Y,F,22,
49,6,545,4,4,11,['d'],['k'],Y,N,None,Y,,,,,Y,Y,F,22,
49,7,546,4,4,11,['d'],['k'],Y,N,['space'],N,,,,,Y,Y,F,22,
49,8,547,7,7,11,['d'],['k'],Y,N,None,Y,,,,,Y,Y,F,22,
49,9,548,1,1,11,['d'],['d'],N,N,None,Y,,,,,Y,Y,F,22,
49,10,549,0,0,11,['d'],['k'],Y,N,None,Y,44,47,25,,Y,Y,F,22,
50,0,550,10,10,12,['k'],['d'],Y,,,,,,,,Y,Y,F,22,
50,1,551,1,1,12,['d'],['k'],Y,,,,,,,,Y,Y,F,22,
50,2,552,3,3,12,['k'],['d'],Y,N,None,Y,,,,,Y,Y,F,22,
50,3,553,8,8,12,['d'],['k'],Y,Y,['space'],Y,,,,,Y,Y,F,22,
50,4,554,3,3,12,['d'],['k'],Y,Y,['space'],Y,,,,,Y,Y,F,22,
50,5,555,9,9,12,['k'],['d'],Y,Y,['space'],Y,,,,,Y,Y,F,22,
50,6,556,4,4,12,['k'],['d'],Y,Y,['space'],Y,,,,,Y,Y,F,22,
50,7,557,3,3,12,['d'],['k'],Y,N,None,Y,,,,,Y,Y,F,22,
50,8,558,2,2,12,['d'],['k'],Y,Y,['space'],Y,,,,,Y,Y,F,22,
50,9,559,8,8,12,['d'],['k'],Y,N,None,Y,,,,,Y,Y,F,22,
50,10,560,8,8,12,['k'],['d'],Y,Y,['space'],Y,,,,,Y,Y,F,22,
51,0,561,10,10,12,['d'],['k'],Y,N,None,Y,,,,,Y,Y,F,22,
51,1,562,3,3,12,['d'],['k'],Y,N,None,Y,,,,,Y,Y,F,22,
51,2,563,9,9,12,['k'],['d'],Y,Y,['space'],Y,,,,,Y,Y,F,22,
51,3,564,3,3,12,['k'],['d'],Y,N,None,Y,,,,,Y,Y,F,22,
51,4,565,3,3,12,['d'],['k'],Y,Y,['space'],Y,,,,,Y,Y,F,22,
51,5,566,7,7,12,['d'],['k'],Y,N,None,Y,,,,,Y,Y,F,22,
51,6,567,9,9,12,['d'],['k'],Y,N,None,Y,,,,,Y,Y,F,22,
51,7,568,0,0,12,['d'],['k'],Y,N,None,Y,,,,,Y,Y,F,22,
51,8,569,1,1,12,['d'],['k'],Y,Y,['space'],Y,,,,,Y,Y,F,22,
51,9,570,2,2,12,['k'],['d'],Y,N,None,Y,,,,,Y,Y,F,22,
51,10,571,3,3,12,['k'],['d'],Y,N,None,Y,,,,,Y,Y,F,22,
52,0,572,1,1,12,['d'],['k'],Y,Y,['space'],Y,,,,,Y,Y,F,22,
52,1,573,6,6,12,['d'],['k'],Y,Y,['space'],Y,,,,,Y,Y,F,22,
52,2,574,2,2,12,['d'],['k'],Y,N,None,Y,,,,,Y,Y,F,22,
52,3,575,0,0,12,['d'],['k'],Y,N,['space'],N,,,,,Y,Y,F,22,
52,4,576,5,5,12,['k'],['d'],Y,N,None,Y,,,,,Y,Y,F,22,
52,5,577,8,8,12,['d'],['k'],Y,N,None,Y,,,,,Y,Y,F,22,
52,6,578,4,4,12,['d'],['k'],Y,Y,['space'],Y,,,,,Y,Y,F,22,
52,7,579,3,3,12,['d'],['k'],Y,N,None,Y,,,,,Y,Y,F,22,
52,8,580,7,7,12,['k'],['d'],Y,N,None,Y,,,,,Y,Y,F,22,
52,9,581,0,0,12,['k'],['d'],Y,N,None,Y,,,,,Y,Y,F,22,
52,10,582,5,5,12,['d'],['d'],N,Y,['space'],Y,,,,,Y,Y,F,22,
53,0,583,2,2,12,['d'],['k'],Y,Y,['space'],Y,,,,,Y,Y,F,22,
53,1,584,6,6,12,['k'],['d'],Y,N,None,Y,,,,,Y,Y,F,22,
53,2,585,4,4,12,['d'],['k'],Y,N,None,Y,,,,,Y,Y,F,22,
53,3,586,2,2,12,['d'],['k'],Y,N,None,Y,,,,,Y,Y,F,22,
53,4,587,3,3,12,['k'],['d'],Y,Y,['space'],Y,,,,,Y,Y,F,22,
53,5,588,0,0,12,['d'],['k'],Y,Y,['space'],Y,,,,,Y,Y,F,22,
53,6,589,2,2,12,['d'],['k'],Y,N,['space'],N,,,,,Y,Y,F,22,
53,7,590,5,5,12,['k'],['d'],Y,Y,['space'],Y,,,,,Y,Y,F,22,
53,8,591,6,6,12,['k'],['d'],Y,Y,['space'],Y,,,,,Y,Y,F,22,
53,9,592,2,2,12,['k'],['d'],Y,N,None,Y,,,,,Y,Y,F,22,
53,10,593,1,1,12,['d'],['k'],Y,Y,['space'],Y,,,,,Y,Y,F,22,
54,0,594,5,5,12,['d'],['k'],Y,N,None,Y,,,,,Y,Y,F,22,
54,1,595,2,2,12,['d'],['k'],Y,N,None,Y,,,,,Y,Y,F,22,
54,2,596,3,3,12,['k'],['k'],N,Y,['space'],Y,,,,,Y,Y,F,22,
54,3,597,4,4,12,['d'],['k'],Y,Y,['space'],Y,,,,,Y,Y,F,22,
54,4,598,8,8,12,['d'],['k'],Y,Y,['space'],Y,,,,,Y,Y,F,22,
54,5,599,7,7,12,['k'],['d'],Y,Y,['space'],Y,48,46,23,,Y,Y,F,22,
