.thisRepN,.thisTrialN,.thisN,.thisIndex,.thisTrial,Block Number,Key pressed,Category,Correct?,Int Match?,Int Response,Int Correct?,Line Accuracy,Interference Accuracy,Matching Interferences,New instruction shown?,Buttons switched?,Fast?,gender,age,
0,0,0,4,4,1,['k'],['d'],N,,,,,,,,,,female,20,
0,1,1,1,1,1,['d'],['d'],Y,,,,,,,,,,female,20,
0,2,2,2,2,1,['k'],['k'],Y,N,None,Y,,,,,,,female,20,
0,3,3,8,8,1,['k'],['d'],N,Y,None,N,,,,,,,female,20,
0,4,4,8,8,1,['k'],['d'],N,Y,['space'],Y,,,,,,,female,20,
0,5,5,0,0,1,['d'],['k'],N,N,None,Y,,,,,,,female,20,
0,6,6,0,0,1,['d'],['k'],N,Y,None,N,,,,,,,female,20,
0,7,7,2,2,1,['k'],['d'],N,Y,None,N,,,,,,,female,20,
0,8,8,5,5,1,['d'],['d'],Y,Y,None,N,,,,,,,female,20,
0,9,9,1,1,1,['d'],['k'],N,N,None,Y,,,,,,,female,20,
0,10,10,2,2,1,['k'],['k'],Y,N,None,Y,,,,,,,female,20,
1,0,11,7,7,1,['d'],['k'],N,Y,['space'],Y,,,,,,,female,20,
1,1,12,6,6,1,['k'],['k'],Y,Y,None,N,,,,,,,female,20,
1,2,13,0,0,1,['d'],['d'],Y,N,None,Y,,,,,,,female,20,
1,3,14,9,9,1,['d'],['d'],Y,Y,['space'],Y,,,,,,,female,20,
1,4,15,5,5,1,['d'],['d'],Y,Y,None,N,,,,,,,female,20,
1,5,16,7,7,1,['d'],['k'],N,N,None,Y,,,,,,,female,20,
1,6,17,10,10,1,['k'],['k'],Y,Y,None,N,,,,,,,female,20,
1,7,18,1,1,1,['k'],['d'],N,N,None,Y,,,,,,,female,20,
1,8,19,8,8,1,['d'],['d'],Y,Y,['space'],Y,,,,,,,female,20,
1,9,20,4,4,1,['k'],['k'],Y,N,None,Y,,,,,,,female,20,
1,10,21,0,0,1,['k'],['k'],Y,Y,None,N,,,,,,,female,20,
2,0,22,10,10,1,['d'],['k'],N,N,None,Y,,,,,,,female,20,
2,1,23,1,1,1,['k'],['d'],N,Y,['space'],Y,,,,,,,female,20,
2,2,24,0,0,1,['d'],['k'],N,N,None,Y,,,,,,,female,20,
2,3,25,0,0,1,['k'],['k'],Y,N,None,Y,,,,,,,female,20,
2,4,26,0,0,1,['d'],['k'],N,Y,['space'],Y,,,,,,,female,20,
2,5,27,7,7,1,['k'],['d'],N,N,None,Y,,,,,,,female,20,
2,6,28,1,1,1,['d'],['d'],Y,Y,['space'],Y,,,,,,,female,20,
2,7,29,4,4,1,['k'],['k'],Y,N,None,Y,,,,,,,female,20,
2,8,30,1,1,1,['d'],['d'],Y,N,None,Y,,,,,,,female,20,
2,9,31,9,9,1,['k'],['k'],Y,Y,['space'],Y,,,,,,,female,20,
2,10,32,5,5,1,['k'],['k'],Y,Y,None,N,,,,,,,female,20,
3,0,33,10,10,1,['k'],['k'],Y,Y,None,N,,,,,,,female,20,
3,1,34,3,3,1,['k'],['k'],Y,Y,['space'],Y,,,,,,,female,20,
3,2,35,1,1,1,['k'],['k'],Y,N,['space'],N,,,,,,,female,20,
3,3,36,0,0,1,['d'],['d'],Y,N,None,Y,,,,,,,female,20,
3,4,37,7,7,1,['d'],['d'],Y,N,None,Y,,,,,,,female,20,
3,5,38,6,6,1,['d'],['d'],Y,Y,['space'],Y,,,,,,,female,20,
3,6,39,0,0,1,['d'],['d'],Y,N,None,Y,,,,,,,female,20,
3,7,40,0,0,1,['d'],['d'],Y,Y,['space'],Y,,,,,,,female,20,
3,8,41,1,1,1,['d'],['d'],Y,N,None,Y,,,,,,,female,20,
3,9,42,8,8,1,['k'],['k'],Y,Y,['space'],Y,,,,,,,female,20,
3,10,43,8,8,1,['k'],['k'],Y,Y,['space'],Y,,,,,,,female,20,
4,0,44,0,0,1,['k'],['k'],Y,Y,['space'],Y,,,,,,,female,20,
4,1,45,5,5,1,['k'],['k'],Y,N,None,Y,,,,,,,female,20,
4,2,46,2,2,1,['k'],['k'],Y,Y,['space'],Y,,,,,,,female,20,
4,3,47,8,8,1,['k'],['k'],Y,N,None,Y,,,,,,,female,20,
4,4,48,8,8,1,['d'],['k'],N,N,None,Y,,,,,,,female,20,
4,5,49,8,8,1,['k'],['k'],Y,N,None,Y,34,37,25,,,,female,20,
4,6,50,2,2,2,['k'],['k'],Y,,,,,,,,,,female,20,
4,7,51,3,3,2,['d'],['d'],Y,,,,,,,,,,female,20,
4,8,52,8,8,2,['k'],['k'],Y,N,None,Y,,,,,,,female,20,
4,9,53,9,9,2,['d'],['d'],Y,Y,['space'],Y,,,,,,,female,20,
4,10,54,5,5,2,['k'],['k'],Y,N,None,Y,,,,,,,female,20,
5,0,55,9,9,2,['d'],['d'],Y,Y,None,N,,,,,,,female,20,
5,1,56,6,6,2,['k'],['k'],Y,Y,None,N,,,,,,,female,20,
5,2,57,10,10,2,['k'],['k'],Y,N,None,Y,,,,,,,female,20,
5,3,58,4,4,2,['k'],['k'],Y,N,None,Y,,,,,,,female,20,
5,4,59,7,7,2,['k'],['k'],Y,N,None,Y,,,,,,,female,20,
5,5,60,2,2,2,['d'],['d'],Y,Y,['space'],Y,,,,,,,female,20,
5,6,61,0,0,2,['k'],['k'],Y,Y,['space'],Y,,,,,,,female,20,
5,7,62,8,8,2,['k'],['k'],Y,Y,['space'],Y,,,,,,,female,20,
5,8,63,6,6,2,['k'],['k'],Y,Y,['space'],Y,,,,,,,female,20,
5,9,64,4,4,2,['k'],['k'],Y,N,None,Y,,,,,,,female,20,
5,10,65,9,9,2,['k'],['k'],Y,Y,['space'],Y,,,,,,,female,20,
6,0,66,4,4,2,['k'],['k'],Y,N,None,Y,,,,,,,female,20,
6,1,67,3,3,2,['k'],['k'],Y,N,None,Y,,,,,,,female,20,
6,2,68,6,6,2,['d'],['d'],Y,Y,None,N,,,,,,,female,20,
6,3,69,7,7,2,['k'],['k'],Y,N,None,Y,,,,,,,female,20,
6,4,70,0,0,2,['d'],['d'],Y,Y,['space'],Y,,,,,,,female,20,
6,5,71,10,10,2,['k'],['d'],N,Y,['space'],Y,,,,,,,female,20,
6,6,72,3,3,2,['k'],['k'],Y,Y,['space'],Y,,,,,,,female,20,
6,7,73,6,6,2,['d'],['d'],Y,Y,['space'],Y,,,,,,,female,20,
6,8,74,6,6,2,['k'],['k'],Y,N,None,Y,,,,,,,female,20,
6,9,75,8,8,2,['d'],['d'],Y,Y,['space'],Y,,,,,,,female,20,
6,10,76,1,1,2,['d'],['d'],Y,N,None,Y,,,,,,,female,20,
7,0,77,9,9,2,['d'],['d'],Y,N,None,Y,,,,,,,female,20,
7,1,78,3,3,2,['d'],['d'],Y,N,None,Y,,,,,,,female,20,
7,2,79,7,7,2,['d'],['d'],Y,N,None,Y,,,,,,,female,20,
7,3,80,4,4,2,['d'],['d'],Y,Y,['space'],Y,,,,,,,female,20,
7,4,81,1,1,2,['d'],['d'],Y,Y,['space'],Y,,,,,,,female,20,
7,5,82,7,7,2,['d'],['d'],Y,N,['space'],N,,,,,,,female,20,
7,6,83,7,7,2,['d'],['d'],Y,N,None,Y,,,,,,,female,20,
7,7,84,0,0,2,['k'],['k'],Y,Y,['space'],Y,,,,,,,female,20,
7,8,85,1,1,2,['k'],['k'],Y,Y,['space'],Y,,,,,,,female,20,
7,9,86,9,9,2,['k'],['k'],Y,Y,['space'],Y,,,,,,,female,20,
7,10,87,10,10,2,['d'],['d'],Y,N,None,Y,,,,,,,female,20,
8,0,88,7,7,2,['d'],['d'],Y,N,None,Y,,,,,,,female,20,
8,1,89,7,7,2,['k'],['k'],Y,N,None,Y,,,,,,,female,20,
8,2,90,2,2,2,['d'],['d'],Y,N,None,Y,,,,,,,female,20,
8,3,91,8,8,2,['k'],['k'],Y,Y,['space'],Y,,,,,,,female,20,
8,4,92,4,4,2,['k'],['k'],Y,N,None,Y,,,,,,,female,20,
8,5,93,6,6,2,['d'],['d'],Y,Y,['space'],Y,,,,,,,female,20,
8,6,94,8,8,2,['k'],['k'],Y,N,None,Y,,,,,,,female,20,
8,7,95,3,3,2,['k'],['k'],Y,Y,['space'],Y,,,,,,,female,20,
8,8,96,10,10,2,['d'],['d'],Y,N,None,Y,,,,,,,female,20,
8,9,97,9,9,2,['k'],['k'],Y,Y,['space'],Y,,,,,,,female,20,
8,10,98,3,3,2,['k'],['k'],Y,Y,['space'],Y,,,,,,,female,20,
9,0,99,3,3,2,['d'],['d'],Y,N,None,Y,49,44,24,,,,female,20,
9,1,100,2,2,3,['k'],['k'],Y,,,,,,,,,,female,20,
9,2,101,2,2,3,['k'],['k'],Y,,,,,,,,,,female,20,
9,3,102,2,2,3,['d'],['d'],Y,N,None,Y,,,,,,,female,20,
9,4,103,10,10,3,['d'],['d'],Y,Y,['space'],Y,,,,,,,female,20,
9,5,104,5,5,3,['d'],['d'],Y,N,None,Y,,,,,,,female,20,
9,6,105,1,1,3,['k'],['k'],Y,N,None,Y,,,,,,,female,20,
9,7,106,5,5,3,['k'],['k'],Y,Y,['space'],Y,,,,,,,female,20,
9,8,107,0,0,3,['k'],['k'],Y,Y,['space'],Y,,,,,,,female,20,
9,9,108,8,8,3,['k'],['k'],Y,N,None,Y,,,,,,,female,20,
9,10,109,9,9,3,['d'],['d'],Y,Y,['space'],Y,,,,,,,female,20,
10,0,110,3,3,3,['k'],['k'],Y,Y,['space'],Y,,,,,,,female,20,
10,1,111,8,8,3,['d'],['d'],Y,N,None,Y,,,,,,,female,20,
10,2,112,0,0,3,['k'],['k'],Y,N,None,Y,,,,,,,female,20,
10,3,113,2,2,3,['k'],['d'],N,N,None,Y,,,,,,,female,20,
10,4,114,9,9,3,['d'],['d'],Y,Y,None,N,,,,,,,female,20,
10,5,115,4,4,3,['d'],['d'],Y,N,None,Y,,,,,,,female,20,
10,6,116,0,0,3,['d'],['d'],Y,Y,['space'],Y,,,,,,,female,20,
10,7,117,5,5,3,['k'],['k'],Y,N,['space'],N,,,,,,,female,20,
10,8,118,3,3,3,['d'],['d'],Y,Y,['space'],Y,,,,,,,female,20,
10,9,119,2,2,3,['k'],['k'],Y,N,None,Y,,,,,,,female,20,
10,10,120,5,5,3,['k'],['k'],Y,Y,['space'],Y,,,,,,,female,20,
11,0,121,3,3,3,['k'],['k'],Y,N,None,Y,,,,,,,female,20,
11,1,122,8,8,3,['d'],['d'],Y,N,None,Y,,,,,,,female,20,
11,2,123,9,9,3,['d'],['d'],Y,N,None,Y,,,,,,,female,20,
11,3,124,3,3,3,['k'],['k'],Y,N,None,Y,,,,,,,female,20,
11,4,125,6,6,3,['k'],['d'],N,Y,['space'],Y,,,,,,,female,20,
11,5,126,3,3,3,['d'],['d'],Y,Y,['space'],Y,,,,,,,female,20,
11,6,127,6,6,3,['d'],['d'],Y,Y,['space'],Y,,,,,,,female,20,
11,7,128,3,3,3,['d'],['d'],Y,Y,['space'],Y,,,,,,,female,20,
11,8,129,0,0,3,['d'],['d'],Y,N,None,Y,,,,,,,female,20,
11,9,130,0,0,3,['k'],['k'],Y,N,None,Y,,,,,,,female,20,
11,10,131,6,6,3,['k'],['k'],Y,N,None,Y,,,,,,,female,20,
12,0,132,4,4,3,['d'],['d'],Y,Y,['space'],Y,,,,,,,female,20,
12,1,133,6,6,3,['k'],['k'],Y,N,None,Y,,,,,,,female,20,
12,2,134,8,8,3,['d'],['d'],Y,Y,['space'],Y,,,,,,,female,20,
12,3,135,5,5,3,['d'],['d'],Y,N,None,Y,,,,,,,female,20,
12,4,136,4,4,3,['k'],['k'],Y,Y,['space'],Y,,,,,,,female,20,
12,5,137,1,1,3,['d'],['d'],Y,Y,['space'],Y,,,,,,,female,20,
12,6,138,4,4,3,['k'],['k'],Y,Y,['space'],Y,,,,,,,female,20,
12,7,139,10,10,3,['k'],['k'],Y,N,None,Y,,,,,,,female,20,
12,8,140,8,8,3,['k'],['k'],Y,N,None,Y,,,,,,,female,20,
12,9,141,9,9,3,['d'],['d'],Y,N,None,Y,,,,,,,female,20,
12,10,142,7,7,3,['k'],['k'],Y,Y,['space'],Y,,,,,,,female,20,
13,0,143,9,9,3,['k'],['k'],Y,N,None,Y,,,,,,,female,20,
13,1,144,7,7,3,['d'],['d'],Y,Y,['space'],Y,,,,,,,female,20,
13,2,145,6,6,3,['d'],['d'],Y,Y,['space'],Y,,,,,,,female,20,
13,3,146,4,4,3,['k'],['k'],Y,Y,['space'],Y,,,,,,,female,20,
13,4,147,9,9,3,['k'],['k'],Y,Y,['space'],Y,,,,,,,female,20,
13,5,148,0,0,3,['d'],['d'],Y,N,None,Y,,,,,,,female,20,
13,6,149,2,2,3,['k'],['k'],Y,Y,['space'],Y,48,46,24,,,,female,20,
13,7,150,2,2,4,['d'],['d'],Y,,,,,,,,,,female,20,
13,8,151,4,4,4,['k'],['k'],Y,,,,,,,,,,female,20,
13,9,152,6,6,4,['d'],['d'],Y,Y,['space'],Y,,,,,,,female,20,
13,10,153,6,6,4,['k'],['k'],Y,Y,['space'],Y,,,,,,,female,20,
14,0,154,8,8,4,['d'],['d'],Y,N,None,Y,,,,,,,female,20,
14,1,155,6,6,4,['d'],['d'],Y,N,None,Y,,,,,,,female,20,
14,2,156,4,4,4,['k'],['k'],Y,N,None,Y,,,,,,,female,20,
14,3,157,1,1,4,['d'],['d'],Y,Y,['space'],Y,,,,,,,female,20,
14,4,158,9,9,4,['d'],['d'],Y,Y,['space'],Y,,,,,,,female,20,
14,5,159,4,4,4,['d'],['d'],Y,Y,['space'],Y,,,,,,,female,20,
14,6,160,7,7,4,['k'],['k'],Y,Y,['space'],Y,,,,,,,female,20,
14,7,161,1,1,4,['d'],['d'],Y,Y,['space'],Y,,,,,,,female,20,
14,8,162,2,2,4,['d'],['d'],Y,N,None,Y,,,,,,,female,20,
14,9,163,2,2,4,['d'],['d'],Y,N,None,Y,,,,,,,female,20,
14,10,164,2,2,4,['d'],['d'],Y,N,None,Y,,,,,,,female,20,
15,0,165,3,3,4,['k'],['k'],Y,Y,['space'],Y,,,,,,,female,20,
15,1,166,4,4,4,['d'],['d'],Y,Y,['space'],Y,,,,,,,female,20,
15,2,167,5,5,4,['k'],['k'],Y,N,None,Y,,,,,,,female,20,
15,3,168,1,1,4,['k'],['k'],Y,N,None,Y,,,,,,,female,20,
15,4,169,5,5,4,['k'],['k'],Y,N,None,Y,,,,,,,female,20,
15,5,170,4,4,4,['k'],['k'],Y,Y,['space'],Y,,,,,,,female,20,
15,6,171,2,2,4,['k'],['k'],Y,N,None,Y,,,,,,,female,20,
15,7,172,9,9,4,['k'],['k'],Y,Y,['space'],Y,,,,,,,female,20,
15,8,173,6,6,4,['k'],['k'],Y,Y,['space'],Y,,,,,,,female,20,
15,9,174,4,4,4,['k'],['k'],Y,N,None,Y,,,,,,,female,20,
15,10,175,0,0,4,['d'],['d'],Y,N,None,Y,,,,,,,female,20,
16,0,176,6,6,4,['d'],['d'],Y,N,None,Y,,,,,,,female,20,
16,1,177,8,8,4,['k'],['k'],Y,Y,['space'],Y,,,,,,,female,20,
16,2,178,7,7,4,['d'],['d'],Y,Y,['space'],Y,,,,,,,female,20,
16,3,179,9,9,4,['d'],['d'],Y,Y,['space'],Y,,,,,,,female,20,
16,4,180,7,7,4,['d'],['d'],Y,N,None,Y,,,,,,,female,20,
16,5,181,3,3,4,['d'],['d'],Y,Y,['space'],Y,,,,,,,female,20,
16,6,182,0,0,4,['k'],['k'],Y,N,None,Y,,,,,,,female,20,
16,7,183,4,4,4,['d'],['d'],Y,N,None,Y,,,,,,,female,20,
16,8,184,2,2,4,['d'],['d'],Y,N,None,Y,,,,,,,female,20,
16,9,185,7,7,4,['k'],['k'],Y,N,None,Y,,,,,,,female,20,
16,10,186,10,10,4,['d'],['d'],Y,Y,['space'],Y,,,,,,,female,20,
17,0,187,7,7,4,['k'],['k'],Y,N,None,Y,,,,,,,female,20,
17,1,188,7,7,4,['k'],['k'],Y,N,None,Y,,,,,,,female,20,
17,2,189,5,5,4,['k'],['k'],Y,N,None,Y,,,,,,,female,20,
17,3,190,8,8,4,['k'],['k'],Y,N,None,Y,,,,,,,female,20,
17,4,191,6,6,4,['k'],['k'],Y,N,None,Y,,,,,,,female,20,
17,5,192,2,2,4,['k'],['k'],Y,Y,['space'],Y,,,,,,,female,20,
17,6,193,6,6,4,['d'],['d'],Y,N,None,Y,,,,,,,female,20,
17,7,194,10,10,4,['d'],['d'],Y,Y,['space'],Y,,,,,,,female,20,
17,8,195,10,10,4,['d'],['d'],Y,N,None,Y,,,,,,,female,20,
17,9,196,6,6,4,['d'],['d'],Y,N,None,Y,,,,,,,female,20,
17,10,197,0,0,4,['k'],['k'],Y,N,None,Y,,,,,,,female,20,
18,0,198,3,3,4,['d'],['d'],Y,N,None,Y,,,,,,,female,20,
18,1,199,10,10,4,['k'],['k'],Y,N,None,Y,50,48,19,,,,female,20,
18,2,200,3,3,5,['d'],['d'],Y,,,,,,,,,,female,20,
18,3,201,10,10,5,['k'],['k'],Y,,,,,,,,,,female,20,
18,4,202,0,0,5,['d'],['k'],N,Y,['space'],Y,,,,,,,female,20,
18,5,203,5,5,5,['d'],['d'],Y,N,None,Y,,,,,,,female,20,
18,6,204,1,1,5,['d'],['d'],Y,Y,['space'],Y,,,,,,,female,20,
18,7,205,7,7,5,['k'],['k'],Y,Y,['space'],Y,,,,,,,female,20,
18,8,206,5,5,5,['k'],['k'],Y,N,None,Y,,,,,,,female,20,
18,9,207,6,6,5,['k'],['k'],Y,N,None,Y,,,,,,,female,20,
18,10,208,5,5,5,['k'],['k'],Y,N,None,Y,,,,,,,female,20,
19,0,209,4,4,5,['d'],['d'],Y,Y,['space'],Y,,,,,,,female,20,
19,1,210,5,5,5,['d'],['d'],Y,N,None,Y,,,,,,,female,20,
19,2,211,0,0,5,['d'],['d'],Y,N,None,Y,,,,,,,female,20,
19,3,212,0,0,5,['k'],['k'],Y,Y,['space'],Y,,,,,,,female,20,
19,4,213,9,9,5,['d'],['d'],Y,Y,None,N,,,,,,,female,20,
19,5,214,8,8,5,['k'],['k'],Y,N,None,Y,,,,,,,female,20,
19,6,215,5,5,5,['d'],['d'],Y,Y,['space'],Y,,,,,,,female,20,
19,7,216,2,2,5,['d'],['d'],Y,Y,['space'],Y,,,,,,,female,20,
19,8,217,7,7,5,['k'],['k'],Y,N,None,Y,,,,,,,female,20,
19,9,218,9,9,5,['d'],['d'],Y,N,None,Y,,,,,,,female,20,
19,10,219,2,2,5,['k'],['k'],Y,N,None,Y,,,,,,,female,20,
20,0,220,6,6,5,['d'],['d'],Y,Y,['space'],Y,,,,,,,female,20,
20,1,221,7,7,5,['d'],['d'],Y,N,None,Y,,,,,,,female,20,
20,2,222,7,7,5,['k'],['k'],Y,N,None,Y,,,,,,,female,20,
20,3,223,6,6,5,['k'],['k'],Y,Y,['space'],Y,,,,,,,female,20,
20,4,224,4,4,5,['d'],['d'],Y,Y,['space'],Y,,,,,,,female,20,
20,5,225,9,9,5,['k'],['k'],Y,N,None,Y,,,,,,,female,20,
20,6,226,4,4,5,['k'],['k'],Y,N,None,Y,,,,,,,female,20,
20,7,227,3,3,5,['d'],['d'],Y,N,None,Y,,,,,,,female,20,
20,8,228,1,1,5,['d'],['d'],Y,Y,['space'],Y,,,,,,,female,20,
20,9,229,8,8,5,['k'],['k'],Y,N,None,Y,,,,,,,female,20,
20,10,230,2,2,5,['d'],['d'],Y,N,None,Y,,,,,,,female,20,
21,0,231,3,3,5,['d'],['d'],Y,N,None,Y,,,,,,,female,20,
21,1,232,2,2,5,['k'],['k'],Y,N,None,Y,,,,,,,female,20,
21,2,233,8,8,5,['k'],['k'],Y,Y,['space'],Y,,,,,,,female,20,
21,3,234,4,4,5,['k'],['k'],Y,Y,['space'],Y,,,,,,,female,20,
21,4,235,3,3,5,['d'],['d'],Y,N,None,Y,,,,,,,female,20,
21,5,236,1,1,5,['d'],['d'],Y,Y,['space'],Y,,,,,,,female,20,
21,6,237,1,1,5,['k'],['k'],Y,N,None,Y,,,,,,,female,20,
21,7,238,6,6,5,['d'],['d'],Y,N,None,Y,,,,,,,female,20,
21,8,239,0,0,5,['k'],['k'],Y,N,None,Y,,,,,,,female,20,
21,9,240,6,6,5,['k'],['k'],Y,Y,['space'],Y,,,,,,,female,20,
21,10,241,9,9,5,['d'],['d'],Y,N,None,Y,,,,,,,female,20,
22,0,242,7,7,5,['k'],['k'],Y,Y,['space'],Y,,,,,,,female,20,
22,1,243,1,1,5,['d'],['d'],Y,Y,['space'],Y,,,,,,,female,20,
22,2,244,1,1,5,['d'],['d'],Y,Y,None,N,,,,,,,female,20,
22,3,245,9,9,5,['k'],['k'],Y,N,None,Y,,,,,,,female,20,
22,4,246,0,0,5,['k'],['k'],Y,N,None,Y,,,,,,,female,20,
22,5,247,5,5,5,['k'],['k'],Y,Y,['space'],Y,,,,,,,female,20,
22,6,248,9,9,5,['k'],['k'],Y,Y,['space'],Y,,,,,,,female,20,
22,7,249,10,10,5,['k'],['k'],Y,N,None,Y,49,46,21,,,,female,20,
22,8,250,4,4,6,['d'],['d'],Y,,,,,,,,,,female,20,
22,9,251,4,4,6,['k'],['k'],Y,,,,,,,,,,female,20,
22,10,252,1,1,6,['d'],['d'],Y,Y,['space'],Y,,,,,,,female,20,
23,0,253,2,2,6,['d'],['d'],Y,N,None,Y,,,,,,,female,20,
23,1,254,8,8,6,['d'],['d'],Y,N,None,Y,,,,,,,female,20,
23,2,255,7,7,6,['k'],['k'],Y,Y,['space'],Y,,,,,,,female,20,
23,3,256,8,8,6,['k'],['k'],Y,Y,['space'],Y,,,,,,,female,20,
23,4,257,2,2,6,['k'],['k'],Y,Y,['space'],Y,,,,,,,female,20,
23,5,258,6,6,6,['k'],['k'],Y,N,None,Y,,,,,,,female,20,
23,6,259,5,5,6,['d'],['d'],Y,Y,['space'],Y,,,,,,,female,20,
23,7,260,3,3,6,['k'],['k'],Y,N,None,Y,,,,,,,female,20,
23,8,261,0,0,6,['d'],['d'],Y,Y,['space'],Y,,,,,,,female,20,
23,9,262,1,1,6,['d'],['d'],Y,Y,['space'],Y,,,,,,,female,20,
23,10,263,6,6,6,['d'],['d'],Y,N,None,Y,,,,,,,female,20,
24,0,264,6,6,6,['d'],['d'],Y,Y,['space'],Y,,,,,,,female,20,
24,1,265,0,0,6,['d'],['d'],Y,N,None,Y,,,,,,,female,20,
24,2,266,2,2,6,['d'],['d'],Y,N,None,Y,,,,,,,female,20,
24,3,267,9,9,6,['k'],['k'],Y,Y,['space'],Y,,,,,,,female,20,
24,4,268,10,10,6,['d'],['d'],Y,Y,['space'],Y,,,,,,,female,20,
24,5,269,7,7,6,['k'],['k'],Y,Y,None,N,,,,,,,female,20,
24,6,270,5,5,6,['k'],['k'],Y,N,None,Y,,,,,,,female,20,
24,7,271,6,6,6,['d'],['d'],Y,N,None,Y,,,,,,,female,20,
24,8,272,10,10,6,['k'],['k'],Y,Y,['space'],Y,,,,,,,female,20,
24,9,273,2,2,6,['k'],['k'],Y,N,None,Y,,,,,,,female,20,
24,10,274,4,4,6,['d'],['d'],Y,N,None,Y,,,,,,,female,20,
25,0,275,4,4,6,['k'],['k'],Y,N,None,Y,,,,,,,female,20,
25,1,276,3,3,6,['k'],['k'],Y,Y,['space'],Y,,,,,,,female,20,
25,2,277,3,3,6,['d'],['d'],Y,Y,['space'],Y,,,,,,,female,20,
25,3,278,10,10,6,['k'],['k'],Y,N,None,Y,,,,,,,female,20,
25,4,279,8,8,6,['d'],['d'],Y,N,None,Y,,,,,,,female,20,
25,5,280,1,1,6,['k'],['k'],Y,Y,['space'],Y,,,,,,,female,20,
25,6,281,2,2,6,['d'],['d'],Y,N,None,Y,,,,,,,female,20,
25,7,282,9,9,6,['k'],['k'],Y,Y,['space'],Y,,,,,,,female,20,
25,8,283,9,9,6,['k'],['k'],Y,N,None,Y,,,,,,,female,20,
25,9,284,0,0,6,['k'],['k'],Y,N,None,Y,,,,,,,female,20,
25,10,285,9,9,6,['k'],['k'],Y,Y,['space'],Y,,,,,,,female,20,
26,0,286,5,5,6,['k'],['k'],Y,Y,['space'],Y,,,,,,,female,20,
26,1,287,2,2,6,['d'],['d'],Y,Y,['space'],Y,,,,,,,female,20,
26,2,288,1,1,6,['k'],['k'],Y,Y,['space'],Y,,,,,,,female,20,
26,3,289,2,2,6,['k'],['k'],Y,N,None,Y,,,,,,,female,20,
26,4,290,8,8,6,['d'],['d'],Y,N,None,Y,,,,,,,female,20,
26,5,291,6,6,6,['k'],['k'],Y,N,None,Y,,,,,,,female,20,
26,6,292,0,0,6,['d'],['d'],Y,N,None,Y,,,,,,,female,20,
26,7,293,10,10,6,['k'],['k'],Y,N,None,Y,,,,,,,female,20,
26,8,294,3,3,6,['d'],['k'],N,Y,['space'],Y,,,,,,,female,20,
26,9,295,0,0,6,['d'],['d'],Y,Y,['space'],Y,,,,,,,female,20,
26,10,296,4,4,6,['d'],['d'],Y,N,None,Y,,,,,,,female,20,
27,0,297,9,9,6,['k'],['k'],Y,Y,['space'],Y,,,,,,,female,20,
27,1,298,4,4,6,['d'],['d'],Y,N,None,Y,,,,,,,female,20,
27,2,299,5,5,6,['k'],['k'],Y,Y,['space'],Y,49,47,24,,,,female,20,
27,3,300,2,2,7,['d'],['d'],Y,,,,,,,,,,female,20,
27,4,301,5,5,7,['k'],['k'],Y,,,,,,,,,,female,20,
27,5,302,3,3,7,['d'],['d'],Y,N,None,Y,,,,,,,female,20,
27,6,303,3,3,7,['d'],['d'],Y,Y,['space'],Y,,,,,,,female,20,
27,7,304,2,2,7,['d'],['d'],Y,Y,['space'],Y,,,,,,,female,20,
27,8,305,3,3,7,['k'],['k'],Y,Y,['space'],Y,,,,,,,female,20,
27,9,306,9,9,7,['k'],['k'],Y,Y,['space'],Y,,,,,,,female,20,
27,10,307,10,10,7,['k'],['k'],Y,Y,['space'],Y,,,,,,,female,20,
28,0,308,6,6,7,['k'],['k'],Y,N,None,Y,,,,,,,female,20,
28,1,309,8,8,7,['d'],['k'],N,N,None,Y,,,,,,,female,20,
28,2,310,1,1,7,['k'],['k'],Y,Y,['space'],Y,,,,,,,female,20,
28,3,311,0,0,7,['k'],['k'],Y,Y,['space'],Y,,,,,,,female,20,
28,4,312,2,2,7,['k'],['k'],Y,Y,['space'],Y,,,,,,,female,20,
28,5,313,10,10,7,['k'],['k'],Y,N,None,Y,,,,,,,female,20,
28,6,314,7,7,7,['d'],['d'],Y,Y,['space'],Y,,,,,,,female,20,
28,7,315,0,0,7,['d'],['d'],Y,N,None,Y,,,,,,,female,20,
28,8,316,4,4,7,['d'],['d'],Y,N,None,Y,,,,,,,female,20,
28,9,317,1,1,7,['d'],['d'],Y,N,None,Y,,,,,,,female,20,
28,10,318,5,5,7,['k'],['k'],Y,N,None,Y,,,,,,,female,20,
29,0,319,7,7,7,['k'],['k'],Y,Y,['space'],Y,,,,,,,female,20,
29,1,320,6,6,7,['d'],['d'],Y,Y,['space'],Y,,,,,,,female,20,
29,2,321,9,9,7,['k'],['d'],N,N,None,Y,,,,,,,female,20,
29,3,322,0,0,7,['k'],['k'],Y,N,None,Y,,,,,,,female,20,
29,4,323,1,1,7,['k'],['k'],Y,Y,['space'],Y,,,,,,,female,20,
29,5,324,6,6,7,['k'],['k'],Y,Y,['space'],Y,,,,,,,female,20,
29,6,325,6,6,7,['d'],['d'],Y,Y,['space'],Y,,,,,,,female,20,
29,7,326,6,6,7,['d'],['d'],Y,Y,['space'],Y,,,,,,,female,20,
29,8,327,9,9,7,['d'],['d'],Y,N,None,Y,,,,,,,female,20,
29,9,328,1,1,7,['k'],['k'],Y,Y,['space'],Y,,,,,,,female,20,
29,10,329,8,8,7,['k'],['k'],Y,Y,['space'],Y,,,,,,,female,20,
30,0,330,7,7,7,['d'],['d'],Y,N,None,Y,,,,,,,female,20,
30,1,331,5,5,7,['d'],['d'],Y,Y,['space'],Y,,,,,,,female,20,
30,2,332,8,8,7,['d'],['d'],Y,N,None,Y,,,,,,,female,20,
30,3,333,10,10,7,['d'],['d'],Y,N,None,Y,,,,,,,female,20,
30,4,334,9,9,7,['k'],['k'],Y,N,None,Y,,,,,,,female,20,
30,5,335,5,5,7,['k'],['d'],N,Y,['space'],Y,,,,,,,female,20,
30,6,336,2,2,7,['d'],['d'],Y,Y,['space'],Y,,,,,,,female,20,
30,7,337,2,2,7,['d'],['d'],Y,Y,['space'],Y,,,,,,,female,20,
30,8,338,8,8,7,['d'],['d'],Y,Y,['space'],Y,,,,,,,female,20,
30,9,339,5,5,7,['d'],['d'],Y,Y,['space'],Y,,,,,,,female,20,
30,10,340,7,7,7,['d'],['d'],Y,Y,['space'],Y,,,,,,,female,20,
31,0,341,10,10,7,['d'],['d'],Y,Y,['space'],Y,,,,,,,female,20,
31,1,342,6,6,7,['k'],['k'],Y,N,None,Y,,,,,,,female,20,
31,2,343,10,10,7,['d'],['d'],Y,N,None,Y,,,,,,,female,20,
31,3,344,5,5,7,['k'],['k'],Y,N,None,Y,,,,,,,female,20,
31,4,345,9,9,7,['d'],['d'],Y,N,None,Y,,,,,,,female,20,
31,5,346,3,3,7,['d'],['d'],Y,N,None,Y,,,,,,,female,20,
31,6,347,7,7,7,['d'],['d'],Y,N,None,Y,,,,,,,female,20,
31,7,348,3,3,7,['k'],['d'],N,N,None,Y,,,,,,,female,20,
31,8,349,3,3,7,['k'],['k'],Y,N,None,Y,46,48,25,,,,female,20,
31,9,350,8,8,8,['k'],['k'],Y,,,,,,,,,,female,20,
31,10,351,6,6,8,['d'],['d'],Y,,,,,,,,,,female,20,
32,0,352,4,4,8,['d'],['d'],Y,N,None,Y,,,,,,,female,20,
32,1,353,1,1,8,['d'],['d'],Y,N,None,Y,,,,,,,female,20,
32,2,354,5,5,8,['d'],['d'],Y,Y,['space'],Y,,,,,,,female,20,
32,3,355,8,8,8,['d'],['d'],Y,N,None,Y,,,,,,,female,20,
32,4,356,9,9,8,['d'],['d'],Y,N,None,Y,,,,,,,female,20,
32,5,357,2,2,8,['d'],['d'],Y,N,None,Y,,,,,,,female,20,
32,6,358,0,0,8,['k'],['k'],Y,Y,['space'],Y,,,,,,,female,20,
32,7,359,7,7,8,['d'],['d'],Y,Y,['space'],Y,,,,,,,female,20,
32,8,360,6,6,8,['d'],['d'],Y,N,None,Y,,,,,,,female,20,
32,9,361,6,6,8,['d'],['d'],Y,N,None,Y,,,,,,,female,20,
32,10,362,7,7,8,['k'],['k'],Y,Y,['space'],Y,,,,,,,female,20,
33,0,363,1,1,8,['d'],['d'],Y,Y,['space'],Y,,,,,,,female,20,
33,1,364,3,3,8,['d'],['d'],Y,N,None,Y,,,,,,,female,20,
33,2,365,3,3,8,['d'],['d'],Y,Y,['space'],Y,,,,,,,female,20,
33,3,366,8,8,8,['d'],['d'],Y,N,None,Y,,,,,,,female,20,
33,4,367,7,7,8,['k'],['k'],Y,N,None,Y,,,,,,,female,20,
33,5,368,10,10,8,['k'],['k'],Y,Y,['space'],Y,,,,,,,female,20,
33,6,369,1,1,8,['d'],['d'],Y,N,None,Y,,,,,,,female,20,
33,7,370,1,1,8,['k'],['k'],Y,Y,['space'],Y,,,,,,,female,20,
33,8,371,5,5,8,['k'],['k'],Y,N,None,Y,,,,,,,female,20,
33,9,372,9,9,8,['k'],['k'],Y,Y,['space'],Y,,,,,,,female,20,
33,10,373,0,0,8,['d'],['d'],Y,Y,['space'],Y,,,,,,,female,20,
34,0,374,7,7,8,['k'],['k'],Y,N,None,Y,,,,,,,female,20,
34,1,375,10,10,8,['k'],['k'],Y,Y,['space'],Y,,,,,,,female,20,
34,2,376,7,7,8,['d'],['d'],Y,N,None,Y,,,,,,,female,20,
34,3,377,7,7,8,['k'],['k'],Y,N,None,Y,,,,,,,female,20,
34,4,378,1,1,8,['k'],['k'],Y,N,None,Y,,,,,,,female,20,
34,5,379,9,9,8,['d'],['d'],Y,N,None,Y,,,,,,,female,20,
34,6,380,8,8,8,['d'],['d'],Y,Y,['space'],Y,,,,,,,female,20,
34,7,381,5,5,8,['d'],['d'],Y,N,None,Y,,,,,,,female,20,
34,8,382,10,10,8,['k'],['k'],Y,N,None,Y,,,,,,,female,20,
34,9,383,10,10,8,['d'],['d'],Y,N,None,Y,,,,,,,female,20,
34,10,384,2,2,8,['k'],['k'],Y,Y,['space'],Y,,,,,,,female,20,
35,0,385,4,4,8,['k'],['k'],Y,N,None,Y,,,,,,,female,20,
35,1,386,0,0,8,['d'],['d'],Y,N,None,Y,,,,,,,female,20,
35,2,387,10,10,8,['k'],['k'],Y,Y,['space'],Y,,,,,,,female,20,
35,3,388,8,8,8,['k'],['k'],Y,Y,['space'],Y,,,,,,,female,20,
35,4,389,3,3,8,['d'],['k'],N,Y,['space'],Y,,,,,,,female,20,
35,5,390,10,10,8,['d'],['d'],Y,Y,['space'],Y,,,,,,,female,20,
35,6,391,6,6,8,['k'],['k'],Y,Y,['space'],Y,,,,,,,female,20,
35,7,392,6,6,8,['d'],['d'],Y,N,None,Y,,,,,,,female,20,
35,8,393,5,5,8,['d'],['d'],Y,N,None,Y,,,,,,,female,20,
35,9,394,1,1,8,['k'],['k'],Y,N,None,Y,,,,,,,female,20,
35,10,395,6,6,8,['d'],['d'],Y,Y,['space'],Y,,,,,,,female,20,
36,0,396,4,4,8,['d'],['d'],Y,N,None,Y,,,,,,,female,20,
36,1,397,8,8,8,['k'],['d'],N,N,None,Y,,,,,,,female,20,
36,2,398,9,9,8,['k'],['k'],Y,N,None,Y,,,,,,,female,20,
36,3,399,4,4,8,['d'],['d'],Y,Y,None,N,48,47,20,,,,female,20,
36,4,400,8,8,9,['k'],['k'],Y,,,,,,,,,,female,20,
36,5,401,3,3,9,['d'],['k'],N,,,,,,,,,,female,20,
36,6,402,3,3,9,['d'],['d'],Y,N,None,Y,,,,,,,female,20,
36,7,403,0,0,9,['k'],['k'],Y,Y,['space'],Y,,,,,,,female,20,
36,8,404,4,4,9,['d'],['d'],Y,N,None,Y,,,,,,,female,20,
36,9,405,3,3,9,['d'],['k'],N,Y,['space'],Y,,,,,,,female,20,
36,10,406,7,7,9,['d'],['d'],Y,N,None,Y,,,,,,,female,20,
37,0,407,5,5,9,['k'],['d'],N,N,None,Y,,,,,,,female,20,
37,1,408,4,4,9,['k'],['k'],Y,Y,['space'],Y,,,,,,,female,20,
37,2,409,3,3,9,['d'],['d'],Y,Y,['space'],Y,,,,,,,female,20,
37,3,410,1,1,9,['k'],['k'],Y,N,None,Y,,,,,,,female,20,
37,4,411,1,1,9,['k'],['k'],Y,N,None,Y,,,,,,,female,20,
37,5,412,7,7,9,['d'],['d'],Y,Y,['space'],Y,,,,,,,female,20,
37,6,413,6,6,9,['k'],['k'],Y,N,None,Y,,,,,,,female,20,
37,7,414,7,7,9,['d'],['k'],N,Y,['space'],Y,,,,,,,female,20,
37,8,415,9,9,9,['k'],['k'],Y,N,None,Y,,,,,,,female,20,
37,9,416,4,4,9,['d'],['d'],Y,N,None,Y,,,,,,,female,20,
37,10,417,1,1,9,['k'],['d'],N,N,None,Y,,,,,,,female,20,
38,0,418,7,7,9,['k'],['k'],Y,N,None,Y,,,,,,,female,20,
38,1,419,2,2,9,['d'],['d'],Y,N,None,Y,,,,,,,female,20,
38,2,420,3,3,9,['k'],['k'],Y,N,None,Y,,,,,,,female,20,
38,3,421,3,3,9,['k'],['k'],Y,Y,None,N,,,,,,,female,20,
38,4,422,1,1,9,['k'],['k'],Y,N,None,Y,,,,,,,female,20,
38,5,423,4,4,9,['d'],['d'],Y,Y,['space'],Y,,,,,,,female,20,
38,6,424,10,10,9,['k'],['k'],Y,N,None,Y,,,,,,,female,20,
38,7,425,0,0,9,['d'],['d'],Y,Y,['space'],Y,,,,,,,female,20,
38,8,426,1,1,9,['k'],['k'],Y,Y,None,N,,,,,,,female,20,
38,9,427,10,10,9,['d'],['d'],Y,N,None,Y,,,,,,,female,20,
38,10,428,5,5,9,['d'],['d'],Y,Y,None,N,,,,,,,female,20,
39,0,429,7,7,9,['k'],['k'],Y,N,None,Y,,,,,,,female,20,
39,1,430,3,3,9,['k'],['k'],Y,N,None,Y,,,,,,,female,20,
39,2,431,2,2,9,['d'],['d'],Y,Y,None,N,,,,,,,female,20,
39,3,432,3,3,9,['d'],['d'],Y,Y,['space'],Y,,,,,,,female,20,
39,4,433,1,1,9,['d'],['d'],Y,N,None,Y,,,,,,,female,20,
39,5,434,10,10,9,['d'],['d'],Y,N,None,Y,,,,,,,female,20,
39,6,435,10,10,9,['k'],['d'],N,N,None,Y,,,,,,,female,20,
39,7,436,5,5,9,['d'],['d'],Y,Y,['space'],Y,,,,,,,female,20,
39,8,437,2,2,9,['k'],['d'],N,Y,['space'],Y,,,,,,,female,20,
39,9,438,8,8,9,['d'],['d'],Y,N,None,Y,,,,,,,female,20,
39,10,439,1,1,9,['k'],['k'],Y,Y,['space'],Y,,,,,,,female,20,
40,0,440,2,2,9,['k'],['k'],Y,Y,['space'],Y,,,,,,,female,20,
40,1,441,2,2,9,['d'],['d'],Y,N,None,Y,,,,,,,female,20,
40,2,442,9,9,9,['k'],['k'],Y,N,None,Y,,,,,,,female,20,
40,3,443,8,8,9,['k'],['k'],Y,N,None,Y,,,,,,,female,20,
40,4,444,3,3,9,['d'],['d'],Y,Y,['space'],Y,,,,,,,female,20,
40,5,445,2,2,9,['d'],['d'],Y,N,None,Y,,,,,,,female,20,
40,6,446,9,9,9,['d'],['d'],Y,N,None,Y,,,,,,,female,20,
40,7,447,10,10,9,['k'],['d'],N,N,None,Y,,,,,,,female,20,
40,8,448,2,2,9,['k'],['k'],Y,N,None,Y,,,,,,,female,20,
40,9,449,5,5,9,['k'],['k'],Y,N,None,Y,42,44,18,,,,female,20,
40,10,450,10,10,10,['d'],['d'],Y,,,,,,,,,,female,20,
41,0,451,4,4,10,['k'],['k'],Y,,,,,,,,,,female,20,
41,1,452,1,1,10,['k'],['k'],Y,Y,['space'],Y,,,,,,,female,20,
41,2,453,10,10,10,['k'],['k'],Y,N,None,Y,,,,,,,female,20,
41,3,454,7,7,10,['k'],['k'],Y,Y,['space'],Y,,,,,,,female,20,
41,4,455,1,1,10,['d'],['d'],Y,N,None,Y,,,,,,,female,20,
41,5,456,7,7,10,['k'],['k'],Y,Y,['space'],Y,,,,,,,female,20,
41,6,457,4,4,10,['d'],['d'],Y,Y,['space'],Y,,,,,,,female,20,
41,7,458,9,9,10,['d'],['d'],Y,N,None,Y,,,,,,,female,20,
41,8,459,10,10,10,['k'],['k'],Y,N,None,Y,,,,,,,female,20,
41,9,460,10,10,10,['k'],['k'],Y,N,None,Y,,,,,,,female,20,
41,10,461,4,4,10,['d'],['d'],Y,Y,['space'],Y,,,,,,,female,20,
42,0,462,4,4,10,['k'],['k'],Y,Y,['space'],Y,,,,,,,female,20,
42,1,463,2,2,10,['d'],['d'],Y,N,None,Y,,,,,,,female,20,
42,2,464,0,0,10,['k'],['k'],Y,Y,['space'],Y,,,,,,,female,20,
42,3,465,10,10,10,['d'],['d'],Y,N,None,Y,,,,,,,female,20,
42,4,466,8,8,10,['d'],['d'],Y,Y,None,N,,,,,,,female,20,
42,5,467,3,3,10,['d'],['d'],Y,N,None,Y,,,,,,,female,20,
42,6,468,6,6,10,['d'],['d'],Y,Y,['space'],Y,,,,,,,female,20,
42,7,469,3,3,10,['k'],['k'],Y,Y,['space'],Y,,,,,,,female,20,
42,8,470,1,1,10,['k'],['k'],Y,N,None,Y,,,,,,,female,20,
42,9,471,8,8,10,['d'],['d'],Y,Y,['space'],Y,,,,,,,female,20,
42,10,472,7,7,10,['k'],['k'],Y,N,None,Y,,,,,,,female,20,
43,0,473,0,0,10,['d'],['d'],Y,Y,['space'],Y,,,,,,,female,20,
43,1,474,7,7,10,['k'],['k'],Y,Y,['space'],Y,,,,,,,female,20,
43,2,475,9,9,10,['k'],['k'],Y,N,None,Y,,,,,,,female,20,
43,3,476,0,0,10,['d'],['d'],Y,N,None,Y,,,,,,,female,20,
43,4,477,6,6,10,['k'],['k'],Y,N,None,Y,,,,,,,female,20,
43,5,478,0,0,10,['d'],['d'],Y,Y,['space'],Y,,,,,,,female,20,
43,6,479,7,7,10,['k'],['k'],Y,N,None,Y,,,,,,,female,20,
43,7,480,1,1,10,['k'],['k'],Y,N,None,Y,,,,,,,female,20,
43,8,481,8,8,10,['d'],['d'],Y,Y,['space'],Y,,,,,,,female,20,
43,9,482,5,5,10,['k'],['k'],Y,Y,['space'],Y,,,,,,,female,20,
43,10,483,4,4,10,['d'],['d'],Y,Y,['space'],Y,,,,,,,female,20,
44,0,484,5,5,10,['k'],['k'],Y,N,None,Y,,,,,,,female,20,
44,1,485,3,3,10,['d'],['d'],Y,Y,['space'],Y,,,,,,,female,20,
44,2,486,8,8,10,['k'],['k'],Y,Y,['space'],Y,,,,,,,female,20,
44,3,487,10,10,10,['d'],['d'],Y,N,None,Y,,,,,,,female,20,
44,4,488,8,8,10,['d'],['d'],Y,Y,None,N,,,,,,,female,20,
44,5,489,0,0,10,['k'],['k'],Y,Y,None,N,,,,,,,female,20,
44,6,490,10,10,10,['k'],['k'],Y,Y,['space'],Y,,,,,,,female,20,
44,7,491,5,5,10,['d'],['d'],Y,Y,['space'],Y,,,,,,,female,20,
44,8,492,10,10,10,['d'],['d'],Y,N,None,Y,,,,,,,female,20,
44,9,493,9,9,10,['d'],['d'],Y,Y,['space'],Y,,,,,,,female,20,
44,10,494,6,6,10,['k'],['k'],Y,Y,['space'],Y,,,,,,,female,20,
45,0,495,10,10,10,['d'],['d'],Y,N,None,Y,,,,,,,female,20,
45,1,496,5,5,10,['d'],['d'],Y,N,None,Y,,,,,,,female,20,
45,2,497,0,0,10,['d'],['d'],Y,N,None,Y,,,,,,,female,20,
45,3,498,5,5,10,['k'],['k'],Y,N,None,Y,,,,,,,female,20,
45,4,499,0,0,10,['d'],['d'],Y,N,None,Y,50,45,25,,,,female,20,
45,5,500,2,2,11,['d'],['k'],Y,,,,,,,Y,Y,Y,female,20,
45,6,501,9,9,11,['d'],['k'],Y,,,,,,,,Y,Y,female,20,
45,7,502,3,3,11,['k'],['d'],Y,N,None,Y,,,,,Y,Y,female,20,
45,8,503,10,10,11,['k'],['d'],Y,Y,['space'],Y,,,,,Y,Y,female,20,
45,9,504,7,7,11,None,,Timed out,N,None,Y,,,,,Y,Y,female,20,
45,10,505,1,1,11,['d'],['d'],N,Y,['space'],Y,,,,,Y,Y,female,20,
46,0,506,10,10,11,['k'],['d'],Y,N,None,Y,,,,,Y,Y,female,20,
46,1,507,10,10,11,['d'],['k'],Y,Y,['space'],Y,,,,,Y,Y,female,20,
46,2,508,1,1,11,['k'],['d'],Y,Y,['space'],Y,,,,,Y,Y,female,20,
46,3,509,3,3,11,['d'],['k'],Y,N,None,Y,,,,,Y,Y,female,20,
46,4,510,0,0,11,['d'],['k'],Y,Y,['space'],Y,,,,,Y,Y,female,20,
46,5,511,0,0,11,['k'],['d'],Y,Y,['space'],Y,,,,,Y,Y,female,20,
46,6,512,10,10,11,['d'],['d'],N,N,None,Y,,,,,Y,Y,female,20,
46,7,513,6,6,11,['d'],['k'],Y,N,None,Y,,,,,Y,Y,female,20,
46,8,514,4,4,11,['d'],['k'],Y,Y,['space'],Y,,,,,Y,Y,female,20,
46,9,515,6,6,11,['k'],['d'],Y,Y,['space'],Y,,,,,Y,Y,female,20,
46,10,516,9,9,11,['d'],['k'],Y,Y,['space'],Y,,,,,Y,Y,female,20,
47,0,517,4,4,11,['d'],['k'],Y,Y,['space'],Y,,,,,Y,Y,female,20,
47,1,518,5,5,11,['k'],['d'],Y,Y,['space'],Y,,,,,Y,Y,female,20,
47,2,519,8,8,11,['d'],['k'],Y,Y,['space'],Y,,,,,Y,Y,female,20,
47,3,520,10,10,11,['k'],['d'],Y,Y,['space'],Y,,,,,Y,Y,female,20,
47,4,521,4,4,11,None,,Timed out,Y,['space'],Y,,,,,Y,Y,female,20,
47,5,522,2,2,11,['k'],['d'],Y,Y,['space'],Y,,,,,Y,Y,female,20,
47,6,523,4,4,11,['k'],['d'],Y,N,None,Y,,,,,Y,Y,female,20,
47,7,524,8,8,11,['k'],['d'],Y,Y,['space'],Y,,,,,Y,Y,female,20,
47,8,525,2,2,11,['d'],['k'],Y,N,None,Y,,,,,Y,Y,female,20,
47,9,526,5,5,11,['k'],['d'],Y,Y,['space'],Y,,,,,Y,Y,female,20,
47,10,527,4,4,11,['d'],['k'],Y,Y,['space'],Y,,,,,Y,Y,female,20,
48,0,528,6,6,11,['k'],['d'],Y,Y,['space'],Y,,,,,Y,Y,female,20,
48,1,529,3,3,11,['d'],['k'],Y,N,None,Y,,,,,Y,Y,female,20,
48,2,530,2,2,11,['d'],['k'],Y,N,None,Y,,,,,Y,Y,female,20,
48,3,531,6,6,11,['d'],['k'],Y,Y,['space'],Y,,,,,Y,Y,female,20,
48,4,532,7,7,11,['d'],['k'],Y,Y,['space'],Y,,,,,Y,Y,female,20,
48,5,533,9,9,11,['k'],['d'],Y,Y,['space'],Y,,,,,Y,Y,female,20,
48,6,534,8,8,11,['d'],['k'],Y,N,None,Y,,,,,Y,Y,female,20,
48,7,535,9,9,11,['d'],['k'],Y,N,None,Y,,,,,Y,Y,female,20,
48,8,536,5,5,11,['k'],['d'],Y,Y,['space'],Y,,,,,Y,Y,female,20,
48,9,537,0,0,11,['d'],['k'],Y,N,None,Y,,,,,Y,Y,female,20,
48,10,538,1,1,11,['d'],['k'],Y,N,None,Y,,,,,Y,Y,female,20,
49,0,539,1,1,11,['k'],['d'],Y,N,None,Y,,,,,Y,Y,female,20,
49,1,540,4,4,11,['k'],['d'],Y,Y,['space'],Y,,,,,Y,Y,female,20,
49,2,541,10,10,11,['k'],['k'],N,Y,['space'],Y,,,,,Y,Y,female,20,
49,3,542,4,4,11,['k'],['d'],Y,N,None,Y,,,,,Y,Y,female,20,
49,4,543,9,9,11,['k'],['d'],Y,N,None,Y,,,,,Y,Y,female,20,
49,5,544,4,4,11,['d'],['k'],Y,N,None,Y,,,,,Y,Y,female,20,
49,6,545,3,3,11,['d'],['k'],Y,N,None,Y,,,,,Y,Y,female,20,
49,7,546,8,8,11,['k'],['d'],Y,N,None,Y,,,,,Y,Y,female,20,
49,8,547,9,9,11,['d'],['k'],Y,N,None,Y,,,,,Y,Y,female,20,
49,9,548,4,4,11,['k'],['k'],N,N,None,Y,,,,,Y,Y,female,20,
49,10,549,9,9,11,['d'],['k'],Y,N,None,Y,44,48,25,,Y,Y,female,20,
50,0,550,7,7,12,['k'],['d'],Y,,,,,,,,Y,Y,female,20,
50,1,551,5,5,12,['k'],['d'],Y,,,,,,,,Y,Y,female,20,
50,2,552,8,8,12,['k'],['d'],Y,Y,['space'],Y,,,,,Y,Y,female,20,
50,3,553,1,1,12,['k'],['d'],Y,N,None,Y,,,,,Y,Y,female,20,
50,4,554,2,2,12,['k'],['d'],Y,Y,['space'],Y,,,,,Y,Y,female,20,
50,5,555,6,6,12,['k'],['d'],Y,Y,['space'],Y,,,,,Y,Y,female,20,
50,6,556,7,7,12,['k'],['d'],Y,Y,['space'],Y,,,,,Y,Y,female,20,
50,7,557,9,9,12,['k'],['d'],Y,Y,['space'],Y,,,,,Y,Y,female,20,
50,8,558,2,2,12,['k'],['d'],Y,Y,['space'],Y,,,,,Y,Y,female,20,
50,9,559,5,5,12,['d'],['k'],Y,Y,['space'],Y,,,,,Y,Y,female,20,
50,10,560,10,10,12,['k'],['d'],Y,Y,['space'],Y,,,,,Y,Y,female,20,
51,0,561,5,5,12,['k'],['d'],Y,N,None,Y,,,,,Y,Y,female,20,
51,1,562,5,5,12,['d'],['d'],N,N,None,Y,,,,,Y,Y,female,20,
51,2,563,1,1,12,['d'],['k'],Y,Y,['space'],Y,,,,,Y,Y,female,20,
51,3,564,3,3,12,['k'],['d'],Y,Y,['space'],Y,,,,,Y,Y,female,20,
51,4,565,2,2,12,['k'],['d'],Y,Y,['space'],Y,,,,,Y,Y,female,20,
51,5,566,9,9,12,['k'],['d'],Y,Y,['space'],Y,,,,,Y,Y,female,20,
51,6,567,5,5,12,['k'],['d'],Y,N,None,Y,,,,,Y,Y,female,20,
51,7,568,6,6,12,['d'],['k'],Y,Y,['space'],Y,,,,,Y,Y,female,20,
51,8,569,2,2,12,['k'],['d'],Y,Y,['space'],Y,,,,,Y,Y,female,20,
51,9,570,0,0,12,['d'],['k'],Y,N,None,Y,,,,,Y,Y,female,20,
51,10,571,5,5,12,['d'],['k'],Y,Y,['space'],Y,,,,,Y,Y,female,20,
52,0,572,0,0,12,['d'],['k'],Y,Y,['space'],Y,,,,,Y,Y,female,20,
52,1,573,9,9,12,['d'],['k'],Y,N,None,Y,,,,,Y,Y,female,20,
52,2,574,9,9,12,['d'],['k'],Y,Y,['space'],Y,,,,,Y,Y,female,20,
52,3,575,8,8,12,['d'],['k'],Y,N,None,Y,,,,,Y,Y,female,20,
52,4,576,8,8,12,None,,Timed out,Y,['space'],Y,,,,,Y,Y,female,20,
52,5,577,0,0,12,['k'],['d'],Y,N,None,Y,,,,,Y,Y,female,20,
52,6,578,3,3,12,['k'],['k'],N,Y,['space'],Y,,,,,Y,Y,female,20,
52,7,579,7,7,12,['d'],['d'],N,N,None,Y,,,,,Y,Y,female,20,
52,8,580,5,5,12,['k'],['d'],Y,Y,['space'],Y,,,,,Y,Y,female,20,
52,9,581,4,4,12,['d'],['k'],Y,N,None,Y,,,,,Y,Y,female,20,
52,10,582,8,8,12,['d'],['k'],Y,Y,['space'],Y,,,,,Y,Y,female,20,
53,0,583,6,6,12,['k'],['d'],Y,Y,['space'],Y,,,,,Y,Y,female,20,
53,1,584,0,0,12,['k'],['d'],Y,Y,['space'],Y,,,,,Y,Y,female,20,
53,2,585,3,3,12,['d'],['k'],Y,Y,['space'],Y,,,,,Y,Y,female,20,
53,3,586,8,8,12,['d'],['k'],Y,Y,['space'],Y,,,,,Y,Y,female,20,
53,4,587,7,7,12,['d'],['k'],Y,N,None,Y,,,,,Y,Y,female,20,
53,5,588,2,2,12,['d'],['k'],Y,N,None,Y,,,,,Y,Y,female,20,
53,6,589,10,10,12,['k'],['d'],Y,N,None,Y,,,,,Y,Y,female,20,
53,7,590,3,3,12,['d'],['k'],Y,N,None,Y,,,,,Y,Y,female,20,
53,8,591,5,5,12,['k'],['d'],Y,N,None,Y,,,,,Y,Y,female,20,
53,9,592,10,10,12,['d'],['k'],Y,N,None,Y,,,,,Y,Y,female,20,
53,10,593,1,1,12,['k'],['k'],N,N,None,Y,,,,,Y,Y,female,20,
54,0,594,5,5,12,['k'],['d'],Y,N,None,Y,,,,,Y,Y,female,20,
54,1,595,7,7,12,['d'],['k'],Y,N,None,Y,,,,,Y,Y,female,20,
54,2,596,6,6,12,['d'],['k'],Y,N,None,Y,,,,,Y,Y,female,20,
54,3,597,10,10,12,['d'],['k'],Y,N,None,Y,,,,,Y,Y,female,20,
54,4,598,4,4,12,['k'],['d'],Y,N,None,Y,,,,,Y,Y,female,20,
54,5,599,1,1,12,['d'],['k'],Y,N,None,Y,45,48,25,,Y,Y,female,20,
