.thisRepN,.thisTrialN,.thisN,.thisIndex,.thisTrial,Block Number,Key pressed,Category,Correct?,Int Match?,Int Response,Int Correct?,Line Accuracy,Interference Accuracy,Matching Interferences,New instruction shown?,Buttons switched?,Fast?,gender,age,
0,0,0,4,4,1,['k'],['k'],Y,,,,,,,,,,M,20,
0,1,1,2,2,1,['d'],['k'],N,,,,,,,,,,M,20,
0,2,2,1,1,1,['k'],['k'],Y,Y,['k'],N,,,,,,,M,20,
0,3,3,9,9,1,['k'],['k'],Y,N,None,Y,,,,,,,M,20,
0,4,4,3,3,1,['k'],['k'],Y,N,None,Y,,,,,,,M,20,
0,5,5,1,1,1,['k'],['k'],Y,N,None,Y,,,,,,,M,20,
0,6,6,2,2,1,['k'],['k'],Y,N,None,Y,,,,,,,M,20,
0,7,7,0,0,1,['d'],['k'],N,Y,None,N,,,,,,,M,20,
0,8,8,2,2,1,['k'],['k'],Y,N,None,Y,,,,,,,M,20,
0,9,9,3,3,1,['k'],['k'],Y,Y,['space'],Y,,,,,,,M,20,
0,10,10,9,9,1,['k'],['k'],Y,Y,['space'],Y,,,,,,,M,20,
1,0,11,10,10,1,['k'],['d'],N,N,['space'],N,,,,,,,M,20,
1,1,12,5,5,1,['k'],['k'],Y,N,None,Y,,,,,,,M,20,
1,2,13,4,4,1,['k'],['k'],Y,N,None,Y,,,,,,,M,20,
1,3,14,8,8,1,['k'],['k'],Y,N,None,Y,,,,,,,M,20,
1,4,15,8,8,1,['k'],['d'],N,Y,None,N,,,,,,,M,20,
1,5,16,6,6,1,['d'],['d'],Y,N,None,Y,,,,,,,M,20,
1,6,17,0,0,1,['k'],['d'],N,Y,['space'],Y,,,,,,,M,20,
1,7,18,7,7,1,['d'],['d'],Y,N,None,Y,,,,,,,M,20,
1,8,19,6,6,1,['d'],['d'],Y,N,None,Y,,,,,,,M,20,
1,9,20,7,7,1,['d'],['d'],Y,N,['d'],N,,,,,,,M,20,
1,10,21,2,2,1,['d'],['d'],Y,Y,None,N,,,,,,,M,20,
2,0,22,9,9,1,['d'],['k'],N,Y,None,N,,,,,,,M,20,
2,1,23,7,7,1,['k'],['k'],Y,Y,None,N,,,,,,,M,20,
2,2,24,2,2,1,['k'],['k'],Y,Y,['space'],Y,,,,,,,M,20,
2,3,25,10,10,1,['k'],['d'],N,Y,['space'],Y,,,,,,,M,20,
2,4,26,9,9,1,['k'],['k'],Y,N,None,Y,,,,,,,M,20,
2,5,27,5,5,1,['d'],['d'],Y,N,None,Y,,,,,,,M,20,
2,6,28,10,10,1,['k'],['k'],Y,N,None,Y,,,,,,,M,20,
2,7,29,1,1,1,['k'],['d'],N,N,None,Y,,,,,,,M,20,
2,8,30,8,8,1,['k'],['k'],Y,N,None,Y,,,,,,,M,20,
2,9,31,3,3,1,['k'],['k'],Y,N,None,Y,,,,,,,M,20,
2,10,32,1,1,1,['k'],['k'],Y,N,None,Y,,,,,,,M,20,
3,0,33,1,1,1,['k'],['k'],Y,N,None,Y,,,,,,,M,20,
3,1,34,5,5,1,['k'],['k'],Y,N,['space'],N,,,,,,,M,20,
3,2,35,7,7,1,['k'],['k'],Y,N,None,Y,,,,,,,M,20,
3,3,36,10,10,1,['k'],['k'],Y,Y,['space'],Y,,,,,,,M,20,
3,4,37,3,3,1,['k'],['k'],Y,N,None,Y,,,,,,,M,20,
3,5,38,0,0,1,['k'],['k'],Y,N,None,Y,,,,,,,M,20,
3,6,39,5,5,1,['d'],['d'],Y,Y,None,N,,,,,,,M,20,
3,7,40,8,8,1,['k'],['k'],Y,N,None,Y,,,,,,,M,20,
3,8,41,7,7,1,['k'],['k'],Y,N,['space'],N,,,,,,,M,20,
3,9,42,9,9,1,['d'],['k'],N,N,None,Y,,,,,,,M,20,
3,10,43,8,8,1,['k'],['k'],Y,Y,['space'],Y,,,,,,,M,20,
4,0,44,7,7,1,['d'],['d'],Y,Y,None,N,,,,,,,M,20,
4,1,45,8,8,1,['k'],['k'],Y,N,['space'],N,,,,,,,M,20,
4,2,46,6,6,1,['d'],['d'],Y,Y,None,N,,,,,,,M,20,
4,3,47,5,5,1,['k'],['k'],Y,Y,['space'],Y,,,,,,,M,20,
4,4,48,9,9,1,['k'],['d'],N,N,['space'],N,,,,,,,M,20,
4,5,49,8,8,1,['k'],['d'],N,N,None,Y,39,33,17,,,,M,20,
4,6,50,1,1,2,['k'],['k'],Y,,,,,,,,,,M,20,
4,7,51,8,8,2,['k'],['d'],N,,,,,,,,,,M,20,
4,8,52,3,3,2,['d'],['d'],Y,N,None,Y,,,,,,,M,20,
4,9,53,6,6,2,['k'],['k'],Y,N,None,Y,,,,,,,M,20,
4,10,54,3,3,2,['d'],['k'],N,Y,None,N,,,,,,,M,20,
5,0,55,10,10,2,['k'],['k'],Y,N,None,Y,,,,,,,M,20,
5,1,56,0,0,2,['k'],['k'],Y,Y,None,N,,,,,,,M,20,
5,2,57,6,6,2,['k'],['d'],N,N,['space'],N,,,,,,,M,20,
5,3,58,2,2,2,['d'],['d'],Y,N,['d'],N,,,,,,,M,20,
5,4,59,4,4,2,['k'],['k'],Y,Y,None,N,,,,,,,M,20,
5,5,60,1,1,2,['k'],['d'],N,Y,None,N,,,,,,,M,20,
5,6,61,1,1,2,['k'],['d'],N,N,None,Y,,,,,,,M,20,
5,7,62,10,10,2,['d'],['d'],Y,Y,['space'],Y,,,,,,,M,20,
5,8,63,1,1,2,['k'],['k'],Y,Y,None,N,,,,,,,M,20,
5,9,64,7,7,2,['k'],['d'],N,Y,None,N,,,,,,,M,20,
5,10,65,8,8,2,['k'],['k'],Y,N,None,Y,,,,,,,M,20,
6,0,66,2,2,2,['k'],['d'],N,Y,None,N,,,,,,,M,20,
6,1,67,2,2,2,['k'],['d'],N,Y,None,N,,,,,,,M,20,
6,2,68,0,0,2,['k'],['k'],Y,Y,None,N,,,,,,,M,20,
6,3,69,6,6,2,['k'],['k'],Y,N,None,Y,,,,,,,M,20,
6,4,70,4,4,2,['k'],['k'],Y,N,None,Y,,,,,,,M,20,
6,5,71,2,2,2,['k'],['k'],Y,N,['space'],N,,,,,,,M,20,
6,6,72,7,7,2,['d'],['d'],Y,N,None,Y,,,,,,,M,20,
6,7,73,9,9,2,['k'],['k'],Y,Y,['space'],Y,,,,,,,M,20,
6,8,74,3,3,2,['d'],['d'],Y,Y,['space'],Y,,,,,,,M,20,
6,9,75,6,6,2,['k'],['k'],Y,N,None,Y,,,,,,,M,20,
6,10,76,4,4,2,['k'],['k'],Y,N,None,Y,,,,,,,M,20,
7,0,77,5,5,2,['k'],['k'],Y,N,None,Y,,,,,,,M,20,
7,1,78,3,3,2,['k'],['d'],N,N,None,Y,,,,,,,M,20,
7,2,79,7,7,2,['d'],['d'],Y,N,None,Y,,,,,,,M,20,
7,3,80,8,8,2,['d'],['d'],Y,Y,['space'],Y,,,,,,,M,20,
7,4,81,6,6,2,['k'],['k'],Y,Y,['space'],Y,,,,,,,M,20,
7,5,82,5,5,2,['d'],['k'],N,Y,None,N,,,,,,,M,20,
7,6,83,5,5,2,['k'],['k'],Y,N,None,Y,,,,,,,M,20,
7,7,84,6,6,2,['d'],['d'],Y,N,None,Y,,,,,,,M,20,
7,8,85,3,3,2,['k'],['d'],N,Y,None,N,,,,,,,M,20,
7,9,86,4,4,2,['k'],['k'],Y,N,None,Y,,,,,,,M,20,
7,10,87,4,4,2,['k'],['d'],N,Y,['space'],Y,,,,,,,M,20,
8,0,88,8,8,2,['k'],['d'],N,Y,None,N,,,,,,,M,20,
8,1,89,7,7,2,['k'],['k'],Y,N,None,Y,,,,,,,M,20,
8,2,90,4,4,2,['d'],['d'],Y,Y,None,N,,,,,,,M,20,
8,3,91,9,9,2,['k'],['k'],Y,N,None,Y,,,,,,,M,20,
8,4,92,0,0,2,['k'],['d'],N,N,None,Y,,,,,,,M,20,
8,5,93,9,9,2,['k'],['k'],Y,Y,None,N,,,,,,,M,20,
8,6,94,10,10,2,['d'],['d'],Y,Y,None,N,,,,,,,M,20,
8,7,95,0,0,2,['k'],['d'],N,Y,None,N,,,,,,,M,20,
8,8,96,4,4,2,['d'],['d'],Y,Y,None,N,,,,,,,M,20,
8,9,97,6,6,2,['k'],['d'],N,Y,None,N,,,,,,,M,20,
8,10,98,10,10,2,['d'],['k'],N,Y,None,N,,,,,,,M,20,
9,0,99,8,8,2,['d'],['d'],Y,N,None,Y,33,26,25,,,,M,20,
9,1,100,10,10,3,['k'],['k'],Y,,,,,,,,,,M,20,
9,2,101,1,1,3,['k'],['k'],Y,,,,,,,,,,M,20,
9,3,102,2,2,3,['k'],['k'],Y,N,None,Y,,,,,,,M,20,
9,4,103,10,10,3,['d'],['d'],Y,N,None,Y,,,,,,,M,20,
9,5,104,9,9,3,['d'],['k'],N,N,None,Y,,,,,,,M,20,
9,6,105,7,7,3,['k'],['d'],N,N,None,Y,,,,,,,M,20,
9,7,106,5,5,3,['d'],['d'],Y,Y,None,N,,,,,,,M,20,
9,8,107,10,10,3,['k'],['k'],Y,Y,None,N,,,,,,,M,20,
9,9,108,0,0,3,['k'],['d'],N,Y,['space'],Y,,,,,,,M,20,
9,10,109,2,2,3,['k'],['d'],N,Y,None,N,,,,,,,M,20,
10,0,110,8,8,3,['k'],['d'],N,N,['space'],N,,,,,,,M,20,
10,1,111,10,10,3,['d'],['d'],Y,N,None,Y,,,,,,,M,20,
10,2,112,5,5,3,['k'],['d'],N,Y,None,N,,,,,,,M,20,
10,3,113,8,8,3,['k'],['k'],Y,N,None,Y,,,,,,,M,20,
10,4,114,9,9,3,['d'],['d'],Y,N,None,Y,,,,,,,M,20,
10,5,115,10,10,3,['k'],['k'],Y,N,None,Y,,,,,,,M,20,
10,6,116,6,6,3,['d'],['d'],Y,Y,None,N,,,,,,,M,20,
10,7,117,3,3,3,['k'],['k'],Y,Y,None,N,,,,,,,M,20,
10,8,118,0,0,3,['k'],['d'],N,Y,None,N,,,,,,,M,20,
10,9,119,0,0,3,['k'],['d'],N,N,None,Y,,,,,,,M,20,
10,10,120,2,2,3,['d'],['d'],Y,Y,None,N,,,,,,,M,20,
11,0,121,6,6,3,['k'],['k'],Y,Y,None,N,,,,,,,M,20,
11,1,122,6,6,3,['d'],['d'],Y,Y,None,N,,,,,,,M,20,
11,2,123,1,1,3,['d'],['d'],Y,Y,['space'],Y,,,,,,,M,20,
11,3,124,5,5,3,['k'],['k'],Y,N,None,Y,,,,,,,M,20,
11,4,125,2,2,3,['k'],['k'],Y,N,None,Y,,,,,,,M,20,
11,5,126,1,1,3,['d'],['d'],Y,Y,['space'],Y,,,,,,,M,20,
11,6,127,1,1,3,['k'],['k'],Y,Y,None,N,,,,,,,M,20,
11,7,128,1,1,3,['k'],['k'],Y,Y,['space'],Y,,,,,,,M,20,
11,8,129,8,8,3,['k'],['k'],Y,N,None,Y,,,,,,,M,20,
11,9,130,10,10,3,['d'],['d'],Y,N,None,Y,,,,,,,M,20,
11,10,131,3,3,3,['d'],['k'],N,Y,['space'],Y,,,,,,,M,20,
12,0,132,9,9,3,['k'],['k'],Y,Y,None,N,,,,,,,M,20,
12,1,133,9,9,3,['k'],['k'],Y,N,None,Y,,,,,,,M,20,
12,2,134,0,0,3,['k'],['d'],N,N,None,Y,,,,,,,M,20,
12,3,135,4,4,3,['d'],['k'],N,Y,None,N,,,,,,,M,20,
12,4,136,1,1,3,['d'],['d'],Y,N,None,Y,,,,,,,M,20,
12,5,137,0,0,3,['k'],['k'],Y,N,None,Y,,,,,,,M,20,
12,6,138,10,10,3,['k'],['k'],Y,N,None,Y,,,,,,,M,20,
12,7,139,0,0,3,['k'],['k'],Y,N,None,Y,,,,,,,M,20,
12,8,140,8,8,3,['k'],['k'],Y,Y,None,N,,,,,,,M,20,
12,9,141,8,8,3,['k'],['k'],Y,N,None,Y,,,,,,,M,20,
12,10,142,7,7,3,['d'],['d'],Y,Y,['space'],Y,,,,,,,M,20,
13,0,143,3,3,3,['d'],['d'],Y,Y,['space'],Y,,,,,,,M,20,
13,1,144,4,4,3,['d'],['d'],Y,Y,['space'],Y,,,,,,,M,20,
13,2,145,6,6,3,['d'],['d'],Y,Y,['space'],Y,,,,,,,M,20,
13,3,146,2,2,3,['d'],['k'],N,Y,None,N,,,,,,,M,20,
13,4,147,10,10,3,['k'],['k'],Y,N,None,Y,,,,,,,M,20,
13,5,148,7,7,3,['d'],['d'],Y,N,None,Y,,,,,,,M,20,
13,6,149,10,10,3,['k'],['k'],Y,Y,None,N,38,31,25,,,,M,20,
13,7,150,4,4,4,['d'],['d'],Y,,,,,,,,,,M,20,
13,8,151,2,2,4,['d'],['d'],Y,,,,,,,,,,M,20,
13,9,152,0,0,4,['k'],['k'],Y,N,None,Y,,,,,,,M,20,
13,10,153,1,1,4,['d'],['d'],Y,Y,['space'],Y,,,,,,,M,20,
14,0,154,6,6,4,['k'],['k'],Y,N,None,Y,,,,,,,M,20,
14,1,155,9,9,4,['k'],['k'],Y,N,None,Y,,,,,,,M,20,
14,2,156,6,6,4,['d'],['d'],Y,Y,None,N,,,,,,,M,20,
14,3,157,7,7,4,['d'],['d'],Y,N,None,Y,,,,,,,M,20,
14,4,158,1,1,4,['d'],['d'],Y,Y,None,N,,,,,,,M,20,
14,5,159,9,9,4,['k'],['k'],Y,N,None,Y,,,,,,,M,20,
14,6,160,8,8,4,['d'],['d'],Y,Y,None,N,,,,,,,M,20,
14,7,161,10,10,4,['k'],['k'],Y,Y,['space'],Y,,,,,,,M,20,
14,8,162,2,2,4,['d'],['k'],N,Y,['space'],Y,,,,,,,M,20,
14,9,163,5,5,4,['k'],['k'],Y,N,None,Y,,,,,,,M,20,
14,10,164,6,6,4,['d'],['d'],Y,N,None,Y,,,,,,,M,20,
15,0,165,10,10,4,['k'],['k'],Y,Y,['space'],Y,,,,,,,M,20,
15,1,166,8,8,4,['k'],['k'],Y,N,None,Y,,,,,,,M,20,
15,2,167,3,3,4,['k'],['k'],Y,N,None,Y,,,,,,,M,20,
15,3,168,5,5,4,['d'],['d'],Y,N,['space'],N,,,,,,,M,20,
15,4,169,9,9,4,['d'],['d'],Y,Y,['space'],Y,,,,,,,M,20,
15,5,170,9,9,4,['k'],['k'],Y,N,None,Y,,,,,,,M,20,
15,6,171,4,4,4,['k'],['k'],Y,N,None,Y,,,,,,,M,20,
15,7,172,7,7,4,['d'],['d'],Y,N,None,Y,,,,,,,M,20,
15,8,173,7,7,4,['d'],['d'],Y,N,['space'],N,,,,,,,M,20,
15,9,174,10,10,4,['d'],['d'],Y,Y,['space'],Y,,,,,,,M,20,
15,10,175,3,3,4,['d'],['d'],Y,Y,None,N,,,,,,,M,20,
16,0,176,7,7,4,['d'],['d'],Y,Y,None,N,,,,,,,M,20,
16,1,177,2,2,4,['d'],['d'],Y,Y,['space'],Y,,,,,,,M,20,
16,2,178,0,0,4,['k'],['k'],Y,N,None,Y,,,,,,,M,20,
16,3,179,6,6,4,['d'],['d'],Y,N,None,Y,,,,,,,M,20,
16,4,180,6,6,4,['k'],['k'],Y,N,None,Y,,,,,,,M,20,
16,5,181,6,6,4,['k'],['k'],Y,N,None,Y,,,,,,,M,20,
16,6,182,1,1,4,['k'],['k'],Y,N,None,Y,,,,,,,M,20,
16,7,183,10,10,4,['d'],['d'],Y,Y,None,N,,,,,,,M,20,
16,8,184,6,6,4,['k'],['d'],N,Y,None,N,,,,,,,M,20,
16,9,185,2,2,4,['k'],['d'],N,Y,None,N,,,,,,,M,20,
16,10,186,0,0,4,['d'],['k'],N,Y,None,N,,,,,,,M,20,
17,0,187,10,10,4,['k'],['k'],Y,N,None,Y,,,,,,,M,20,
17,1,188,4,4,4,['k'],['k'],Y,N,None,Y,,,,,,,M,20,
17,2,189,5,5,4,['d'],['d'],Y,Y,None,N,,,,,,,M,20,
17,3,190,9,9,4,['k'],['k'],Y,N,None,Y,,,,,,,M,20,
17,4,191,0,0,4,['d'],['d'],Y,N,None,Y,,,,,,,M,20,
17,5,192,8,8,4,['d'],['d'],Y,Y,None,N,,,,,,,M,20,
17,6,193,9,9,4,['k'],['k'],Y,N,None,Y,,,,,,,M,20,
17,7,194,2,2,4,['d'],['d'],Y,Y,['space'],Y,,,,,,,M,20,
17,8,195,6,6,4,['k'],['k'],Y,N,None,Y,,,,,,,M,20,
17,9,196,7,7,4,['k'],['d'],N,Y,None,N,,,,,,,M,20,
17,10,197,10,10,4,['d'],['d'],Y,N,None,Y,,,,,,,M,20,
18,0,198,8,8,4,['d'],['d'],Y,Y,['space'],Y,,,,,,,M,20,
18,1,199,2,2,4,['d'],['d'],Y,N,None,Y,45,34,21,,,,M,20,
18,2,200,3,3,5,['k'],['d'],N,,,,,,,,,,M,20,
18,3,201,0,0,5,['k'],['d'],N,,,,,,,,,,M,20,
18,4,202,5,5,5,['d'],['d'],Y,N,None,Y,,,,,,,M,20,
18,5,203,9,9,5,['k'],['d'],N,N,None,Y,,,,,,,M,20,
18,6,204,3,3,5,['k'],['d'],N,N,None,Y,,,,,,,M,20,
18,7,205,3,3,5,['k'],['k'],Y,Y,None,N,,,,,,,M,20,
18,8,206,9,9,5,['k'],['d'],N,Y,None,N,,,,,,,M,20,
18,9,207,4,4,5,['k'],['k'],Y,N,None,Y,,,,,,,M,20,
18,10,208,4,4,5,['d'],['k'],N,N,None,Y,,,,,,,M,20,
19,0,209,2,2,5,['k'],['d'],N,N,None,Y,,,,,,,M,20,
19,1,210,10,10,5,['k'],['k'],Y,N,None,Y,,,,,,,M,20,
19,2,211,4,4,5,['k'],['k'],Y,N,None,Y,,,,,,,M,20,
19,3,212,2,2,5,['d'],['d'],Y,Y,None,N,,,,,,,M,20,
19,4,213,1,1,5,['d'],['d'],Y,N,None,Y,,,,,,,M,20,
19,5,214,7,7,5,['k'],['k'],Y,N,None,Y,,,,,,,M,20,
19,6,215,2,2,5,['d'],['d'],Y,N,None,Y,,,,,,,M,20,
19,7,216,4,4,5,['k'],['d'],N,N,None,Y,,,,,,,M,20,
19,8,217,3,3,5,['k'],['k'],Y,Y,None,N,,,,,,,M,20,
19,9,218,1,1,5,['d'],['d'],Y,N,None,Y,,,,,,,M,20,
19,10,219,9,9,5,['k'],['d'],N,Y,None,N,,,,,,,M,20,
20,0,220,10,10,5,['d'],['d'],Y,N,None,Y,,,,,,,M,20,
20,1,221,7,7,5,['d'],['d'],Y,N,['space'],N,,,,,,,M,20,
20,2,222,8,8,5,['k'],['k'],Y,N,None,Y,,,,,,,M,20,
20,3,223,10,10,5,['k'],['k'],Y,N,None,Y,,,,,,,M,20,
20,4,224,1,1,5,['d'],['d'],Y,N,None,Y,,,,,,,M,20,
20,5,225,3,3,5,['d'],['d'],Y,N,None,Y,,,,,,,M,20,
20,6,226,6,6,5,['d'],['k'],N,Y,None,N,,,,,,,M,20,
20,7,227,2,2,5,['d'],['d'],Y,N,None,Y,,,,,,,M,20,
20,8,228,2,2,5,['d'],['d'],Y,Y,None,N,,,,,,,M,20,
20,9,229,5,5,5,['d'],['k'],N,N,None,Y,,,,,,,M,20,
20,10,230,5,5,5,['k'],['d'],N,N,None,Y,,,,,,,M,20,
21,0,231,4,4,5,['d'],['d'],Y,Y,None,N,,,,,,,M,20,
21,1,232,7,7,5,['d'],['d'],Y,Y,None,N,,,,,,,M,20,
21,2,233,6,6,5,['k'],['d'],N,N,None,Y,,,,,,,M,20,
21,3,234,7,7,5,['d'],['k'],N,N,None,Y,,,,,,,M,20,
21,4,235,0,0,5,['k'],['k'],Y,N,None,Y,,,,,,,M,20,
21,5,236,5,5,5,['k'],['k'],Y,Y,None,N,,,,,,,M,20,
21,6,237,2,2,5,['d'],['d'],Y,N,None,Y,,,,,,,M,20,
21,7,238,3,3,5,['d'],['d'],Y,Y,['space'],Y,,,,,,,M,20,
21,8,239,6,6,5,['k'],['k'],Y,Y,None,N,,,,,,,M,20,
21,9,240,2,2,5,['d'],['k'],N,Y,None,N,,,,,,,M,20,
21,10,241,3,3,5,['k'],['k'],Y,N,None,Y,,,,,,,M,20,
22,0,242,8,8,5,['k'],['k'],Y,N,None,Y,,,,,,,M,20,
22,1,243,4,4,5,['k'],['d'],N,Y,None,N,,,,,,,M,20,
22,2,244,4,4,5,['k'],['k'],Y,Y,None,N,,,,,,,M,20,
22,3,245,0,0,5,['k'],['k'],Y,Y,None,N,,,,,,,M,20,
22,4,246,8,8,5,['d'],['d'],Y,Y,None,N,,,,,,,M,20,
22,5,247,6,6,5,['d'],['d'],Y,N,None,Y,,,,,,,M,20,
22,6,248,0,0,5,['k'],['k'],Y,N,None,Y,,,,,,,M,20,
22,7,249,10,10,5,['d'],['d'],Y,N,None,Y,34,31,17,,,,M,20,
22,8,250,10,10,6,['k'],['k'],Y,,,,,,,,,,M,20,
22,9,251,4,4,6,['d'],['d'],Y,,,,,,,,,,M,20,
22,10,252,9,9,6,['k'],['k'],Y,N,None,Y,,,,,,,M,20,
23,0,253,3,3,6,['k'],['d'],N,Y,None,N,,,,,,,M,20,
23,1,254,2,2,6,['d'],['d'],Y,N,None,Y,,,,,,,M,20,
23,2,255,9,9,6,['k'],['d'],N,Y,['space'],Y,,,,,,,M,20,
23,3,256,10,10,6,['k'],['k'],Y,Y,None,N,,,,,,,M,20,
23,4,257,5,5,6,['k'],['k'],Y,N,None,Y,,,,,,,M,20,
23,5,258,5,5,6,['d'],['d'],Y,Y,['space'],Y,,,,,,,M,20,
23,6,259,4,4,6,['k'],['k'],Y,N,None,Y,,,,,,,M,20,
23,7,260,3,3,6,['d'],['d'],Y,N,None,Y,,,,,,,M,20,
23,8,261,10,10,6,['k'],['d'],N,Y,['space'],Y,,,,,,,M,20,
23,9,262,9,9,6,['k'],['k'],Y,Y,None,N,,,,,,,M,20,
23,10,263,8,8,6,['k'],['k'],Y,N,None,Y,,,,,,,M,20,
24,0,264,7,7,6,['k'],['d'],N,N,None,Y,,,,,,,M,20,
24,1,265,7,7,6,['k'],['k'],Y,Y,None,N,,,,,,,M,20,
24,2,266,1,1,6,['d'],['d'],Y,Y,None,N,,,,,,,M,20,
24,3,267,9,9,6,['k'],['d'],N,Y,None,N,,,,,,,M,20,
24,4,268,1,1,6,['d'],['d'],Y,N,None,Y,,,,,,,M,20,
24,5,269,5,5,6,['k'],['k'],Y,N,None,Y,,,,,,,M,20,
24,6,270,0,0,6,['k'],['k'],Y,Y,None,N,,,,,,,M,20,
24,7,271,0,0,6,['k'],['k'],Y,Y,['space'],Y,,,,,,,M,20,
24,8,272,4,4,6,['d'],['d'],Y,Y,None,N,,,,,,,M,20,
24,9,273,2,2,6,['d'],['d'],Y,N,None,Y,,,,,,,M,20,
24,10,274,0,0,6,['d'],['d'],Y,Y,['space'],Y,,,,,,,M,20,
25,0,275,2,2,6,['k'],['k'],Y,N,None,Y,,,,,,,M,20,
25,1,276,10,10,6,['k'],['k'],Y,Y,None,N,,,,,,,M,20,
25,2,277,5,5,6,['k'],['k'],Y,Y,None,N,,,,,,,M,20,
25,3,278,6,6,6,['d'],['d'],Y,N,None,Y,,,,,,,M,20,
25,4,279,9,9,6,['d'],['d'],Y,Y,['space'],Y,,,,,,,M,20,
25,5,280,10,10,6,['k'],['k'],Y,Y,['space'],Y,,,,,,,M,20,
25,6,281,6,6,6,['k'],['k'],Y,Y,None,N,,,,,,,M,20,
25,7,282,4,4,6,['d'],['d'],Y,N,['space'],N,,,,,,,M,20,
25,8,283,0,0,6,['k'],['k'],Y,N,None,Y,,,,,,,M,20,
25,9,284,5,5,6,['k'],['k'],Y,N,None,Y,,,,,,,M,20,
25,10,285,3,3,6,['k'],['k'],Y,N,None,Y,,,,,,,M,20,
26,0,286,6,6,6,['k'],['k'],Y,Y,None,N,,,,,,,M,20,
26,1,287,4,4,6,['d'],['d'],Y,N,None,Y,,,,,,,M,20,
26,2,288,6,6,6,['k'],['k'],Y,Y,['space'],Y,,,,,,,M,20,
26,3,289,3,3,6,['k'],['d'],N,N,None,Y,,,,,,,M,20,
26,4,290,4,4,6,['k'],['k'],Y,Y,None,N,,,,,,,M,20,
26,5,291,1,1,6,['d'],['d'],Y,N,None,Y,,,,,,,M,20,
26,6,292,9,9,6,['k'],['k'],Y,N,None,Y,,,,,,,M,20,
26,7,293,9,9,6,['k'],['k'],Y,N,['space'],N,,,,,,,M,20,
26,8,294,4,4,6,['k'],['k'],Y,Y,None,N,,,,,,,M,20,
26,9,295,4,4,6,['k'],['k'],Y,N,None,Y,,,,,,,M,20,
26,10,296,2,2,6,['d'],['d'],Y,N,None,Y,,,,,,,M,20,
27,0,297,3,3,6,['k'],['k'],Y,Y,None,N,,,,,,,M,20,
27,1,298,2,2,6,['k'],['d'],N,N,None,Y,,,,,,,M,20,
27,2,299,2,2,6,['k'],['d'],N,Y,None,N,42,30,24,,,,M,20,
27,3,300,8,8,7,['k'],['k'],Y,,,,,,,,,,M,20,
27,4,301,1,1,7,['k'],['d'],N,,,,,,,,,,M,20,
27,5,302,4,4,7,['k'],['d'],N,Y,['space'],Y,,,,,,,M,20,
27,6,303,3,3,7,['d'],['d'],Y,N,None,Y,,,,,,,M,20,
27,7,304,0,0,7,['d'],['d'],Y,Y,['space'],Y,,,,,,,M,20,
27,8,305,8,8,7,['d'],['d'],Y,N,None,Y,,,,,,,M,20,
27,9,306,5,5,7,['k'],['d'],N,N,None,Y,,,,,,,M,20,
27,10,307,6,6,7,['d'],['d'],Y,Y,['d'],N,,,,,,,M,20,
28,0,308,7,7,7,['k'],['k'],Y,Y,None,N,,,,,,,M,20,
28,1,309,4,4,7,['k'],['k'],Y,N,None,Y,,,,,,,M,20,
28,2,310,0,0,7,['d'],['d'],Y,Y,['space'],Y,,,,,,,M,20,
28,3,311,9,9,7,['d'],['d'],Y,Y,None,N,,,,,,,M,20,
28,4,312,1,1,7,['k'],['k'],Y,Y,['space'],Y,,,,,,,M,20,
28,5,313,0,0,7,['k'],['k'],Y,N,None,Y,,,,,,,M,20,
28,6,314,4,4,7,['d'],['d'],Y,N,['space'],N,,,,,,,M,20,
28,7,315,5,5,7,['d'],['d'],Y,N,['space'],N,,,,,,,M,20,
28,8,316,2,2,7,['k'],['d'],N,N,None,Y,,,,,,,M,20,
28,9,317,8,8,7,['k'],['k'],Y,Y,['space'],Y,,,,,,,M,20,
28,10,318,10,10,7,['k'],['k'],Y,N,None,Y,,,,,,,M,20,
29,0,319,3,3,7,['k'],['k'],Y,N,None,Y,,,,,,,M,20,
29,1,320,7,7,7,['d'],['d'],Y,Y,None,N,,,,,,,M,20,
29,2,321,2,2,7,['d'],['d'],Y,Y,None,N,,,,,,,M,20,
29,3,322,2,2,7,['d'],['d'],Y,N,None,Y,,,,,,,M,20,
29,4,323,4,4,7,['k'],['k'],Y,N,None,Y,,,,,,,M,20,
29,5,324,6,6,7,['d'],['d'],Y,Y,['space'],Y,,,,,,,M,20,
29,6,325,2,2,7,['k'],['k'],Y,N,['space'],N,,,,,,,M,20,
29,7,326,9,9,7,['d'],['d'],Y,Y,['space'],Y,,,,,,,M,20,
29,8,327,8,8,7,['d'],['d'],Y,Y,['space'],Y,,,,,,,M,20,
29,9,328,4,4,7,['k'],['k'],Y,N,['space'],N,,,,,,,M,20,
29,10,329,4,4,7,['k'],['k'],Y,N,None,Y,,,,,,,M,20,
30,0,330,2,2,7,['d'],['d'],Y,Y,['space'],Y,,,,,,,M,20,
30,1,331,1,1,7,['k'],['k'],Y,N,None,Y,,,,,,,M,20,
30,2,332,5,5,7,['d'],['d'],Y,Y,None,N,,,,,,,M,20,
30,3,333,5,5,7,['k'],['k'],Y,N,None,Y,,,,,,,M,20,
30,4,334,8,8,7,['k'],['k'],Y,N,None,Y,,,,,,,M,20,
30,5,335,3,3,7,['d'],['d'],Y,N,['space'],N,,,,,,,M,20,
30,6,336,5,5,7,['k'],['k'],Y,Y,['space'],Y,,,,,,,M,20,
30,7,337,9,9,7,['k'],['k'],Y,Y,None,N,,,,,,,M,20,
30,8,338,7,7,7,['k'],['k'],Y,Y,None,N,,,,,,,M,20,
30,9,339,7,7,7,['k'],['d'],N,Y,None,N,,,,,,,M,20,
30,10,340,6,6,7,['d'],['d'],Y,Y,['space'],Y,,,,,,,M,20,
31,0,341,4,4,7,['d'],['d'],Y,Y,None,N,,,,,,,M,20,
31,1,342,7,7,7,['k'],['k'],Y,Y,None,N,,,,,,,M,20,
31,2,343,2,2,7,['k'],['k'],Y,Y,None,N,,,,,,,M,20,
31,3,344,3,3,7,['k'],['k'],Y,Y,['space'],Y,,,,,,,M,20,
31,4,345,9,9,7,['d'],['d'],Y,N,None,Y,,,,,,,M,20,
31,5,346,3,3,7,['k'],['k'],Y,Y,['space'],Y,,,,,,,M,20,
31,6,347,7,7,7,['k'],['k'],Y,N,None,Y,,,,,,,M,20,
31,7,348,6,6,7,['k'],['k'],Y,N,None,Y,,,,,,,M,20,
31,8,349,3,3,7,['d'],['d'],Y,N,['space'],N,45,30,25,,,,M,20,
31,9,350,4,4,8,['k'],['k'],Y,,,,,,,,,,M,20,
31,10,351,7,7,8,['k'],['d'],N,,,,,,,,,,M,20,
32,0,352,5,5,8,['k'],['k'],Y,N,None,Y,,,,,,,M,20,
32,1,353,3,3,8,['d'],['d'],Y,N,None,Y,,,,,,,M,20,
32,2,354,2,2,8,['k'],['d'],N,Y,None,N,,,,,,,M,20,
32,3,355,8,8,8,['k'],['k'],Y,N,None,Y,,,,,,,M,20,
32,4,356,5,5,8,['d'],['d'],Y,Y,None,N,,,,,,,M,20,
32,5,357,9,9,8,['k'],['k'],Y,N,None,Y,,,,,,,M,20,
32,6,358,5,5,8,['d'],['d'],Y,N,None,Y,,,,,,,M,20,
32,7,359,9,9,8,['k'],['k'],Y,Y,None,N,,,,,,,M,20,
32,8,360,3,3,8,['k'],['k'],Y,N,None,Y,,,,,,,M,20,
32,9,361,5,5,8,['k'],['d'],N,N,None,Y,,,,,,,M,20,
32,10,362,4,4,8,['k'],['d'],N,Y,None,N,,,,,,,M,20,
33,0,363,7,7,8,['k'],['k'],Y,N,None,Y,,,,,,,M,20,
33,1,364,1,1,8,['d'],['d'],Y,N,None,Y,,,,,,,M,20,
33,2,365,3,3,8,['d'],['d'],Y,Y,['space'],Y,,,,,,,M,20,
33,3,366,5,5,8,['k'],['d'],N,N,['space'],N,,,,,,,M,20,
33,4,367,2,2,8,['d'],['d'],Y,Y,None,N,,,,,,,M,20,
33,5,368,1,1,8,['k'],['k'],Y,Y,None,N,,,,,,,M,20,
33,6,369,1,1,8,['d'],['d'],Y,Y,None,N,,,,,,,M,20,
33,7,370,5,5,8,['d'],['d'],Y,N,None,Y,,,,,,,M,20,
33,8,371,5,5,8,['k'],['k'],Y,N,None,Y,,,,,,,M,20,
33,9,372,2,2,8,['d'],['d'],Y,Y,None,N,,,,,,,M,20,
33,10,373,7,7,8,['k'],['k'],Y,Y,['space'],Y,,,,,,,M,20,
34,0,374,10,10,8,['d'],['d'],Y,N,None,Y,,,,,,,M,20,
34,1,375,4,4,8,['d'],['d'],Y,Y,['space'],Y,,,,,,,M,20,
34,2,376,0,0,8,['d'],['d'],Y,N,None,Y,,,,,,,M,20,
34,3,377,0,0,8,['k'],['k'],Y,N,['space'],N,,,,,,,M,20,
34,4,378,5,5,8,['k'],['k'],Y,Y,['space'],Y,,,,,,,M,20,
34,5,379,9,9,8,['d'],['d'],Y,Y,['space'],Y,,,,,,,M,20,
34,6,380,1,1,8,['k'],['k'],Y,N,None,Y,,,,,,,M,20,
34,7,381,9,9,8,['d'],['k'],N,Y,['space'],Y,,,,,,,M,20,
34,8,382,3,3,8,['k'],['k'],Y,N,None,Y,,,,,,,M,20,
34,9,383,5,5,8,['k'],['k'],Y,Y,['space'],Y,,,,,,,M,20,
34,10,384,8,8,8,['d'],['d'],Y,Y,None,N,,,,,,,M,20,
35,0,385,2,2,8,['k'],['k'],Y,N,None,Y,,,,,,,M,20,
35,1,386,6,6,8,['k'],['k'],Y,Y,['space'],Y,,,,,,,M,20,
35,2,387,9,9,8,['d'],['d'],Y,N,None,Y,,,,,,,M,20,
35,3,388,5,5,8,['d'],['d'],Y,Y,None,N,,,,,,,M,20,
35,4,389,10,10,8,['k'],['d'],N,Y,None,N,,,,,,,M,20,
35,5,390,10,10,8,['d'],['d'],Y,Y,None,N,,,,,,,M,20,
35,6,391,8,8,8,['d'],['d'],Y,Y,None,N,,,,,,,M,20,
35,7,392,7,7,8,['k'],['k'],Y,N,None,Y,,,,,,,M,20,
35,8,393,1,1,8,['d'],['d'],Y,Y,['space'],Y,,,,,,,M,20,
35,9,394,8,8,8,['d'],['d'],Y,Y,None,N,,,,,,,M,20,
35,10,395,6,6,8,['d'],['d'],Y,N,None,Y,,,,,,,M,20,
36,0,396,10,10,8,['d'],['d'],Y,N,None,Y,,,,,,,M,20,
36,1,397,7,7,8,['d'],['d'],Y,N,['space'],N,,,,,,,M,20,
36,2,398,8,8,8,['k'],['k'],Y,Y,['space'],Y,,,,,,,M,20,
36,3,399,4,4,8,['k'],['k'],Y,Y,['space'],Y,43,31,25,,,,M,20,
36,4,400,0,0,9,['d'],['d'],Y,,,,,,,,,,M,20,
36,5,401,4,4,9,['k'],['d'],N,,,,,,,,,,M,20,
36,6,402,1,1,9,['k'],['k'],Y,N,None,Y,,,,,,,M,20,
36,7,403,5,5,9,['k'],['k'],Y,Y,None,N,,,,,,,M,20,
36,8,404,1,1,9,['d'],['d'],Y,N,None,Y,,,,,,,M,20,
36,9,405,5,5,9,['k'],['k'],Y,Y,['space'],Y,,,,,,,M,20,
36,10,406,7,7,9,['d'],['d'],Y,N,None,Y,,,,,,,M,20,
37,0,407,3,3,9,['k'],['k'],Y,Y,None,N,,,,,,,M,20,
37,1,408,6,6,9,['k'],['k'],Y,N,None,Y,,,,,,,M,20,
37,2,409,4,4,9,['k'],['d'],N,Y,None,N,,,,,,,M,20,
37,3,410,10,10,9,['k'],['k'],Y,Y,['space'],Y,,,,,,,M,20,
37,4,411,10,10,9,['d'],['d'],Y,Y,['space'],Y,,,,,,,M,20,
37,5,412,8,8,9,['d'],['d'],Y,N,None,Y,,,,,,,M,20,
37,6,413,1,1,9,['d'],['d'],Y,Y,None,N,,,,,,,M,20,
37,7,414,2,2,9,['d'],['d'],Y,Y,['space'],Y,,,,,,,M,20,
37,8,415,8,8,9,['k'],['k'],Y,N,None,Y,,,,,,,M,20,
37,9,416,5,5,9,['d'],['d'],Y,Y,None,N,,,,,,,M,20,
37,10,417,6,6,9,['d'],['d'],Y,Y,['space'],Y,,,,,,,M,20,
38,0,418,1,1,9,['k'],['k'],Y,N,None,Y,,,,,,,M,20,
38,1,419,10,10,9,['k'],['k'],Y,Y,['space'],Y,,,,,,,M,20,
38,2,420,8,8,9,['k'],['k'],Y,N,['space'],N,,,,,,,M,20,
38,3,421,9,9,9,['k'],['d'],N,N,None,Y,,,,,,,M,20,
38,4,422,4,4,9,['k'],['k'],Y,N,None,Y,,,,,,,M,20,
38,5,423,1,1,9,['d'],['d'],Y,Y,['space'],Y,,,,,,,M,20,
38,6,424,1,1,9,['k'],['k'],Y,Y,None,N,,,,,,,M,20,
38,7,425,3,3,9,['k'],['k'],Y,N,None,Y,,,,,,,M,20,
38,8,426,1,1,9,['k'],['k'],Y,N,['space'],N,,,,,,,M,20,
38,9,427,6,6,9,['k'],['k'],Y,Y,None,N,,,,,,,M,20,
38,10,428,0,0,9,['d'],['d'],Y,Y,['space'],Y,,,,,,,M,20,
39,0,429,3,3,9,['k'],['k'],Y,Y,['space'],Y,,,,,,,M,20,
39,1,430,3,3,9,['k'],['k'],Y,N,None,Y,,,,,,,M,20,
39,2,431,3,3,9,['k'],['k'],Y,Y,['space'],Y,,,,,,,M,20,
39,3,432,10,10,9,['d'],['d'],Y,N,None,Y,,,,,,,M,20,
39,4,433,9,9,9,['d'],['d'],Y,Y,['space'],Y,,,,,,,M,20,
39,5,434,0,0,9,['d'],['k'],N,Y,None,N,,,,,,,M,20,
39,6,435,4,4,9,['d'],['d'],Y,N,None,Y,,,,,,,M,20,
39,7,436,0,0,9,['d'],['d'],Y,N,None,Y,,,,,,,M,20,
39,8,437,5,5,9,['d'],['d'],Y,Y,['space'],Y,,,,,,,M,20,
39,9,438,0,0,9,['k'],['k'],Y,N,None,Y,,,,,,,M,20,
39,10,439,6,6,9,['d'],['d'],Y,Y,['space'],Y,,,,,,,M,20,
40,0,440,9,9,9,['k'],['k'],Y,Y,['space'],Y,,,,,,,M,20,
40,1,441,5,5,9,['k'],['k'],Y,Y,['space'],Y,,,,,,,M,20,
40,2,442,10,10,9,['d'],['d'],Y,Y,['space'],Y,,,,,,,M,20,
40,3,443,6,6,9,['k'],['k'],Y,N,None,Y,,,,,,,M,20,
40,4,444,1,1,9,['k'],['k'],Y,Y,['space'],Y,,,,,,,M,20,
40,5,445,8,8,9,['d'],['d'],Y,N,None,Y,,,,,,,M,20,
40,6,446,3,3,9,['d'],['d'],Y,N,None,Y,,,,,,,M,20,
40,7,447,0,0,9,['k'],['k'],Y,N,None,Y,,,,,,,M,20,
40,8,448,7,7,9,['d'],['d'],Y,N,None,Y,,,,,,,M,20,
40,9,449,0,0,9,['k'],['k'],Y,N,None,Y,46,38,25,,,,M,20,
40,10,450,2,2,10,['k'],['k'],Y,,,,,,,,,,M,20,
41,0,451,7,7,10,['k'],['k'],Y,,,,,,,,,,M,20,
41,1,452,2,2,10,['d'],['d'],Y,Y,['space'],Y,,,,,,,M,20,
41,2,453,9,9,10,['k'],['k'],Y,Y,['space'],Y,,,,,,,M,20,
41,3,454,1,1,10,['k'],['k'],Y,Y,['space'],Y,,,,,,,M,20,
41,4,455,1,1,10,['d'],['d'],Y,Y,['space'],Y,,,,,,,M,20,
41,5,456,10,10,10,['k'],['k'],Y,N,None,Y,,,,,,,M,20,
41,6,457,9,9,10,['k'],['d'],N,N,None,Y,,,,,,,M,20,
41,7,458,10,10,10,['d'],['d'],Y,N,None,Y,,,,,,,M,20,
41,8,459,9,9,10,['d'],['d'],Y,N,None,Y,,,,,,,M,20,
41,9,460,9,9,10,['k'],['k'],Y,Y,None,N,,,,,,,M,20,
41,10,461,5,5,10,['d'],['d'],Y,N,None,Y,,,,,,,M,20,
42,0,462,0,0,10,['d'],['k'],N,N,None,Y,,,,,,,M,20,
42,1,463,4,4,10,['d'],['d'],Y,N,None,Y,,,,,,,M,20,
42,2,464,8,8,10,['d'],['d'],Y,Y,['space'],Y,,,,,,,M,20,
42,3,465,1,1,10,['d'],['d'],Y,N,None,Y,,,,,,,M,20,
42,4,466,6,6,10,['k'],['k'],Y,Y,['space'],Y,,,,,,,M,20,
42,5,467,3,3,10,['k'],['d'],N,Y,['space'],Y,,,,,,,M,20,
42,6,468,0,0,10,['k'],['k'],Y,Y,['space'],Y,,,,,,,M,20,
42,7,469,3,3,10,['d'],['d'],Y,Y,['space'],Y,,,,,,,M,20,
42,8,470,1,1,10,['d'],['d'],Y,Y,None,N,,,,,,,M,20,
42,9,471,7,7,10,['k'],['k'],Y,N,None,Y,,,,,,,M,20,
42,10,472,10,10,10,['k'],['k'],Y,N,None,Y,,,,,,,M,20,
43,0,473,8,8,10,['k'],['k'],Y,N,None,Y,,,,,,,M,20,
43,1,474,5,5,10,['k'],['k'],Y,N,None,Y,,,,,,,M,20,
43,2,475,10,10,10,['k'],['d'],N,N,['space'],N,,,,,,,M,20,
43,3,476,1,1,10,['k'],['k'],Y,N,None,Y,,,,,,,M,20,
43,4,477,7,7,10,['d'],['d'],Y,Y,None,N,,,,,,,M,20,
43,5,478,6,6,10,['k'],['k'],Y,Y,None,N,,,,,,,M,20,
43,6,479,0,0,10,['k'],['k'],Y,Y,None,N,,,,,,,M,20,
43,7,480,3,3,10,['d'],['d'],Y,Y,['space'],Y,,,,,,,M,20,
43,8,481,8,8,10,['k'],['d'],N,N,None,Y,,,,,,,M,20,
43,9,482,8,8,10,['k'],['d'],N,N,None,Y,,,,,,,M,20,
43,10,483,5,5,10,['k'],['k'],Y,N,None,Y,,,,,,,M,20,
44,0,484,9,9,10,['k'],['k'],Y,N,None,Y,,,,,,,M,20,
44,1,485,5,5,10,['k'],['k'],Y,Y,None,N,,,,,,,M,20,
44,2,486,7,7,10,['k'],['k'],Y,N,None,Y,,,,,,,M,20,
44,3,487,6,6,10,['d'],['d'],Y,Y,['space'],Y,,,,,,,M,20,
44,4,488,0,0,10,['k'],['k'],Y,N,None,Y,,,,,,,M,20,
44,5,489,6,6,10,['d'],['d'],Y,Y,['k'],N,,,,,,,M,20,
44,6,490,5,5,10,['k'],['k'],Y,N,['d'],N,,,,,,,M,20,
44,7,491,9,9,10,['d'],['d'],Y,N,None,Y,,,,,,,M,20,
44,8,492,5,5,10,['k'],['k'],Y,Y,['space'],Y,,,,,,,M,20,
44,9,493,1,1,10,['d'],['d'],Y,Y,None,N,,,,,,,M,20,
44,10,494,4,4,10,['k'],['k'],Y,N,None,Y,,,,,,,M,20,
45,0,495,7,7,10,['k'],['k'],Y,N,None,Y,,,,,,,M,20,
45,1,496,6,6,10,['k'],['k'],Y,Y,['space'],Y,,,,,,,M,20,
45,2,497,9,9,10,['k'],['k'],Y,N,None,Y,,,,,,,M,20,
45,3,498,7,7,10,['k'],['k'],Y,N,['space'],N,,,,,,,M,20,
45,4,499,10,10,10,['d'],['d'],Y,N,None,Y,44,37,21,,,,M,20,
45,5,500,7,7,11,['d'],['k'],Y,,,,,,,Y,Y,Y,M,20,
45,6,501,6,6,11,['k'],['d'],Y,,,,,,,,Y,Y,M,20,
45,7,502,4,4,11,['d'],['d'],N,Y,None,N,,,,,Y,Y,M,20,
45,8,503,2,2,11,['k'],['k'],N,Y,None,N,,,,,Y,Y,M,20,
45,9,504,3,3,11,['k'],['k'],N,Y,['space'],Y,,,,,Y,Y,M,20,
45,10,505,5,5,11,['d'],['d'],N,Y,None,N,,,,,Y,Y,M,20,
46,0,506,0,0,11,['k'],['k'],N,Y,['space'],Y,,,,,Y,Y,M,20,
46,1,507,4,4,11,['d'],['d'],N,Y,None,N,,,,,Y,Y,M,20,
46,2,508,6,6,11,['d'],['d'],N,Y,None,N,,,,,Y,Y,M,20,
46,3,509,0,0,11,['k'],['k'],N,N,None,Y,,,,,Y,Y,M,20,
46,4,510,0,0,11,None,,Timed out,Y,None,N,,,,,Y,Y,M,20,
46,5,511,7,7,11,['d'],['d'],N,N,None,Y,,,,,Y,Y,M,20,
46,6,512,4,4,11,['d'],['k'],Y,Y,None,N,,,,,Y,Y,M,20,
46,7,513,3,3,11,['d'],['d'],N,Y,None,N,,,,,Y,Y,M,20,
46,8,514,10,10,11,['d'],['d'],N,Y,['space'],Y,,,,,Y,Y,M,20,
46,9,515,3,3,11,['k'],['k'],N,Y,['space'],Y,,,,,Y,Y,M,20,
46,10,516,0,0,11,['k'],['d'],Y,Y,['space'],Y,,,,,Y,Y,M,20,
47,0,517,8,8,11,['d'],['d'],N,N,None,Y,,,,,Y,Y,M,20,
47,1,518,1,1,11,['d'],['k'],Y,Y,['space'],Y,,,,,Y,Y,M,20,
47,2,519,0,0,11,['d'],['k'],Y,Y,None,N,,,,,Y,Y,M,20,
47,3,520,4,4,11,['k'],['d'],Y,N,None,Y,,,,,Y,Y,M,20,
47,4,521,5,5,11,['d'],['k'],Y,N,None,Y,,,,,Y,Y,M,20,
47,5,522,3,3,11,['d'],['k'],Y,Y,None,N,,,,,Y,Y,M,20,
47,6,523,9,9,11,['d'],['d'],N,N,None,Y,,,,,Y,Y,M,20,
47,7,524,8,8,11,['k'],['d'],Y,Y,['space'],Y,,,,,Y,Y,M,20,
47,8,525,1,1,11,['d'],['d'],N,N,None,Y,,,,,Y,Y,M,20,
47,9,526,7,7,11,['d'],['d'],N,N,None,Y,,,,,Y,Y,M,20,
47,10,527,0,0,11,['k'],['k'],N,N,['k'],N,,,,,Y,Y,M,20,
48,0,528,0,0,11,['k'],['d'],Y,Y,['space'],Y,,,,,Y,Y,M,20,
48,1,529,10,10,11,['d'],['k'],Y,N,None,Y,,,,,Y,Y,M,20,
48,2,530,10,10,11,['k'],['d'],Y,N,None,Y,,,,,Y,Y,M,20,
48,3,531,2,2,11,['d'],['k'],Y,Y,None,N,,,,,Y,Y,M,20,
48,4,532,7,7,11,['d'],['k'],Y,Y,['space'],Y,,,,,Y,Y,M,20,
48,5,533,10,10,11,['d'],['k'],Y,N,None,Y,,,,,Y,Y,M,20,
48,6,534,0,0,11,['d'],['k'],Y,N,None,Y,,,,,Y,Y,M,20,
48,7,535,3,3,11,None,,Timed out,Y,['space'],Y,,,,,Y,Y,M,20,
48,8,536,9,9,11,['d'],['d'],N,Y,['space'],Y,,,,,Y,Y,M,20,
48,9,537,4,4,11,['d'],['k'],Y,N,None,Y,,,,,Y,Y,M,20,
48,10,538,7,7,11,['d'],['k'],Y,N,None,Y,,,,,Y,Y,M,20,
49,0,539,7,7,11,['d'],['d'],N,Y,None,N,,,,,Y,Y,M,20,
49,1,540,10,10,11,['d'],['d'],N,Y,None,N,,,,,Y,Y,M,20,
49,2,541,3,3,11,['k'],['k'],N,N,None,Y,,,,,Y,Y,M,20,
49,3,542,8,8,11,['d'],['k'],Y,Y,['space'],Y,,,,,Y,Y,M,20,
49,4,543,2,2,11,['d'],['k'],Y,N,None,Y,,,,,Y,Y,M,20,
49,5,544,2,2,11,None,,Timed out,N,['space'],N,,,,,Y,Y,M,20,
49,6,545,7,7,11,['d'],['d'],N,N,['space'],N,,,,,Y,Y,M,20,
49,7,546,8,8,11,['k'],['d'],Y,N,None,Y,,,,,Y,Y,M,20,
49,8,547,6,6,11,['d'],['k'],Y,N,['space'],N,,,,,Y,Y,M,20,
49,9,548,2,2,11,['k'],['d'],Y,N,None,Y,,,,,Y,Y,M,20,
49,10,549,3,3,11,['d'],['k'],Y,N,None,Y,25,31,25,,Y,Y,M,20,
50,0,550,3,3,12,['d'],['k'],Y,,,,,,,,Y,Y,M,20,
50,1,551,1,1,12,['k'],['d'],Y,,,,,,,,Y,Y,M,20,
50,2,552,5,5,12,['d'],['k'],Y,N,None,Y,,,,,Y,Y,M,20,
50,3,553,9,9,12,['k'],['d'],Y,Y,['space'],Y,,,,,Y,Y,M,20,
50,4,554,10,10,12,['d'],['k'],Y,Y,['space'],Y,,,,,Y,Y,M,20,
50,5,555,0,0,12,['d'],['k'],Y,Y,['space'],Y,,,,,Y,Y,M,20,
50,6,556,9,9,12,None,,Timed out,Y,['space'],Y,,,,,Y,Y,M,20,
50,7,557,8,8,12,['d'],['d'],N,N,None,Y,,,,,Y,Y,M,20,
50,8,558,8,8,12,['d'],['d'],N,N,None,Y,,,,,Y,Y,M,20,
50,9,559,4,4,12,['k'],['d'],Y,Y,['space'],Y,,,,,Y,Y,M,20,
50,10,560,1,1,12,['k'],['k'],N,Y,['space'],Y,,,,,Y,Y,M,20,
51,0,561,1,1,12,['k'],['d'],Y,N,None,Y,,,,,Y,Y,M,20,
51,1,562,3,3,12,['d'],['k'],Y,Y,['space'],Y,,,,,Y,Y,M,20,
51,2,563,2,2,12,['d'],['k'],Y,N,None,Y,,,,,Y,Y,M,20,
51,3,564,7,7,12,['d'],['d'],N,N,None,Y,,,,,Y,Y,M,20,
51,4,565,3,3,12,['k'],['d'],Y,Y,['space'],Y,,,,,Y,Y,M,20,
51,5,566,2,2,12,['k'],['d'],Y,Y,['space'],Y,,,,,Y,Y,M,20,
51,6,567,7,7,12,['k'],['d'],Y,Y,None,N,,,,,Y,Y,M,20,
51,7,568,8,8,12,['d'],['k'],Y,N,['space'],N,,,,,Y,Y,M,20,
51,8,569,5,5,12,['d'],['k'],Y,N,None,Y,,,,,Y,Y,M,20,
51,9,570,2,2,12,['d'],['k'],Y,N,['space'],N,,,,,Y,Y,M,20,
51,10,571,8,8,12,['d'],['d'],N,Y,['space'],Y,,,,,Y,Y,M,20,
52,0,572,4,4,12,['d'],['k'],Y,Y,['d'],N,,,,,Y,Y,M,20,
52,1,573,1,1,12,['k'],['d'],Y,N,None,Y,,,,,Y,Y,M,20,
52,2,574,1,1,12,['k'],['d'],Y,N,['space'],N,,,,,Y,Y,M,20,
52,3,575,8,8,12,['k'],['d'],Y,N,None,Y,,,,,Y,Y,M,20,
52,4,576,4,4,12,['d'],['k'],Y,Y,['space'],Y,,,,,Y,Y,M,20,
52,5,577,6,6,12,['d'],['d'],N,Y,['space'],Y,,,,,Y,Y,M,20,
52,6,578,8,8,12,['d'],['d'],N,Y,['space'],Y,,,,,Y,Y,M,20,
52,7,579,7,7,12,['k'],['k'],N,N,['space'],N,,,,,Y,Y,M,20,
52,8,580,5,5,12,['d'],['d'],N,Y,['space'],Y,,,,,Y,Y,M,20,
52,9,581,0,0,12,None,,Timed out,N,['d'],N,,,,,Y,Y,M,20,
52,10,582,6,6,12,['d'],['k'],Y,Y,None,N,,,,,Y,Y,M,20,
53,0,583,8,8,12,['d'],['d'],N,N,None,Y,,,,,Y,Y,M,20,
53,1,584,1,1,12,['d'],['k'],Y,N,None,Y,,,,,Y,Y,M,20,
53,2,585,7,7,12,['d'],['k'],Y,Y,None,N,,,,,Y,Y,M,20,
53,3,586,6,6,12,['d'],['d'],N,N,None,Y,,,,,Y,Y,M,20,
53,4,587,9,9,12,['d'],['d'],N,N,None,Y,,,,,Y,Y,M,20,
53,5,588,0,0,12,['d'],['k'],Y,Y,['space'],Y,,,,,Y,Y,M,20,
53,6,589,7,7,12,['k'],['d'],Y,Y,None,N,,,,,Y,Y,M,20,
53,7,590,6,6,12,['d'],['k'],Y,Y,None,N,,,,,Y,Y,M,20,
53,8,591,5,5,12,['k'],['d'],Y,N,None,Y,,,,,Y,Y,M,20,
53,9,592,0,0,12,['k'],['d'],Y,Y,['space'],Y,,,,,Y,Y,M,20,
53,10,593,9,9,12,['d'],['d'],N,Y,['space'],Y,,,,,Y,Y,M,20,
54,0,594,0,0,12,['d'],['k'],Y,Y,['space'],Y,,,,,Y,Y,M,20,
54,1,595,0,0,12,['k'],['d'],Y,Y,None,N,,,,,Y,Y,M,20,
54,2,596,2,2,12,['d'],['k'],Y,N,None,Y,,,,,Y,Y,M,20,
54,3,597,4,4,12,['d'],['d'],N,N,None,Y,,,,,Y,Y,M,20,
54,4,598,10,10,12,['d'],['d'],N,N,None,Y,,,,,Y,Y,M,20,
54,5,599,8,8,12,['d'],['d'],N,N,None,Y,32,36,25,,Y,Y,M,20,
