.thisRepN,.thisTrialN,.thisN,.thisIndex,.thisTrial,Block Number,Key pressed,Category,Correct?,Int Match?,Int Response,Int Correct?,Line Accuracy,Interference Accuracy,Matching Interferences,New instruction shown?,Buttons switched?,Fast?,gender,age,
0,0,0,2,2,1,['d'],['d'],Y,,,,,,,,,,F,21,
0,1,1,0,0,1,['k'],['d'],N,,,,,,,,,,F,21,
0,2,2,3,3,1,['d'],['d'],Y,Y,None,N,,,,,,,F,21,
0,3,3,0,0,1,['d'],['d'],Y,Y,None,N,,,,,,,F,21,
0,4,4,7,7,1,['d'],['d'],Y,Y,None,N,,,,,,,F,21,
0,5,5,3,3,1,['d'],['k'],N,N,None,Y,,,,,,,F,21,
0,6,6,1,1,1,['d'],['d'],Y,N,None,Y,,,,,,,F,21,
0,7,7,6,6,1,['k'],['k'],Y,Y,None,N,,,,,,,F,21,
0,8,8,9,9,1,['d'],['d'],Y,Y,None,N,,,,,,,F,21,
0,9,9,4,4,1,['k'],['d'],N,N,None,Y,,,,,,,F,21,
0,10,10,4,4,1,['k'],['k'],Y,N,None,Y,,,,,,,F,21,
1,0,11,9,9,1,['d'],['d'],Y,Y,None,N,,,,,,,F,21,
1,1,12,7,7,1,['k'],['k'],Y,N,None,Y,,,,,,,F,21,
1,2,13,9,9,1,['d'],['d'],Y,Y,None,N,,,,,,,F,21,
1,3,14,9,9,1,['d'],['k'],N,Y,None,N,,,,,,,F,21,
1,4,15,4,4,1,['k'],['k'],Y,Y,['space'],Y,,,,,,,F,21,
1,5,16,6,6,1,['d'],['d'],Y,N,None,Y,,,,,,,F,21,
1,6,17,5,5,1,['k'],['d'],N,N,None,Y,,,,,,,F,21,
1,7,18,1,1,1,['k'],['k'],Y,Y,['space'],Y,,,,,,,F,21,
1,8,19,10,10,1,['d'],['d'],Y,Y,None,N,,,,,,,F,21,
1,9,20,5,5,1,['k'],['k'],Y,Y,None,N,,,,,,,F,21,
1,10,21,5,5,1,['d'],['d'],Y,N,None,Y,,,,,,,F,21,
2,0,22,1,1,1,['d'],['d'],Y,N,None,Y,,,,,,,F,21,
2,1,23,0,0,1,['d'],['d'],Y,N,None,Y,,,,,,,F,21,
2,2,24,7,7,1,['k'],['k'],Y,Y,None,N,,,,,,,F,21,
2,3,25,9,9,1,['k'],['k'],Y,N,None,Y,,,,,,,F,21,
2,4,26,2,2,1,['d'],['d'],Y,Y,['space'],Y,,,,,,,F,21,
2,5,27,6,6,1,['d'],['d'],Y,Y,['space'],Y,,,,,,,F,21,
2,6,28,5,5,1,['d'],['d'],Y,Y,None,N,,,,,,,F,21,
2,7,29,0,0,1,['k'],['k'],Y,Y,None,N,,,,,,,F,21,
2,8,30,5,5,1,['k'],['k'],Y,Y,None,N,,,,,,,F,21,
2,9,31,8,8,1,['k'],['k'],Y,Y,None,N,,,,,,,F,21,
2,10,32,10,10,1,['k'],['k'],Y,N,None,Y,,,,,,,F,21,
3,0,33,10,10,1,['d'],['d'],Y,N,None,Y,,,,,,,F,21,
3,1,34,2,2,1,['d'],['d'],Y,Y,['space'],Y,,,,,,,F,21,
3,2,35,7,7,1,['k'],['k'],Y,Y,None,N,,,,,,,F,21,
3,3,36,2,2,1,['d'],['k'],N,N,None,Y,,,,,,,F,21,
3,4,37,2,2,1,['k'],['d'],N,N,None,Y,,,,,,,F,21,
3,5,38,1,1,1,['d'],['d'],Y,Y,None,N,,,,,,,F,21,
3,6,39,10,10,1,['k'],['d'],N,Y,None,N,,,,,,,F,21,
3,7,40,2,2,1,['d'],['d'],Y,N,None,Y,,,,,,,F,21,
3,8,41,10,10,1,['k'],['k'],Y,N,None,Y,,,,,,,F,21,
3,9,42,10,10,1,['k'],['d'],N,Y,None,N,,,,,,,F,21,
3,10,43,8,8,1,['k'],['k'],Y,N,None,Y,,,,,,,F,21,
4,0,44,7,7,1,['d'],['d'],Y,Y,None,N,,,,,,,F,21,
4,1,45,9,9,1,['k'],['k'],Y,N,None,Y,,,,,,,F,21,
4,2,46,0,0,1,['d'],['d'],Y,N,None,Y,,,,,,,F,21,
4,3,47,6,6,1,['k'],['d'],N,N,None,Y,,,,,,,F,21,
4,4,48,2,2,1,['k'],['k'],Y,N,None,Y,,,,,,,F,21,
4,5,49,10,10,1,['d'],['k'],N,N,None,Y,39,28,25,,,,F,21,
4,6,50,0,0,2,['d'],['d'],Y,,,,,,,,,,F,21,
4,7,51,10,10,2,['d'],['d'],Y,,,,,,,,,,F,21,
4,8,52,5,5,2,['d'],['d'],Y,N,None,Y,,,,,,,F,21,
4,9,53,4,4,2,['k'],['k'],Y,N,None,Y,,,,,,,F,21,
4,10,54,8,8,2,['k'],['k'],Y,N,None,Y,,,,,,,F,21,
5,0,55,2,2,2,['d'],['k'],N,N,None,Y,,,,,,,F,21,
5,1,56,3,3,2,['k'],['d'],N,Y,None,N,,,,,,,F,21,
5,2,57,1,1,2,['k'],['k'],Y,Y,None,N,,,,,,,F,21,
5,3,58,10,10,2,['d'],['k'],N,Y,None,N,,,,,,,F,21,
5,4,59,0,0,2,['d'],['d'],Y,N,None,Y,,,,,,,F,21,
5,5,60,4,4,2,['k'],['k'],Y,N,None,Y,,,,,,,F,21,
5,6,61,9,9,2,['k'],['k'],Y,N,None,Y,,,,,,,F,21,
5,7,62,0,0,2,['k'],['k'],Y,N,None,Y,,,,,,,F,21,
5,8,63,2,2,2,['d'],['d'],Y,N,None,Y,,,,,,,F,21,
5,9,64,1,1,2,['k'],['d'],N,N,None,Y,,,,,,,F,21,
5,10,65,0,0,2,['k'],['k'],Y,N,None,Y,,,,,,,F,21,
6,0,66,6,6,2,['k'],['k'],Y,N,None,Y,,,,,,,F,21,
6,1,67,5,5,2,['k'],['k'],Y,N,None,Y,,,,,,,F,21,
6,2,68,4,4,2,['d'],['d'],Y,N,None,Y,,,,,,,F,21,
6,3,69,8,8,2,['k'],['k'],Y,Y,None,N,,,,,,,F,21,
6,4,70,8,8,2,['k'],['k'],Y,Y,['space'],Y,,,,,,,F,21,
6,5,71,5,5,2,['d'],['k'],N,N,None,Y,,,,,,,F,21,
6,6,72,10,10,2,['k'],['k'],Y,N,None,Y,,,,,,,F,21,
6,7,73,5,5,2,['d'],['d'],Y,N,None,Y,,,,,,,F,21,
6,8,74,9,9,2,['d'],['d'],Y,Y,None,N,,,,,,,F,21,
6,9,75,1,1,2,['d'],['d'],Y,Y,['space'],Y,,,,,,,F,21,
6,10,76,3,3,2,['k'],['k'],Y,N,None,Y,,,,,,,F,21,
7,0,77,8,8,2,['d'],['d'],Y,Y,['space'],Y,,,,,,,F,21,
7,1,78,4,4,2,['d'],['d'],Y,N,None,Y,,,,,,,F,21,
7,2,79,3,3,2,['d'],['d'],Y,N,None,Y,,,,,,,F,21,
7,3,80,8,8,2,['d'],['d'],Y,Y,['space'],Y,,,,,,,F,21,
7,4,81,9,9,2,['k'],['k'],Y,Y,None,N,,,,,,,F,21,
7,5,82,4,4,2,['k'],['k'],Y,N,None,Y,,,,,,,F,21,
7,6,83,1,1,2,['d'],['d'],Y,Y,None,N,,,,,,,F,21,
7,7,84,0,0,2,['d'],['k'],N,Y,None,N,,,,,,,F,21,
7,8,85,2,2,2,['k'],['k'],Y,Y,None,N,,,,,,,F,21,
7,9,86,6,6,2,['k'],['k'],Y,Y,None,N,,,,,,,F,21,
7,10,87,1,1,2,['k'],['k'],Y,N,None,Y,,,,,,,F,21,
8,0,88,9,9,2,['k'],['d'],N,Y,['space'],Y,,,,,,,F,21,
8,1,89,3,3,2,['k'],['d'],N,N,None,Y,,,,,,,F,21,
8,2,90,6,6,2,['d'],['d'],Y,Y,None,N,,,,,,,F,21,
8,3,91,8,8,2,['k'],['d'],N,N,None,Y,,,,,,,F,21,
8,4,92,9,9,2,['d'],['d'],Y,N,None,Y,,,,,,,F,21,
8,5,93,4,4,2,['k'],['k'],Y,N,None,Y,,,,,,,F,21,
8,6,94,1,1,2,['k'],['k'],Y,Y,['space'],Y,,,,,,,F,21,
8,7,95,9,9,2,['k'],['k'],Y,N,None,Y,,,,,,,F,21,
8,8,96,5,5,2,['d'],['d'],Y,Y,None,N,,,,,,,F,21,
8,9,97,0,0,2,['d'],['d'],Y,N,None,Y,,,,,,,F,21,
8,10,98,9,9,2,['d'],['d'],Y,N,None,Y,,,,,,,F,21,
9,0,99,4,4,2,['k'],['k'],Y,N,None,Y,41,36,18,,,,F,21,
9,1,100,9,9,3,['d'],['d'],Y,,,,,,,,,,F,21,
9,2,101,4,4,3,['d'],['d'],Y,,,,,,,,,,F,21,
9,3,102,5,5,3,['d'],['d'],Y,Y,['space'],Y,,,,,,,F,21,
9,4,103,10,10,3,['d'],['d'],Y,Y,None,N,,,,,,,F,21,
9,5,104,0,0,3,['k'],['k'],Y,Y,['space'],Y,,,,,,,F,21,
9,6,105,7,7,3,['d'],['d'],Y,N,None,Y,,,,,,,F,21,
9,7,106,8,8,3,['d'],['d'],Y,N,None,Y,,,,,,,F,21,
9,8,107,0,0,3,['k'],['k'],Y,N,None,Y,,,,,,,F,21,
9,9,108,1,1,3,['d'],['d'],Y,Y,['space'],Y,,,,,,,F,21,
9,10,109,6,6,3,['d'],['d'],Y,N,None,Y,,,,,,,F,21,
10,0,110,9,9,3,['k'],['k'],Y,N,None,Y,,,,,,,F,21,
10,1,111,2,2,3,['k'],['k'],Y,Y,['space'],Y,,,,,,,F,21,
10,2,112,10,10,3,['d'],['d'],Y,N,None,Y,,,,,,,F,21,
10,3,113,1,1,3,['k'],['k'],Y,Y,['space'],Y,,,,,,,F,21,
10,4,114,8,8,3,['d'],['d'],Y,Y,['space'],Y,,,,,,,F,21,
10,5,115,2,2,3,['d'],['d'],Y,Y,None,N,,,,,,,F,21,
10,6,116,6,6,3,['d'],['d'],Y,Y,['space'],Y,,,,,,,F,21,
10,7,117,3,3,3,['d'],['d'],Y,Y,['space'],Y,,,,,,,F,21,
10,8,118,0,0,3,['d'],['d'],Y,N,None,Y,,,,,,,F,21,
10,9,119,7,7,3,['d'],['d'],Y,Y,None,N,,,,,,,F,21,
10,10,120,2,2,3,['d'],['d'],Y,Y,['space'],Y,,,,,,,F,21,
11,0,121,1,1,3,['d'],['d'],Y,N,None,Y,,,,,,,F,21,
11,1,122,4,4,3,['k'],['k'],Y,N,None,Y,,,,,,,F,21,
11,2,123,10,10,3,['k'],['k'],Y,Y,['space'],Y,,,,,,,F,21,
11,3,124,2,2,3,['d'],['d'],Y,Y,['space'],Y,,,,,,,F,21,
11,4,125,1,1,3,['k'],['k'],Y,N,None,Y,,,,,,,F,21,
11,5,126,8,8,3,['d'],['d'],Y,Y,['space'],Y,,,,,,,F,21,
11,6,127,9,9,3,['d'],['d'],Y,N,None,Y,,,,,,,F,21,
11,7,128,4,4,3,['k'],['k'],Y,Y,None,N,,,,,,,F,21,
11,8,129,4,4,3,['k'],['k'],Y,N,['space'],N,,,,,,,F,21,
11,9,130,5,5,3,['d'],['k'],N,N,None,Y,,,,,,,F,21,
11,10,131,9,9,3,['k'],['k'],Y,N,None,Y,,,,,,,F,21,
12,0,132,9,9,3,['k'],['k'],Y,N,None,Y,,,,,,,F,21,
12,1,133,0,0,3,['k'],['k'],Y,N,None,Y,,,,,,,F,21,
12,2,134,4,4,3,['d'],['d'],Y,Y,['space'],Y,,,,,,,F,21,
12,3,135,1,1,3,['d'],['d'],Y,Y,None,N,,,,,,,F,21,
12,4,136,1,1,3,['d'],['d'],Y,Y,['space'],Y,,,,,,,F,21,
12,5,137,10,10,3,['d'],['d'],Y,N,None,Y,,,,,,,F,21,
12,6,138,4,4,3,['d'],['d'],Y,Y,['d'],N,,,,,,,F,21,
12,7,139,9,9,3,['k'],['k'],Y,Y,['space'],Y,,,,,,,F,21,
12,8,140,0,0,3,['d'],['d'],Y,N,['space'],N,,,,,,,F,21,
12,9,141,6,6,3,['k'],['k'],Y,N,None,Y,,,,,,,F,21,
12,10,142,9,9,3,['k'],['k'],Y,N,None,Y,,,,,,,F,21,
13,0,143,6,6,3,['d'],['d'],Y,Y,['space'],Y,,,,,,,F,21,
13,1,144,1,1,3,['d'],['d'],Y,Y,['space'],Y,,,,,,,F,21,
13,2,145,2,2,3,['k'],['k'],Y,Y,['space'],Y,,,,,,,F,21,
13,3,146,7,7,3,['k'],['k'],Y,N,None,Y,,,,,,,F,21,
13,4,147,6,6,3,['k'],['k'],Y,N,None,Y,,,,,,,F,21,
13,5,148,2,2,3,['d'],['d'],Y,Y,['space'],Y,,,,,,,F,21,
13,6,149,3,3,3,['d'],['d'],Y,N,None,Y,49,40,25,,,,F,21,
13,7,150,10,10,4,['d'],['k'],N,,,,,,,,,,F,21,
13,8,151,7,7,4,['k'],['k'],Y,,,,,,,,,,F,21,
13,9,152,7,7,4,['k'],['k'],Y,Y,['space'],Y,,,,,,,F,21,
13,10,153,10,10,4,['d'],['d'],Y,Y,['space'],Y,,,,,,,F,21,
14,0,154,6,6,4,['k'],['k'],Y,Y,['space'],Y,,,,,,,F,21,
14,1,155,7,7,4,['d'],['d'],Y,N,None,Y,,,,,,,F,21,
14,2,156,6,6,4,['k'],['k'],Y,N,None,Y,,,,,,,F,21,
14,3,157,3,3,4,['d'],['d'],Y,N,None,Y,,,,,,,F,21,
14,4,158,0,0,4,['d'],['k'],N,Y,['space'],Y,,,,,,,F,21,
14,5,159,8,8,4,['d'],['d'],Y,N,None,Y,,,,,,,F,21,
14,6,160,0,0,4,['k'],['k'],Y,Y,['space'],Y,,,,,,,F,21,
14,7,161,6,6,4,['k'],['k'],Y,N,None,Y,,,,,,,F,21,
14,8,162,1,1,4,['k'],['k'],Y,N,None,Y,,,,,,,F,21,
14,9,163,10,10,4,['d'],['d'],Y,Y,['space'],Y,,,,,,,F,21,
14,10,164,7,7,4,['d'],['k'],N,Y,['space'],Y,,,,,,,F,21,
15,0,165,6,6,4,['k'],['k'],Y,N,None,Y,,,,,,,F,21,
15,1,166,4,4,4,['d'],['d'],Y,Y,['space'],Y,,,,,,,F,21,
15,2,167,4,4,4,['k'],['k'],Y,N,None,Y,,,,,,,F,21,
15,3,168,4,4,4,['d'],['d'],Y,Y,['space'],Y,,,,,,,F,21,
15,4,169,9,9,4,['k'],['k'],Y,Y,['space'],Y,,,,,,,F,21,
15,5,170,4,4,4,['d'],['k'],N,Y,['space'],Y,,,,,,,F,21,
15,6,171,9,9,4,['d'],['d'],Y,Y,None,N,,,,,,,F,21,
15,7,172,9,9,4,['d'],['d'],Y,Y,['space'],Y,,,,,,,F,21,
15,8,173,2,2,4,['k'],['k'],Y,Y,None,N,,,,,,,F,21,
15,9,174,4,4,4,['k'],['k'],Y,N,None,Y,,,,,,,F,21,
15,10,175,4,4,4,['k'],['k'],Y,Y,None,N,,,,,,,F,21,
16,0,176,3,3,4,['k'],['k'],Y,Y,['space'],Y,,,,,,,F,21,
16,1,177,7,7,4,['k'],['k'],Y,N,None,Y,,,,,,,F,21,
16,2,178,2,2,4,['k'],['k'],Y,Y,['space'],Y,,,,,,,F,21,
16,3,179,6,6,4,['d'],['d'],Y,Y,['space'],Y,,,,,,,F,21,
16,4,180,6,6,4,['d'],['d'],Y,Y,['space'],Y,,,,,,,F,21,
16,5,181,7,7,4,['k'],['k'],Y,Y,['space'],Y,,,,,,,F,21,
16,6,182,4,4,4,['k'],['k'],Y,Y,None,N,,,,,,,F,21,
16,7,183,0,0,4,['d'],['k'],N,Y,['space'],Y,,,,,,,F,21,
16,8,184,1,1,4,['k'],['k'],Y,Y,['space'],Y,,,,,,,F,21,
16,9,185,10,10,4,['d'],['d'],Y,N,None,Y,,,,,,,F,21,
16,10,186,5,5,4,['d'],['d'],Y,N,None,Y,,,,,,,F,21,
17,0,187,0,0,4,['k'],['d'],N,Y,['space'],Y,,,,,,,F,21,
17,1,188,10,10,4,['d'],['d'],Y,N,['space'],N,,,,,,,F,21,
17,2,189,0,0,4,['k'],['k'],Y,N,None,Y,,,,,,,F,21,
17,3,190,9,9,4,['k'],['k'],Y,N,None,Y,,,,,,,F,21,
17,4,191,4,4,4,['k'],['k'],Y,N,None,Y,,,,,,,F,21,
17,5,192,5,5,4,['d'],['d'],Y,Y,None,N,,,,,,,F,21,
17,6,193,5,5,4,['d'],['d'],Y,N,None,Y,,,,,,,F,21,
17,7,194,5,5,4,['d'],['k'],N,N,None,Y,,,,,,,F,21,
17,8,195,0,0,4,['d'],['d'],Y,N,['space'],N,,,,,,,F,21,
17,9,196,1,1,4,['d'],['d'],Y,N,None,Y,,,,,,,F,21,
17,10,197,3,3,4,['k'],['k'],Y,N,None,Y,,,,,,,F,21,
18,0,198,8,8,4,['d'],['d'],Y,N,None,Y,,,,,,,F,21,
18,1,199,7,7,4,['d'],['d'],Y,N,None,Y,43,41,25,,,,F,21,
18,2,200,8,8,5,['d'],['d'],Y,,,,,,,,,,F,21,
18,3,201,5,5,5,['k'],['k'],Y,,,,,,,,,,F,21,
18,4,202,6,6,5,['d'],['d'],Y,N,None,Y,,,,,,,F,21,
18,5,203,0,0,5,['k'],['k'],Y,N,None,Y,,,,,,,F,21,
18,6,204,9,9,5,['d'],['k'],N,Y,None,N,,,,,,,F,21,
18,7,205,3,3,5,['d'],['d'],Y,N,None,Y,,,,,,,F,21,
18,8,206,8,8,5,['d'],['d'],Y,Y,None,N,,,,,,,F,21,
18,9,207,5,5,5,['k'],['k'],Y,Y,None,N,,,,,,,F,21,
18,10,208,0,0,5,['d'],['d'],Y,N,['space'],N,,,,,,,F,21,
19,0,209,1,1,5,['k'],['k'],Y,Y,['space'],Y,,,,,,,F,21,
19,1,210,2,2,5,['d'],['d'],Y,Y,['space'],Y,,,,,,,F,21,
19,2,211,4,4,5,['k'],['k'],Y,N,None,Y,,,,,,,F,21,
19,3,212,2,2,5,['k'],['k'],Y,N,None,Y,,,,,,,F,21,
19,4,213,3,3,5,['d'],['d'],Y,Y,['space'],Y,,,,,,,F,21,
19,5,214,4,4,5,['k'],['k'],Y,Y,None,N,,,,,,,F,21,
19,6,215,7,7,5,['k'],['k'],Y,Y,None,N,,,,,,,F,21,
19,7,216,4,4,5,['k'],['k'],Y,Y,None,N,,,,,,,F,21,
19,8,217,7,7,5,['k'],['d'],N,Y,None,N,,,,,,,F,21,
19,9,218,8,8,5,['k'],['k'],Y,Y,None,N,,,,,,,F,21,
19,10,219,1,1,5,['d'],['d'],Y,Y,None,N,,,,,,,F,21,
20,0,220,4,4,5,['d'],['d'],Y,N,None,Y,,,,,,,F,21,
20,1,221,9,9,5,['k'],['k'],Y,Y,['space'],Y,,,,,,,F,21,
20,2,222,6,6,5,['d'],['d'],Y,Y,['space'],Y,,,,,,,F,21,
20,3,223,2,2,5,['d'],['d'],Y,N,None,Y,,,,,,,F,21,
20,4,224,5,5,5,['k'],['k'],Y,N,None,Y,,,,,,,F,21,
20,5,225,4,4,5,['d'],['k'],N,N,None,Y,,,,,,,F,21,
20,6,226,9,9,5,['k'],['k'],Y,N,None,Y,,,,,,,F,21,
20,7,227,0,0,5,['d'],['d'],Y,N,None,Y,,,,,,,F,21,
20,8,228,3,3,5,['k'],['d'],N,Y,['space'],Y,,,,,,,F,21,
20,9,229,5,5,5,['d'],['d'],Y,Y,None,N,,,,,,,F,21,
20,10,230,4,4,5,['d'],['d'],Y,N,None,Y,,,,,,,F,21,
21,0,231,10,10,5,['d'],['d'],Y,Y,['space'],Y,,,,,,,F,21,
21,1,232,4,4,5,['k'],['k'],Y,N,None,Y,,,,,,,F,21,
21,2,233,1,1,5,['d'],['k'],N,N,None,Y,,,,,,,F,21,
21,3,234,5,5,5,['k'],['k'],Y,N,None,Y,,,,,,,F,21,
21,4,235,7,7,5,['d'],['k'],N,N,None,Y,,,,,,,F,21,
21,5,236,10,10,5,['d'],['k'],N,Y,None,N,,,,,,,F,21,
21,6,237,8,8,5,['d'],['d'],Y,Y,None,N,,,,,,,F,21,
21,7,238,0,0,5,['d'],['d'],Y,N,['space'],N,,,,,,,F,21,
21,8,239,10,10,5,['k'],['k'],Y,N,None,Y,,,,,,,F,21,
21,9,240,4,4,5,['d'],['d'],Y,Y,None,N,,,,,,,F,21,
21,10,241,9,9,5,['d'],['d'],Y,Y,['space'],Y,,,,,,,F,21,
22,0,242,5,5,5,['d'],['d'],Y,Y,['space'],Y,,,,,,,F,21,
22,1,243,0,0,5,['d'],['d'],Y,Y,['space'],Y,,,,,,,F,21,
22,2,244,10,10,5,['d'],['d'],Y,Y,['space'],Y,,,,,,,F,21,
22,3,245,9,9,5,['k'],['k'],Y,Y,['space'],Y,,,,,,,F,21,
22,4,246,6,6,5,['d'],['d'],Y,N,None,Y,,,,,,,F,21,
22,5,247,10,10,5,['k'],['k'],Y,N,None,Y,,,,,,,F,21,
22,6,248,8,8,5,['d'],['d'],Y,N,None,Y,,,,,,,F,21,
22,7,249,8,8,5,['d'],['d'],Y,N,None,Y,43,33,25,,,,F,21,
22,8,250,3,3,6,['k'],['k'],Y,,,,,,,,,,F,21,
22,9,251,5,5,6,['d'],['k'],N,,,,,,,,,,F,21,
22,10,252,3,3,6,['d'],['d'],Y,Y,None,N,,,,,,,F,21,
23,0,253,7,7,6,['k'],['k'],Y,Y,None,N,,,,,,,F,21,
23,1,254,9,9,6,['k'],['k'],Y,Y,['space'],Y,,,,,,,F,21,
23,2,255,3,3,6,['k'],['k'],Y,Y,['space'],Y,,,,,,,F,21,
23,3,256,2,2,6,['d'],['d'],Y,Y,['space'],Y,,,,,,,F,21,
23,4,257,0,0,6,['k'],['k'],Y,N,None,Y,,,,,,,F,21,
23,5,258,5,5,6,['k'],['k'],Y,Y,['space'],Y,,,,,,,F,21,
23,6,259,5,5,6,['k'],['k'],Y,Y,['space'],Y,,,,,,,F,21,
23,7,260,0,0,6,['k'],['k'],Y,Y,['space'],Y,,,,,,,F,21,
23,8,261,6,6,6,['d'],['d'],Y,N,None,Y,,,,,,,F,21,
23,9,262,10,10,6,['d'],['d'],Y,N,None,Y,,,,,,,F,21,
23,10,263,9,9,6,['d'],['d'],Y,N,None,Y,,,,,,,F,21,
24,0,264,9,9,6,['d'],['d'],Y,Y,['space'],Y,,,,,,,F,21,
24,1,265,7,7,6,['d'],['k'],N,N,None,Y,,,,,,,F,21,
24,2,266,8,8,6,['k'],['k'],Y,N,None,Y,,,,,,,F,21,
24,3,267,10,10,6,['k'],['k'],Y,N,None,Y,,,,,,,F,21,
24,4,268,2,2,6,['k'],['k'],Y,N,None,Y,,,,,,,F,21,
24,5,269,5,5,6,['d'],['k'],N,Y,['space'],Y,,,,,,,F,21,
24,6,270,4,4,6,['k'],['k'],Y,Y,None,N,,,,,,,F,21,
24,7,271,5,5,6,['k'],['d'],N,Y,['space'],Y,,,,,,,F,21,
24,8,272,7,7,6,['k'],['d'],N,Y,None,N,,,,,,,F,21,
24,9,273,4,4,6,['k'],['k'],Y,N,None,Y,,,,,,,F,21,
24,10,274,7,7,6,['d'],['d'],Y,N,None,Y,,,,,,,F,21,
25,0,275,4,4,6,['k'],['k'],Y,Y,['space'],Y,,,,,,,F,21,
25,1,276,10,10,6,['k'],['k'],Y,Y,['space'],Y,,,,,,,F,21,
25,2,277,7,7,6,['k'],['k'],Y,Y,['space'],Y,,,,,,,F,21,
25,3,278,5,5,6,['k'],['k'],Y,N,None,Y,,,,,,,F,21,
25,4,279,4,4,6,['k'],['k'],Y,N,None,Y,,,,,,,F,21,
25,5,280,6,6,6,['k'],['k'],Y,Y,None,N,,,,,,,F,21,
25,6,281,2,2,6,['d'],['d'],Y,N,None,Y,,,,,,,F,21,
25,7,282,2,2,6,['k'],['d'],N,Y,None,N,,,,,,,F,21,
25,8,283,7,7,6,['d'],['d'],Y,N,None,Y,,,,,,,F,21,
25,9,284,0,0,6,['k'],['k'],Y,Y,['space'],Y,,,,,,,F,21,
25,10,285,3,3,6,['d'],['d'],Y,Y,['space'],Y,,,,,,,F,21,
26,0,286,6,6,6,['k'],['k'],Y,N,None,Y,,,,,,,F,21,
26,1,287,0,0,6,['d'],['d'],Y,N,None,Y,,,,,,,F,21,
26,2,288,9,9,6,['k'],['k'],Y,Y,['space'],Y,,,,,,,F,21,
26,3,289,3,3,6,['d'],['d'],Y,N,None,Y,,,,,,,F,21,
26,4,290,5,5,6,['k'],['k'],Y,Y,None,N,,,,,,,F,21,
26,5,291,1,1,6,['k'],['k'],Y,N,None,Y,,,,,,,F,21,
26,6,292,2,2,6,['d'],['d'],Y,N,None,Y,,,,,,,F,21,
26,7,293,8,8,6,['k'],['k'],Y,N,None,Y,,,,,,,F,21,
26,8,294,7,7,6,['k'],['d'],N,N,None,Y,,,,,,,F,21,
26,9,295,0,0,6,['k'],['k'],Y,N,None,Y,,,,,,,F,21,
26,10,296,0,0,6,['d'],['d'],Y,Y,None,N,,,,,,,F,21,
27,0,297,1,1,6,['d'],['d'],Y,N,None,Y,,,,,,,F,21,
27,1,298,2,2,6,['k'],['d'],N,Y,['space'],Y,,,,,,,F,21,
27,2,299,2,2,6,['d'],['k'],N,Y,['space'],Y,41,40,25,,,,F,21,
27,3,300,4,4,7,['d'],['d'],Y,,,,,,,,,,F,21,
27,4,301,6,6,7,['k'],['k'],Y,,,,,,,,,,F,21,
27,5,302,9,9,7,['d'],['d'],Y,Y,None,N,,,,,,,F,21,
27,6,303,1,1,7,['k'],['k'],Y,N,None,Y,,,,,,,F,21,
27,7,304,9,9,7,['k'],['d'],N,N,None,Y,,,,,,,F,21,
27,8,305,1,1,7,['k'],['k'],Y,Y,None,N,,,,,,,F,21,
27,9,306,7,7,7,['d'],['d'],Y,Y,['space'],Y,,,,,,,F,21,
27,10,307,3,3,7,['k'],['k'],Y,Y,['space'],Y,,,,,,,F,21,
28,0,308,7,7,7,['d'],['d'],Y,N,None,Y,,,,,,,F,21,
28,1,309,2,2,7,['k'],['k'],Y,N,None,Y,,,,,,,F,21,
28,2,310,8,8,7,['k'],['k'],Y,Y,['space'],Y,,,,,,,F,21,
28,3,311,0,0,7,['d'],['d'],Y,Y,['space'],Y,,,,,,,F,21,
28,4,312,10,10,7,['d'],['d'],Y,N,None,Y,,,,,,,F,21,
28,5,313,7,7,7,['d'],['d'],Y,Y,['space'],Y,,,,,,,F,21,
28,6,314,7,7,7,['d'],['d'],Y,Y,None,N,,,,,,,F,21,
28,7,315,8,8,7,['d'],['d'],Y,Y,None,N,,,,,,,F,21,
28,8,316,4,4,7,['d'],['d'],Y,Y,['space'],Y,,,,,,,F,21,
28,9,317,6,6,7,['k'],['k'],Y,N,None,Y,,,,,,,F,21,
28,10,318,5,5,7,['k'],['k'],Y,N,None,Y,,,,,,,F,21,
29,0,319,8,8,7,['d'],['d'],Y,N,None,Y,,,,,,,F,21,
29,1,320,9,9,7,['k'],['k'],Y,N,None,Y,,,,,,,F,21,
29,2,321,0,0,7,['k'],['k'],Y,N,None,Y,,,,,,,F,21,
29,3,322,3,3,7,['k'],['k'],Y,Y,None,N,,,,,,,F,21,
29,4,323,10,10,7,['k'],['k'],Y,N,None,Y,,,,,,,F,21,
29,5,324,4,4,7,['k'],['k'],Y,Y,['space'],Y,,,,,,,F,21,
29,6,325,8,8,7,['k'],['k'],Y,N,None,Y,,,,,,,F,21,
29,7,326,9,9,7,['k'],['d'],N,N,None,Y,,,,,,,F,21,
29,8,327,1,1,7,['d'],['d'],Y,Y,['space'],Y,,,,,,,F,21,
29,9,328,3,3,7,['d'],['d'],Y,Y,None,N,,,,,,,F,21,
29,10,329,4,4,7,['d'],['d'],Y,Y,None,N,,,,,,,F,21,
30,0,330,8,8,7,['k'],['k'],Y,Y,['space'],Y,,,,,,,F,21,
30,1,331,2,2,7,['k'],['k'],Y,Y,None,N,,,,,,,F,21,
30,2,332,10,10,7,['k'],['k'],Y,Y,['space'],Y,,,,,,,F,21,
30,3,333,1,1,7,['d'],['d'],Y,N,None,Y,,,,,,,F,21,
30,4,334,7,7,7,['d'],['d'],Y,N,None,Y,,,,,,,F,21,
30,5,335,2,2,7,['k'],['k'],Y,Y,['space'],Y,,,,,,,F,21,
30,6,336,7,7,7,['k'],['k'],Y,N,None,Y,,,,,,,F,21,
30,7,337,1,1,7,['k'],['k'],Y,N,None,Y,,,,,,,F,21,
30,8,338,3,3,7,['d'],['d'],Y,N,None,Y,,,,,,,F,21,
30,9,339,7,7,7,['d'],['d'],Y,Y,['space'],Y,,,,,,,F,21,
30,10,340,9,9,7,['k'],['k'],Y,N,None,Y,,,,,,,F,21,
31,0,341,1,1,7,['d'],['d'],Y,Y,['space'],Y,,,,,,,F,21,
31,1,342,0,0,7,['k'],['k'],Y,Y,['space'],Y,,,,,,,F,21,
31,2,343,2,2,7,['d'],['d'],Y,N,None,Y,,,,,,,F,21,
31,3,344,1,1,7,['d'],['d'],Y,Y,['space'],Y,,,,,,,F,21,
31,4,345,8,8,7,['k'],['k'],Y,N,['space'],N,,,,,,,F,21,
31,5,346,8,8,7,['d'],['d'],Y,N,None,Y,,,,,,,F,21,
31,6,347,10,10,7,['k'],['k'],Y,Y,['space'],Y,,,,,,,F,21,
31,7,348,0,0,7,['d'],['d'],Y,N,None,Y,,,,,,,F,21,
31,8,349,7,7,7,['k'],['k'],Y,N,None,Y,48,39,24,,,,F,21,
31,9,350,7,7,8,['d'],['k'],N,,,,,,,,,,F,21,
31,10,351,6,6,8,['d'],['k'],N,,,,,,,,,,F,21,
32,0,352,10,10,8,['d'],['k'],N,N,None,Y,,,,,,,F,21,
32,1,353,8,8,8,['k'],['k'],Y,N,None,Y,,,,,,,F,21,
32,2,354,7,7,8,['d'],['d'],Y,N,None,Y,,,,,,,F,21,
32,3,355,3,3,8,['d'],['d'],Y,Y,['space'],Y,,,,,,,F,21,
32,4,356,3,3,8,['k'],['k'],Y,Y,['space'],Y,,,,,,,F,21,
32,5,357,6,6,8,['k'],['k'],Y,N,None,Y,,,,,,,F,21,
32,6,358,8,8,8,['k'],['d'],N,Y,None,N,,,,,,,F,21,
32,7,359,9,9,8,['k'],['k'],Y,N,None,Y,,,,,,,F,21,
32,8,360,3,3,8,['d'],['d'],Y,N,None,Y,,,,,,,F,21,
32,9,361,5,5,8,['d'],['d'],Y,Y,['space'],Y,,,,,,,F,21,
32,10,362,8,8,8,['k'],['d'],N,N,None,Y,,,,,,,F,21,
33,0,363,2,2,8,['d'],['k'],N,N,None,Y,,,,,,,F,21,
33,1,364,6,6,8,['k'],['k'],Y,Y,None,N,,,,,,,F,21,
33,2,365,6,6,8,['k'],['k'],Y,Y,None,N,,,,,,,F,21,
33,3,366,0,0,8,['d'],['d'],Y,N,None,Y,,,,,,,F,21,
33,4,367,6,6,8,['k'],['k'],Y,Y,['space'],Y,,,,,,,F,21,
33,5,368,9,9,8,['k'],['k'],Y,N,None,Y,,,,,,,F,21,
33,6,369,2,2,8,['d'],['d'],Y,Y,['space'],Y,,,,,,,F,21,
33,7,370,4,4,8,['d'],['d'],Y,N,None,Y,,,,,,,F,21,
33,8,371,1,1,8,['d'],['d'],Y,Y,['space'],Y,,,,,,,F,21,
33,9,372,2,2,8,['k'],['k'],Y,Y,['space'],Y,,,,,,,F,21,
33,10,373,8,8,8,['d'],['d'],Y,Y,['space'],Y,,,,,,,F,21,
34,0,374,2,2,8,['k'],['k'],Y,N,None,Y,,,,,,,F,21,
34,1,375,6,6,8,['d'],['d'],Y,Y,['space'],Y,,,,,,,F,21,
34,2,376,1,1,8,['d'],['d'],Y,N,None,Y,,,,,,,F,21,
34,3,377,8,8,8,['d'],['d'],Y,N,None,Y,,,,,,,F,21,
34,4,378,10,10,8,['d'],['d'],Y,N,['space'],N,,,,,,,F,21,
34,5,379,3,3,8,['d'],['d'],Y,N,None,Y,,,,,,,F,21,
34,6,380,9,9,8,['d'],['k'],N,Y,['space'],Y,,,,,,,F,21,
34,7,381,3,3,8,['k'],['k'],Y,Y,None,N,,,,,,,F,21,
34,8,382,7,7,8,['d'],['d'],Y,Y,['space'],Y,,,,,,,F,21,
34,9,383,5,5,8,['k'],['k'],Y,Y,['space'],Y,,,,,,,F,21,
34,10,384,10,10,8,['d'],['d'],Y,Y,['space'],Y,,,,,,,F,21,
35,0,385,2,2,8,['k'],['k'],Y,Y,['space'],Y,,,,,,,F,21,
35,1,386,4,4,8,['d'],['d'],Y,Y,None,N,,,,,,,F,21,
35,2,387,6,6,8,['k'],['k'],Y,N,None,Y,,,,,,,F,21,
35,3,388,0,0,8,['k'],['k'],Y,Y,['space'],Y,,,,,,,F,21,
35,4,389,10,10,8,['k'],['k'],Y,Y,['space'],Y,,,,,,,F,21,
35,5,390,0,0,8,['d'],['d'],Y,Y,None,N,,,,,,,F,21,
35,6,391,5,5,8,['k'],['k'],Y,Y,['space'],Y,,,,,,,F,21,
35,7,392,3,3,8,['d'],['d'],Y,Y,['space'],Y,,,,,,,F,21,
35,8,393,8,8,8,['d'],['k'],N,N,None,Y,,,,,,,F,21,
35,9,394,5,5,8,['k'],['k'],Y,N,['d'],N,,,,,,,F,21,
35,10,395,0,0,8,['d'],['d'],Y,N,None,Y,,,,,,,F,21,
36,0,396,8,8,8,['d'],['d'],Y,N,None,Y,,,,,,,F,21,
36,1,397,9,9,8,['d'],['d'],Y,Y,['space'],Y,,,,,,,F,21,
36,2,398,5,5,8,['d'],['k'],N,N,None,Y,,,,,,,F,21,
36,3,399,6,6,8,['d'],['d'],Y,N,None,Y,41,40,25,,,,F,21,
36,4,400,8,8,9,['d'],['d'],Y,,,,,,,,,,F,21,
36,5,401,1,1,9,['d'],['d'],Y,,,,,,,,,,F,21,
36,6,402,3,3,9,['k'],['k'],Y,Y,['space'],Y,,,,,,,F,21,
36,7,403,8,8,9,['k'],['k'],Y,N,None,Y,,,,,,,F,21,
36,8,404,6,6,9,['k'],['k'],Y,N,None,Y,,,,,,,F,21,
36,9,405,7,7,9,['k'],['d'],N,Y,['space'],Y,,,,,,,F,21,
36,10,406,5,5,9,['d'],['d'],Y,N,None,Y,,,,,,,F,21,
37,0,407,4,4,9,['d'],['d'],Y,Y,['space'],Y,,,,,,,F,21,
37,1,408,10,10,9,['k'],['k'],Y,N,None,Y,,,,,,,F,21,
37,2,409,9,9,9,['d'],['d'],Y,N,None,Y,,,,,,,F,21,
37,3,410,3,3,9,['k'],['k'],Y,N,None,Y,,,,,,,F,21,
37,4,411,8,8,9,['d'],['k'],N,Y,['space'],Y,,,,,,,F,21,
37,5,412,7,7,9,['k'],['k'],Y,Y,['space'],Y,,,,,,,F,21,
37,6,413,8,8,9,['k'],['k'],Y,N,None,Y,,,,,,,F,21,
37,7,414,4,4,9,['d'],['k'],N,Y,None,N,,,,,,,F,21,
37,8,415,9,9,9,['d'],['d'],Y,Y,None,N,,,,,,,F,21,
37,9,416,0,0,9,['k'],['k'],Y,Y,None,N,,,,,,,F,21,
37,10,417,9,9,9,['d'],['d'],Y,Y,['space'],Y,,,,,,,F,21,
38,0,418,2,2,9,['k'],['k'],Y,N,None,Y,,,,,,,F,21,
38,1,419,6,6,9,['d'],['k'],N,Y,['space'],Y,,,,,,,F,21,
38,2,420,9,9,9,['k'],['k'],Y,N,None,Y,,,,,,,F,21,
38,3,421,3,3,9,['k'],['k'],Y,N,None,Y,,,,,,,F,21,
38,4,422,1,1,9,['k'],['d'],N,Y,['space'],Y,,,,,,,F,21,
38,5,423,10,10,9,['k'],['k'],Y,N,None,Y,,,,,,,F,21,
38,6,424,0,0,9,['d'],['d'],Y,N,None,Y,,,,,,,F,21,
38,7,425,3,3,9,['d'],['d'],Y,Y,['space'],Y,,,,,,,F,21,
38,8,426,3,3,9,['d'],['k'],N,N,None,Y,,,,,,,F,21,
38,9,427,2,2,9,['k'],['k'],Y,Y,['space'],Y,,,,,,,F,21,
38,10,428,5,5,9,['k'],['d'],N,N,None,Y,,,,,,,F,21,
39,0,429,3,3,9,['d'],['d'],Y,Y,None,N,,,,,,,F,21,
39,1,430,10,10,9,['k'],['k'],Y,N,None,Y,,,,,,,F,21,
39,2,431,6,6,9,['k'],['d'],N,N,None,Y,,,,,,,F,21,
39,3,432,10,10,9,['d'],['k'],N,N,None,Y,,,,,,,F,21,
39,4,433,2,2,9,['k'],['d'],N,Y,['space'],Y,,,,,,,F,21,
39,5,434,1,1,9,['d'],['k'],N,Y,['space'],Y,,,,,,,F,21,
39,6,435,0,0,9,['d'],['d'],Y,N,None,Y,,,,,,,F,21,
39,7,436,1,1,9,['k'],['k'],Y,Y,None,N,,,,,,,F,21,
39,8,437,0,0,9,['d'],['d'],Y,N,None,Y,,,,,,,F,21,
39,9,438,9,9,9,['k'],['k'],Y,Y,['space'],Y,,,,,,,F,21,
39,10,439,4,4,9,['d'],['d'],Y,N,None,Y,,,,,,,F,21,
40,0,440,4,4,9,['k'],['d'],N,N,None,Y,,,,,,,F,21,
40,1,441,8,8,9,['k'],['d'],N,Y,['space'],Y,,,,,,,F,21,
40,2,442,2,2,9,['k'],['d'],N,Y,None,N,,,,,,,F,21,
40,3,443,3,3,9,['k'],['d'],N,Y,None,N,,,,,,,F,21,
40,4,444,0,0,9,['k'],['k'],Y,N,None,Y,,,,,,,F,21,
40,5,445,8,8,9,['k'],['d'],N,N,None,Y,,,,,,,F,21,
40,6,446,2,2,9,['k'],['k'],Y,N,None,Y,,,,,,,F,21,
40,7,447,4,4,9,['k'],['k'],Y,Y,['space'],Y,,,,,,,F,21,
40,8,448,3,3,9,['k'],['k'],Y,Y,['space'],Y,,,,,,,F,21,
40,9,449,10,10,9,['d'],['d'],Y,Y,['space'],Y,34,41,24,,,,F,21,
40,10,450,8,8,10,['d'],['d'],Y,,,,,,,,,,F,21,
41,0,451,3,3,10,['d'],['d'],Y,,,,,,,,,,F,21,
41,1,452,3,3,10,['k'],['k'],Y,N,None,Y,,,,,,,F,21,
41,2,453,6,6,10,['k'],['k'],Y,N,None,Y,,,,,,,F,21,
41,3,454,5,5,10,['k'],['k'],Y,Y,['space'],Y,,,,,,,F,21,
41,4,455,3,3,10,['k'],['k'],Y,Y,['space'],Y,,,,,,,F,21,
41,5,456,5,5,10,['k'],['k'],Y,Y,['space'],Y,,,,,,,F,21,
41,6,457,2,2,10,['d'],['d'],Y,Y,['space'],Y,,,,,,,F,21,
41,7,458,7,7,10,['k'],['k'],Y,Y,None,N,,,,,,,F,21,
41,8,459,0,0,10,['d'],['d'],Y,N,None,Y,,,,,,,F,21,
41,9,460,6,6,10,['d'],['d'],Y,Y,['space'],Y,,,,,,,F,21,
41,10,461,8,8,10,['d'],['d'],Y,Y,['space'],Y,,,,,,,F,21,
42,0,462,3,3,10,['d'],['d'],Y,Y,['space'],Y,,,,,,,F,21,
42,1,463,1,1,10,['k'],['k'],Y,N,None,Y,,,,,,,F,21,
42,2,464,6,6,10,['d'],['d'],Y,Y,None,N,,,,,,,F,21,
42,3,465,3,3,10,['d'],['d'],Y,N,None,Y,,,,,,,F,21,
42,4,466,1,1,10,['d'],['d'],Y,N,None,Y,,,,,,,F,21,
42,5,467,8,8,10,['k'],['d'],N,Y,['space'],Y,,,,,,,F,21,
42,6,468,0,0,10,['d'],['d'],Y,N,None,Y,,,,,,,F,21,
42,7,469,5,5,10,['d'],['k'],N,N,None,Y,,,,,,,F,21,
42,8,470,0,0,10,['d'],['d'],Y,Y,None,N,,,,,,,F,21,
42,9,471,6,6,10,['d'],['k'],N,Y,None,N,,,,,,,F,21,
42,10,472,2,2,10,['d'],['d'],Y,N,None,Y,,,,,,,F,21,
43,0,473,7,7,10,['k'],['k'],Y,N,None,Y,,,,,,,F,21,
43,1,474,6,6,10,['k'],['k'],Y,Y,['space'],Y,,,,,,,F,21,
43,2,475,4,4,10,['k'],['k'],Y,Y,['space'],Y,,,,,,,F,21,
43,3,476,2,2,10,['k'],['k'],Y,Y,['space'],Y,,,,,,,F,21,
43,4,477,10,10,10,['k'],['k'],Y,N,None,Y,,,,,,,F,21,
43,5,478,7,7,10,['d'],['d'],Y,Y,None,N,,,,,,,F,21,
43,6,479,3,3,10,['k'],['k'],Y,N,None,Y,,,,,,,F,21,
43,7,480,6,6,10,['d'],['d'],Y,Y,None,N,,,,,,,F,21,
43,8,481,2,2,10,['d'],['d'],Y,Y,None,N,,,,,,,F,21,
43,9,482,8,8,10,['d'],['d'],Y,Y,['space'],Y,,,,,,,F,21,
43,10,483,7,7,10,['k'],['d'],N,N,None,Y,,,,,,,F,21,
44,0,484,6,6,10,['k'],['k'],Y,N,None,Y,,,,,,,F,21,
44,1,485,6,6,10,['d'],['k'],N,N,['space'],N,,,,,,,F,21,
44,2,486,1,1,10,['k'],['d'],N,N,None,Y,,,,,,,F,21,
44,3,487,10,10,10,['d'],['k'],N,N,['space'],N,,,,,,,F,21,
44,4,488,4,4,10,['k'],['d'],N,N,None,Y,,,,,,,F,21,
44,5,489,1,1,10,['k'],['k'],Y,Y,['space'],Y,,,,,,,F,21,
44,6,490,9,9,10,['d'],['d'],Y,Y,['space'],Y,,,,,,,F,21,
44,7,491,10,10,10,['k'],['k'],Y,N,None,Y,,,,,,,F,21,
44,8,492,6,6,10,['k'],['k'],Y,Y,['space'],Y,,,,,,,F,21,
44,9,493,5,5,10,['d'],['d'],Y,N,None,Y,,,,,,,F,21,
44,10,494,3,3,10,['d'],['d'],Y,Y,None,N,,,,,,,F,21,
45,0,495,5,5,10,['k'],['k'],Y,N,['space'],N,,,,,,,F,21,
45,1,496,1,1,10,['k'],['k'],Y,N,None,Y,,,,,,,F,21,
45,2,497,7,7,10,['k'],['k'],Y,N,None,Y,,,,,,,F,21,
45,3,498,1,1,10,['k'],['d'],N,Y,None,N,,,,,,,F,21,
45,4,499,8,8,10,['k'],['d'],N,N,None,Y,40,36,24,,,,F,21,
45,5,500,3,3,11,['d'],['k'],Y,,,,,,,Y,Y,Y,F,21,
45,6,501,10,10,11,['k'],['d'],Y,,,,,,,,Y,Y,F,21,
45,7,502,2,2,11,['k'],['d'],Y,Y,['space'],Y,,,,,Y,Y,F,21,
45,8,503,9,9,11,['d'],['k'],Y,Y,['space'],Y,,,,,Y,Y,F,21,
45,9,504,10,10,11,['d'],['k'],Y,Y,['space'],Y,,,,,Y,Y,F,21,
45,10,505,3,3,11,['k'],['d'],Y,Y,['space'],Y,,,,,Y,Y,F,21,
46,0,506,7,7,11,['k'],['d'],Y,N,None,Y,,,,,Y,Y,F,21,
46,1,507,5,5,11,['d'],['k'],Y,N,None,Y,,,,,Y,Y,F,21,
46,2,508,9,9,11,['k'],['k'],N,N,None,Y,,,,,Y,Y,F,21,
46,3,509,7,7,11,['d'],['k'],Y,N,None,Y,,,,,Y,Y,F,21,
46,4,510,2,2,11,['k'],['d'],Y,Y,['space'],Y,,,,,Y,Y,F,21,
46,5,511,3,3,11,['d'],['k'],Y,N,None,Y,,,,,Y,Y,F,21,
46,6,512,1,1,11,None,,Timed out,Y,['space'],Y,,,,,Y,Y,F,21,
46,7,513,4,4,11,['d'],['d'],N,N,None,Y,,,,,Y,Y,F,21,
46,8,514,6,6,11,['d'],['d'],N,Y,None,N,,,,,Y,Y,F,21,
46,9,515,0,0,11,['k'],['d'],Y,N,None,Y,,,,,Y,Y,F,21,
46,10,516,1,1,11,['d'],['k'],Y,N,None,Y,,,,,Y,Y,F,21,
47,0,517,3,3,11,['d'],['k'],Y,Y,['space'],Y,,,,,Y,Y,F,21,
47,1,518,1,1,11,['d'],['k'],Y,Y,['space'],Y,,,,,Y,Y,F,21,
47,2,519,3,3,11,['d'],['k'],Y,N,None,Y,,,,,Y,Y,F,21,
47,3,520,3,3,11,['d'],['k'],Y,Y,['space'],Y,,,,,Y,Y,F,21,
47,4,521,5,5,11,['k'],['d'],Y,N,None,Y,,,,,Y,Y,F,21,
47,5,522,10,10,11,['d'],['k'],Y,Y,None,N,,,,,Y,Y,F,21,
47,6,523,2,2,11,['d'],['k'],Y,Y,None,N,,,,,Y,Y,F,21,
47,7,524,7,7,11,['d'],['k'],Y,N,None,Y,,,,,Y,Y,F,21,
47,8,525,1,1,11,['k'],['d'],Y,N,None,Y,,,,,Y,Y,F,21,
47,9,526,7,7,11,['d'],['k'],Y,N,None,Y,,,,,Y,Y,F,21,
47,10,527,10,10,11,['k'],['k'],N,N,None,Y,,,,,Y,Y,F,21,
48,0,528,5,5,11,['k'],['d'],Y,N,None,Y,,,,,Y,Y,F,21,
48,1,529,2,2,11,['k'],['k'],N,N,None,Y,,,,,Y,Y,F,21,
48,2,530,7,7,11,['k'],['k'],N,N,None,Y,,,,,Y,Y,F,21,
48,3,531,4,4,11,['k'],['k'],N,N,None,Y,,,,,Y,Y,F,21,
48,4,532,2,2,11,None,,Timed out,Y,None,N,,,,,Y,Y,F,21,
48,5,533,4,4,11,['d'],['k'],Y,Y,None,N,,,,,Y,Y,F,21,
48,6,534,2,2,11,['k'],['k'],N,N,None,Y,,,,,Y,Y,F,21,
48,7,535,5,5,11,['k'],['d'],Y,Y,['space'],Y,,,,,Y,Y,F,21,
48,8,536,8,8,11,['d'],['k'],Y,Y,['space'],Y,,,,,Y,Y,F,21,
48,9,537,8,8,11,['k'],['d'],Y,Y,['space'],Y,,,,,Y,Y,F,21,
48,10,538,1,1,11,['d'],['k'],Y,Y,['space'],Y,,,,,Y,Y,F,21,
49,0,539,2,2,11,['d'],['k'],Y,Y,['space'],Y,,,,,Y,Y,F,21,
49,1,540,7,7,11,['k'],['d'],Y,Y,['space'],Y,,,,,Y,Y,F,21,
49,2,541,10,10,11,['d'],['d'],N,N,None,Y,,,,,Y,Y,F,21,
49,3,542,5,5,11,None,,Timed out,Y,None,N,,,,,Y,Y,F,21,
49,4,543,1,1,11,['k'],['d'],Y,Y,['k'],N,,,,,Y,Y,F,21,
49,5,544,8,8,11,['d'],['d'],N,N,None,Y,,,,,Y,Y,F,21,
49,6,545,5,5,11,['k'],['d'],Y,N,None,Y,,,,,Y,Y,F,21,
49,7,546,8,8,11,None,,Timed out,N,None,Y,,,,,Y,Y,F,21,
49,8,547,7,7,11,['k'],['d'],Y,Y,['space'],Y,,,,,Y,Y,F,21,
49,9,548,8,8,11,['k'],['d'],Y,N,['space'],N,,,,,Y,Y,F,21,
49,10,549,8,8,11,['d'],['k'],Y,N,None,Y,36,40,23,,Y,Y,F,21,
50,0,550,10,10,12,['d'],['k'],Y,,,,,,,,Y,Y,F,21,
50,1,551,5,5,12,['d'],['k'],Y,,,,,,,,Y,Y,F,21,
50,2,552,6,6,12,['d'],['k'],Y,Y,['space'],Y,,,,,Y,Y,F,21,
50,3,553,10,10,12,['d'],['k'],Y,Y,['space'],Y,,,,,Y,Y,F,21,
50,4,554,4,4,12,None,,Timed out,Y,['space'],Y,,,,,Y,Y,F,21,
50,5,555,8,8,12,['k'],['d'],Y,Y,['space'],Y,,,,,Y,Y,F,21,
50,6,556,0,0,12,['k'],['k'],N,N,None,Y,,,,,Y,Y,F,21,
50,7,557,1,1,12,['d'],['d'],N,N,None,Y,,,,,Y,Y,F,21,
50,8,558,9,9,12,['k'],['d'],Y,Y,['space'],Y,,,,,Y,Y,F,21,
50,9,559,0,0,12,['k'],['d'],Y,Y,['space'],Y,,,,,Y,Y,F,21,
50,10,560,8,8,12,['d'],['d'],N,Y,['space'],Y,,,,,Y,Y,F,21,
51,0,561,10,10,12,['d'],['k'],Y,N,None,Y,,,,,Y,Y,F,21,
51,1,562,6,6,12,['d'],['k'],Y,N,None,Y,,,,,Y,Y,F,21,
51,2,563,7,7,12,None,,Timed out,N,None,Y,,,,,Y,Y,F,21,
51,3,564,5,5,12,['k'],['d'],Y,N,None,Y,,,,,Y,Y,F,21,
51,4,565,6,6,12,['k'],['k'],N,Y,['space'],Y,,,,,Y,Y,F,21,
51,5,566,9,9,12,['d'],['k'],Y,N,None,Y,,,,,Y,Y,F,21,
51,6,567,6,6,12,['k'],['d'],Y,Y,None,N,,,,,Y,Y,F,21,
51,7,568,1,1,12,['k'],['d'],Y,N,None,Y,,,,,Y,Y,F,21,
51,8,569,8,8,12,['k'],['d'],Y,Y,['space'],Y,,,,,Y,Y,F,21,
51,9,570,5,5,12,['k'],['d'],Y,Y,['space'],Y,,,,,Y,Y,F,21,
51,10,571,9,9,12,['d'],['k'],Y,Y,['space'],Y,,,,,Y,Y,F,21,
52,0,572,6,6,12,['d'],['d'],N,N,None,Y,,,,,Y,Y,F,21,
52,1,573,6,6,12,['d'],['k'],Y,Y,['space'],Y,,,,,Y,Y,F,21,
52,2,574,10,10,12,['d'],['k'],Y,N,None,Y,,,,,Y,Y,F,21,
52,3,575,2,2,12,['d'],['k'],Y,N,None,Y,,,,,Y,Y,F,21,
52,4,576,0,0,12,['k'],['k'],N,N,None,Y,,,,,Y,Y,F,21,
52,5,577,5,5,12,['d'],['k'],Y,Y,['space'],Y,,,,,Y,Y,F,21,
52,6,578,1,1,12,['k'],['d'],Y,Y,None,N,,,,,Y,Y,F,21,
52,7,579,3,3,12,['k'],['d'],Y,N,None,Y,,,,,Y,Y,F,21,
52,8,580,3,3,12,['k'],['d'],Y,N,None,Y,,,,,Y,Y,F,21,
52,9,581,9,9,12,['d'],['d'],N,Y,['space'],Y,,,,,Y,Y,F,21,
52,10,582,3,3,12,['k'],['d'],Y,Y,['space'],Y,,,,,Y,Y,F,21,
53,0,583,5,5,12,['d'],['k'],Y,Y,['space'],Y,,,,,Y,Y,F,21,
53,1,584,7,7,12,['k'],['k'],N,N,None,Y,,,,,Y,Y,F,21,
53,2,585,1,1,12,['k'],['k'],N,N,None,Y,,,,,Y,Y,F,21,
53,3,586,0,0,12,['k'],['k'],N,Y,None,N,,,,,Y,Y,F,21,
53,4,587,7,7,12,['k'],['d'],Y,Y,['space'],Y,,,,,Y,Y,F,21,
53,5,588,6,6,12,['d'],['k'],Y,N,None,Y,,,,,Y,Y,F,21,
53,6,589,1,1,12,['d'],['k'],Y,Y,['space'],Y,,,,,Y,Y,F,21,
53,7,590,9,9,12,['k'],['d'],Y,N,None,Y,,,,,Y,Y,F,21,
53,8,591,10,10,12,['d'],['d'],N,Y,None,N,,,,,Y,Y,F,21,
53,9,592,7,7,12,['k'],['d'],Y,Y,None,N,,,,,Y,Y,F,21,
53,10,593,2,2,12,['k'],['d'],Y,N,None,Y,,,,,Y,Y,F,21,
54,0,594,5,5,12,['k'],['d'],Y,N,None,Y,,,,,Y,Y,F,21,
54,1,595,0,0,12,['k'],['d'],Y,N,None,Y,,,,,Y,Y,F,21,
54,2,596,4,4,12,['d'],['k'],Y,Y,['space'],Y,,,,,Y,Y,F,21,
54,3,597,4,4,12,['k'],['d'],Y,N,None,Y,,,,,Y,Y,F,21,
54,4,598,10,10,12,['k'],['d'],Y,N,None,Y,,,,,Y,Y,F,21,
54,5,599,10,10,12,['d'],['d'],N,Y,None,N,36,42,25,,Y,Y,F,21,
