.thisRepN,.thisTrialN,.thisN,.thisIndex,.thisTrial,Block Number,Key pressed,Category,Correct?,Int Match?,Int Response,Int Correct?,Line Accuracy,Interference Accuracy,Matching Interferences,New instruction shown?,Buttons switched?,Fast?,gender,age,
0,0,0,5,5,1,['k'],['k'],Y,,,,,,,,,,F,20,
0,1,1,12,12,1,['d'],['d'],Y,,,,,,,,,,F,20,
0,2,2,13,13,1,['k'],['k'],Y,Y,['space'],Y,,,,,,,F,20,
0,3,3,0,0,1,['d'],['d'],Y,Y,None,N,,,,,,,F,20,
0,4,4,0,0,1,['k'],['k'],Y,N,None,Y,,,,,,,F,20,
0,5,5,14,14,1,['d'],['d'],Y,Y,['space'],Y,,,,,,,F,20,
0,6,6,13,13,1,['d'],['d'],Y,Y,None,N,,,,,,,F,20,
0,7,7,6,6,1,['d'],['d'],Y,Y,['space'],Y,,,,,,,F,20,
0,8,8,6,6,1,['k'],['k'],Y,N,None,Y,,,,,,,F,20,
0,9,9,9,9,1,['k'],['k'],Y,N,None,Y,,,,,,,F,20,
0,10,10,13,13,1,['d'],['d'],Y,N,None,Y,,,,,,,F,20,
0,11,11,9,9,1,['k'],['k'],Y,Y,None,N,,,,,,,F,20,
0,12,12,11,11,1,['k'],['d'],N,N,None,Y,,,,,,,F,20,
0,13,13,5,5,1,['k'],['k'],Y,N,['space'],N,,,,,,,F,20,
0,14,14,5,5,1,['d'],['d'],Y,N,['space'],N,,,,,,,F,20,
1,0,15,13,13,1,['d'],['d'],Y,N,None,Y,,,,,,,F,20,
1,1,16,2,2,1,['k'],['k'],Y,Y,None,N,,,,,,,F,20,
1,2,17,14,14,1,['d'],['d'],Y,N,None,Y,,,,,,,F,20,
1,3,18,12,12,1,['k'],['k'],Y,N,None,Y,,,,,,,F,20,
1,4,19,8,8,1,['d'],['d'],Y,N,None,Y,,,,,,,F,20,
1,5,20,7,7,1,['d'],['d'],Y,N,['space'],N,,,,,,,F,20,
1,6,21,7,7,1,['k'],['k'],Y,Y,None,N,,,,,,,F,20,
1,7,22,6,6,1,['k'],['k'],Y,N,None,Y,,,,,,,F,20,
1,8,23,13,13,1,['k'],['k'],Y,Y,None,N,,,,,,,F,20,
1,9,24,2,2,1,['k'],['k'],Y,Y,['space'],Y,,,,,,,F,20,
1,10,25,11,11,1,['k'],['k'],Y,N,None,Y,,,,,,,F,20,
1,11,26,11,11,1,['d'],['d'],Y,N,None,Y,,,,,,,F,20,
1,12,27,7,7,1,['d'],['d'],Y,Y,None,N,,,,,,,F,20,
1,13,28,6,6,1,['d'],['d'],Y,N,None,Y,,,,,,,F,20,
1,14,29,12,12,1,['k'],['k'],Y,N,None,Y,,,,,,,F,20,
2,0,30,14,14,1,['k'],['k'],Y,Y,['space'],Y,,,,,,,F,20,
2,1,31,6,6,1,['d'],['d'],Y,N,None,Y,,,,,,,F,20,
2,2,32,2,2,1,['k'],['k'],Y,N,None,Y,,,,,,,F,20,
2,3,33,5,5,1,['d'],['d'],Y,Y,None,N,,,,,,,F,20,
2,4,34,12,12,1,['d'],['k'],N,Y,['space'],Y,,,,,,,F,20,
2,5,35,8,8,1,['d'],['d'],Y,Y,None,N,,,,,,,F,20,
2,6,36,11,11,1,['k'],['k'],Y,N,None,Y,,,,,,,F,20,
2,7,37,4,4,1,['d'],['k'],N,N,None,Y,,,,,,,F,20,
2,8,38,0,0,1,['d'],['d'],Y,Y,None,N,,,,,,,F,20,
2,9,39,10,10,1,['d'],['d'],Y,N,None,Y,,,,,,,F,20,
2,10,40,13,13,1,['k'],['k'],Y,Y,None,N,,,,,,,F,20,
2,11,41,13,13,1,['d'],['d'],Y,Y,None,N,,,,,,,F,20,
2,12,42,5,5,1,['d'],['d'],Y,N,None,Y,,,,,,,F,20,
2,13,43,8,8,1,['k'],['d'],N,Y,None,N,,,,,,,F,20,
2,14,44,10,10,1,['k'],['k'],Y,Y,None,N,,,,,,,F,20,
3,0,45,2,2,1,['k'],['k'],Y,N,None,Y,,,,,,,F,20,
3,1,46,3,3,1,['d'],['d'],Y,N,None,Y,,,,,,,F,20,
3,2,47,0,0,1,['k'],['k'],Y,N,None,Y,,,,,,,F,20,
3,3,48,12,12,1,['k'],['k'],Y,N,['space'],N,,,,,,,F,20,
3,4,49,10,10,1,['k'],['k'],Y,Y,None,N,46,29,21,,,,F,20,
3,5,50,10,10,2,['k'],['k'],Y,,,,,,,,,,F,20,
3,6,51,5,5,2,['d'],['d'],Y,,,,,,,,,,F,20,
3,7,52,14,14,2,['k'],['k'],Y,Y,None,N,,,,,,,F,20,
3,8,53,8,8,2,['d'],['d'],Y,Y,['space'],Y,,,,,,,F,20,
3,9,54,2,2,2,['d'],['d'],Y,N,None,Y,,,,,,,F,20,
3,10,55,10,10,2,['k'],['k'],Y,Y,['space'],Y,,,,,,,F,20,
3,11,56,14,14,2,['k'],['k'],Y,N,None,Y,,,,,,,F,20,
3,12,57,14,14,2,['d'],['k'],N,N,None,Y,,,,,,,F,20,
3,13,58,9,9,2,['d'],['d'],Y,Y,None,N,,,,,,,F,20,
3,14,59,0,0,2,['d'],['k'],N,N,None,Y,,,,,,,F,20,
4,0,60,7,7,2,['k'],['k'],Y,N,None,Y,,,,,,,F,20,
4,1,61,1,1,2,['k'],['k'],Y,Y,None,N,,,,,,,F,20,
4,2,62,7,7,2,['k'],['k'],Y,Y,['space'],Y,,,,,,,F,20,
4,3,63,0,0,2,['d'],['d'],Y,N,None,Y,,,,,,,F,20,
4,4,64,9,9,2,['k'],['d'],N,N,None,Y,,,,,,,F,20,
4,5,65,4,4,2,['d'],['d'],Y,Y,['space'],Y,,,,,,,F,20,
4,6,66,4,4,2,['k'],['d'],N,Y,['space'],Y,,,,,,,F,20,
4,7,67,11,11,2,['k'],['k'],Y,Y,None,N,,,,,,,F,20,
4,8,68,1,1,2,['d'],['d'],Y,Y,None,N,,,,,,,F,20,
4,9,69,11,11,2,['d'],['d'],Y,N,None,Y,,,,,,,F,20,
4,10,70,2,2,2,['k'],['k'],Y,Y,None,N,,,,,,,F,20,
4,11,71,4,4,2,['d'],['d'],Y,N,None,Y,,,,,,,F,20,
4,12,72,13,13,2,['k'],['k'],Y,Y,None,N,,,,,,,F,20,
4,13,73,13,13,2,['k'],['k'],Y,N,None,Y,,,,,,,F,20,
4,14,74,9,9,2,['k'],['k'],Y,Y,['space'],Y,,,,,,,F,20,
5,0,75,13,13,2,['d'],['d'],Y,N,None,Y,,,,,,,F,20,
5,1,76,8,8,2,['d'],['d'],Y,Y,['space'],Y,,,,,,,F,20,
5,2,77,6,6,2,['k'],['k'],Y,N,None,Y,,,,,,,F,20,
5,3,78,3,3,2,['d'],['d'],Y,N,None,Y,,,,,,,F,20,
5,4,79,9,9,2,['k'],['d'],N,N,None,Y,,,,,,,F,20,
5,5,80,9,9,2,['d'],['k'],N,Y,None,N,,,,,,,F,20,
5,6,81,1,1,2,['d'],['d'],Y,N,None,Y,,,,,,,F,20,
5,7,82,1,1,2,['k'],['d'],N,Y,None,N,,,,,,,F,20,
5,8,83,10,10,2,['k'],['k'],Y,Y,None,N,,,,,,,F,20,
5,9,84,9,9,2,['d'],['d'],Y,N,None,Y,,,,,,,F,20,
5,10,85,5,5,2,['k'],['k'],Y,Y,['space'],Y,,,,,,,F,20,
5,11,86,11,11,2,['d'],['d'],Y,Y,['space'],Y,,,,,,,F,20,
5,12,87,12,12,2,['k'],['k'],Y,Y,['space'],Y,,,,,,,F,20,
5,13,88,4,4,2,['k'],['k'],Y,N,None,Y,,,,,,,F,20,
5,14,89,9,9,2,['k'],['k'],Y,N,None,Y,,,,,,,F,20,
6,0,90,8,8,2,['d'],['d'],Y,N,None,Y,,,,,,,F,20,
6,1,91,10,10,2,['k'],['d'],N,N,None,Y,,,,,,,F,20,
6,2,92,4,4,2,['d'],['d'],Y,Y,None,N,,,,,,,F,20,
6,3,93,0,0,2,['k'],['k'],Y,Y,None,N,,,,,,,F,20,
6,4,94,2,2,2,['k'],['k'],Y,N,None,Y,,,,,,,F,20,
6,5,95,2,2,2,['k'],['k'],Y,N,None,Y,,,,,,,F,20,
6,6,96,5,5,2,['d'],['d'],Y,Y,['space'],Y,,,,,,,F,20,
6,7,97,1,1,2,['k'],['d'],N,N,None,Y,,,,,,,F,20,
6,8,98,14,14,2,['k'],['k'],Y,N,None,Y,,,,,,,F,20,
6,9,99,0,0,2,['k'],['d'],N,Y,None,N,40,35,24,,,,F,20,
6,10,100,6,6,3,['d'],['d'],Y,,,,,,,,,,F,20,
6,11,101,12,12,3,['d'],['k'],N,,,,,,,,,,F,20,
6,12,102,3,3,3,['d'],['d'],Y,Y,None,N,,,,,,,F,20,
6,13,103,6,6,3,['d'],['k'],N,N,['k'],N,,,,,,,F,20,
6,14,104,10,10,3,['k'],['k'],Y,Y,['space'],Y,,,,,,,F,20,
7,0,105,6,6,3,['d'],['k'],N,Y,['k'],N,,,,,,,F,20,
7,1,106,0,0,3,['d'],['d'],Y,Y,None,N,,,,,,,F,20,
7,2,107,10,10,3,['k'],['k'],Y,N,None,Y,,,,,,,F,20,
7,3,108,10,10,3,['d'],['d'],Y,N,['space'],N,,,,,,,F,20,
7,4,109,8,8,3,['k'],['d'],N,N,None,Y,,,,,,,F,20,
7,5,110,9,9,3,['k'],['k'],Y,Y,['space'],Y,,,,,,,F,20,
7,6,111,8,8,3,['d'],['d'],Y,Y,['space'],Y,,,,,,,F,20,
7,7,112,0,0,3,['k'],['d'],N,Y,['space'],Y,,,,,,,F,20,
7,8,113,5,5,3,['d'],['d'],Y,Y,['space'],Y,,,,,,,F,20,
7,9,114,13,13,3,['k'],['d'],N,N,None,Y,,,,,,,F,20,
7,10,115,3,3,3,['k'],['d'],N,Y,['space'],Y,,,,,,,F,20,
7,11,116,6,6,3,['k'],['d'],N,Y,None,N,,,,,,,F,20,
7,12,117,6,6,3,['k'],['k'],Y,Y,['space'],Y,,,,,,,F,20,
7,13,118,0,0,3,['d'],['d'],Y,N,None,Y,,,,,,,F,20,
7,14,119,1,1,3,['d'],['d'],Y,N,['space'],N,,,,,,,F,20,
8,0,120,11,11,3,['k'],['k'],Y,N,None,Y,,,,,,,F,20,
8,1,121,4,4,3,['k'],['k'],Y,N,None,Y,,,,,,,F,20,
8,2,122,5,5,3,['d'],['d'],Y,N,None,Y,,,,,,,F,20,
8,3,123,5,5,3,['k'],['k'],Y,N,['space'],N,,,,,,,F,20,
8,4,124,12,12,3,['d'],['d'],Y,N,['space'],N,,,,,,,F,20,
8,5,125,8,8,3,['d'],['d'],Y,N,['space'],N,,,,,,,F,20,
8,6,126,11,11,3,['d'],['d'],Y,N,['space'],N,,,,,,,F,20,
8,7,127,6,6,3,['k'],['k'],Y,N,None,Y,,,,,,,F,20,
8,8,128,13,13,3,['d'],['k'],N,N,None,Y,,,,,,,F,20,
8,9,129,3,3,3,['k'],['k'],Y,N,None,Y,,,,,,,F,20,
8,10,130,5,5,3,['d'],['d'],Y,N,['space'],N,,,,,,,F,20,
8,11,131,7,7,3,['d'],['d'],Y,N,None,Y,,,,,,,F,20,
8,12,132,6,6,3,['k'],['k'],Y,N,None,Y,,,,,,,F,20,
8,13,133,4,4,3,['k'],['k'],Y,N,None,Y,,,,,,,F,20,
8,14,134,9,9,3,['d'],['d'],Y,N,None,Y,,,,,,,F,20,
9,0,135,3,3,3,['k'],['k'],Y,N,None,Y,,,,,,,F,20,
9,1,136,12,12,3,['d'],['d'],Y,Y,['space'],Y,,,,,,,F,20,
9,2,137,12,12,3,['d'],['d'],Y,Y,None,N,,,,,,,F,20,
9,3,138,6,6,3,['k'],['k'],Y,Y,['k'],N,,,,,,,F,20,
9,4,139,4,4,3,['d'],['d'],Y,N,['space'],N,,,,,,,F,20,
9,5,140,3,3,3,['k'],['k'],Y,N,None,Y,,,,,,,F,20,
9,6,141,3,3,3,['k'],['k'],Y,Y,None,N,,,,,,,F,20,
9,7,142,8,8,3,['k'],['k'],Y,Y,['space'],Y,,,,,,,F,20,
9,8,143,8,8,3,['d'],['d'],Y,Y,['space'],Y,,,,,,,F,20,
9,9,144,14,14,3,['k'],['k'],Y,N,None,Y,,,,,,,F,20,
9,10,145,3,3,3,['d'],['d'],Y,N,None,Y,,,,,,,F,20,
9,11,146,2,2,3,['k'],['k'],Y,N,None,Y,,,,,,,F,20,
9,12,147,12,12,3,['k'],['d'],N,Y,None,N,,,,,,,F,20,
9,13,148,4,4,3,['k'],['k'],Y,N,['space'],N,,,,,,,F,20,
9,14,149,4,4,3,['d'],['d'],Y,N,['space'],N,40,29,18,,,,F,20,
10,0,150,7,7,4,['k'],['k'],Y,,,,,,,,,,F,20,
10,1,151,4,4,4,['k'],['k'],Y,,,,,,,,,,F,20,
10,2,152,9,9,4,['d'],['d'],Y,N,None,Y,,,,,,,F,20,
10,3,153,5,5,4,['k'],['k'],Y,N,None,Y,,,,,,,F,20,
10,4,154,12,12,4,['d'],['d'],Y,Y,['space'],Y,,,,,,,F,20,
10,5,155,8,8,4,['k'],['k'],Y,N,None,Y,,,,,,,F,20,
10,6,156,9,9,4,['d'],['d'],Y,N,['k'],N,,,,,,,F,20,
10,7,157,7,7,4,['d'],['d'],Y,Y,['space'],Y,,,,,,,F,20,
10,8,158,11,11,4,['d'],['k'],N,N,None,Y,,,,,,,F,20,
10,9,159,3,3,4,['k'],['k'],Y,N,None,Y,,,,,,,F,20,
10,10,160,10,10,4,['d'],['d'],Y,Y,['space'],Y,,,,,,,F,20,
10,11,161,12,12,4,['k'],['d'],N,Y,['space'],Y,,,,,,,F,20,
10,12,162,5,5,4,['d'],['d'],Y,N,None,Y,,,,,,,F,20,
10,13,163,5,5,4,['k'],['k'],Y,N,['space'],N,,,,,,,F,20,
10,14,164,8,8,4,['d'],['d'],Y,Y,['k'],N,,,,,,,F,20,
11,0,165,10,10,4,['k'],['k'],Y,Y,None,N,,,,,,,F,20,
11,1,166,13,13,4,['k'],['k'],Y,N,['space'],N,,,,,,,F,20,
11,2,167,2,2,4,['k'],['k'],Y,N,None,Y,,,,,,,F,20,
11,3,168,2,2,4,['d'],['d'],Y,Y,['space'],Y,,,,,,,F,20,
11,4,169,2,2,4,None,,Timed out,N,None,Y,,,,,,,F,20,
11,5,170,7,7,4,['k'],['k'],Y,N,None,Y,,,,,,,F,20,
11,6,171,4,4,4,['d'],['d'],Y,N,['space'],N,,,,,,,F,20,
11,7,172,10,10,4,['k'],['k'],Y,N,['space'],N,,,,,,,F,20,
11,8,173,6,6,4,['k'],['k'],Y,Y,['space'],Y,,,,,,,F,20,
11,9,174,11,11,4,['k'],['d'],N,Y,None,N,,,,,,,F,20,
11,10,175,9,9,4,['d'],['d'],Y,Y,['space'],Y,,,,,,,F,20,
11,11,176,14,14,4,['d'],['d'],Y,N,['d'],N,,,,,,,F,20,
11,12,177,12,12,4,['d'],['d'],Y,N,None,Y,,,,,,,F,20,
11,13,178,13,13,4,['k'],['k'],Y,N,['space'],N,,,,,,,F,20,
11,14,179,11,11,4,['k'],['k'],Y,Y,None,N,,,,,,,F,20,
12,0,180,1,1,4,['k'],['k'],Y,Y,['space'],Y,,,,,,,F,20,
12,1,181,9,9,4,['k'],['k'],Y,N,None,Y,,,,,,,F,20,
12,2,182,3,3,4,['d'],['d'],Y,N,None,Y,,,,,,,F,20,
12,3,183,1,1,4,['d'],['d'],Y,N,None,Y,,,,,,,F,20,
12,4,184,6,6,4,['d'],['d'],Y,Y,None,N,,,,,,,F,20,
12,5,185,1,1,4,['d'],['d'],Y,N,['space'],N,,,,,,,F,20,
12,6,186,3,3,4,['d'],['d'],Y,Y,None,N,,,,,,,F,20,
12,7,187,14,14,4,['d'],['d'],Y,Y,['space'],Y,,,,,,,F,20,
12,8,188,8,8,4,['d'],['k'],N,Y,None,N,,,,,,,F,20,
12,9,189,4,4,4,['d'],['d'],Y,Y,['space'],Y,,,,,,,F,20,
12,10,190,1,1,4,['d'],['d'],Y,Y,['space'],Y,,,,,,,F,20,
12,11,191,4,4,4,['k'],['d'],N,Y,['space'],Y,,,,,,,F,20,
12,12,192,5,5,4,['k'],['k'],Y,Y,['space'],Y,,,,,,,F,20,
12,13,193,7,7,4,['d'],['d'],Y,Y,None,N,,,,,,,F,20,
12,14,194,0,0,4,['k'],['k'],Y,N,None,Y,,,,,,,F,20,
13,0,195,1,1,4,['k'],['k'],Y,Y,['space'],Y,,,,,,,F,20,
13,1,196,9,9,4,['d'],['d'],Y,Y,['space'],Y,,,,,,,F,20,
13,2,197,7,7,4,['k'],['d'],N,N,None,Y,,,,,,,F,20,
13,3,198,0,0,4,['k'],['k'],Y,Y,['space'],Y,,,,,,,F,20,
13,4,199,10,10,4,['d'],['d'],Y,N,['space'],N,43,31,24,,,,F,20,
13,5,200,9,9,5,['d'],['d'],Y,,,,,,,,,,F,20,
13,6,201,14,14,5,['d'],['d'],Y,,,,,,,,,,F,20,
13,7,202,5,5,5,['d'],['d'],Y,N,None,Y,,,,,,,F,20,
13,8,203,1,1,5,['d'],['d'],Y,Y,['space'],Y,,,,,,,F,20,
13,9,204,7,7,5,['d'],['d'],Y,Y,['space'],Y,,,,,,,F,20,
13,10,205,0,0,5,['d'],['d'],Y,Y,['space'],Y,,,,,,,F,20,
13,11,206,4,4,5,['d'],['d'],Y,N,None,Y,,,,,,,F,20,
13,12,207,0,0,5,['d'],['d'],Y,N,None,Y,,,,,,,F,20,
13,13,208,1,1,5,['k'],['k'],Y,N,None,Y,,,,,,,F,20,
13,14,209,7,7,5,['d'],['d'],Y,Y,['space'],Y,,,,,,,F,20,
14,0,210,11,11,5,['k'],['k'],Y,N,None,Y,,,,,,,F,20,
14,1,211,10,10,5,['k'],['d'],N,Y,['space'],Y,,,,,,,F,20,
14,2,212,0,0,5,['d'],['k'],N,Y,None,N,,,,,,,F,20,
14,3,213,8,8,5,['k'],['k'],Y,Y,['space'],Y,,,,,,,F,20,
14,4,214,9,9,5,['k'],['k'],Y,Y,['space'],Y,,,,,,,F,20,
14,5,215,2,2,5,['k'],['k'],Y,N,None,Y,,,,,,,F,20,
14,6,216,14,14,5,['k'],['k'],Y,Y,['k'],N,,,,,,,F,20,
14,7,217,4,4,5,['d'],['d'],Y,Y,None,N,,,,,,,F,20,
14,8,218,11,11,5,['k'],['k'],Y,Y,['space'],Y,,,,,,,F,20,
14,9,219,13,13,5,['k'],['k'],Y,Y,None,N,,,,,,,F,20,
14,10,220,7,7,5,['k'],['k'],Y,Y,['space'],Y,,,,,,,F,20,
14,11,221,4,4,5,['k'],['k'],Y,N,None,Y,,,,,,,F,20,
14,12,222,10,10,5,['k'],['k'],Y,N,None,Y,,,,,,,F,20,
14,13,223,2,2,5,['k'],['k'],Y,N,['space'],N,,,,,,,F,20,
14,14,224,0,0,5,['k'],['d'],N,Y,['space'],Y,,,,,,,F,20,
15,0,225,0,0,5,['k'],['d'],N,Y,None,N,,,,,,,F,20,
15,1,226,2,2,5,['k'],['k'],Y,N,['space'],N,,,,,,,F,20,
15,2,227,3,3,5,['d'],['d'],Y,N,None,Y,,,,,,,F,20,
15,3,228,10,10,5,['k'],['k'],Y,N,['space'],N,,,,,,,F,20,
15,4,229,8,8,5,['d'],['d'],Y,N,['space'],N,,,,,,,F,20,
15,5,230,7,7,5,['k'],['d'],N,N,None,Y,,,,,,,F,20,
15,6,231,12,12,5,['k'],['k'],Y,N,None,Y,,,,,,,F,20,
15,7,232,13,13,5,['d'],['d'],Y,N,None,Y,,,,,,,F,20,
15,8,233,10,10,5,['k'],['k'],Y,Y,['space'],Y,,,,,,,F,20,
15,9,234,1,1,5,['k'],['k'],Y,Y,['space'],Y,,,,,,,F,20,
15,10,235,13,13,5,['k'],['k'],Y,Y,['space'],Y,,,,,,,F,20,
15,11,236,8,8,5,['d'],['d'],Y,Y,['space'],Y,,,,,,,F,20,
15,12,237,4,4,5,['d'],['d'],Y,N,['space'],N,,,,,,,F,20,
15,13,238,13,13,5,['k'],['k'],Y,Y,['space'],Y,,,,,,,F,20,
15,14,239,5,5,5,['k'],['k'],Y,N,None,Y,,,,,,,F,20,
16,0,240,2,2,5,['k'],['d'],N,Y,['space'],Y,,,,,,,F,20,
16,1,241,9,9,5,['d'],['d'],Y,N,['space'],N,,,,,,,F,20,
16,2,242,11,11,5,['k'],['k'],Y,N,None,Y,,,,,,,F,20,
16,3,243,7,7,5,['d'],['d'],Y,N,None,Y,,,,,,,F,20,
16,4,244,6,6,5,['k'],['d'],N,N,None,Y,,,,,,,F,20,
16,5,245,5,5,5,['d'],['d'],Y,Y,None,N,,,,,,,F,20,
16,6,246,1,1,5,['d'],['d'],Y,N,None,Y,,,,,,,F,20,
16,7,247,12,12,5,['d'],['k'],N,Y,['space'],Y,,,,,,,F,20,
16,8,248,10,10,5,['k'],['k'],Y,Y,['space'],Y,,,,,,,F,20,
16,9,249,6,6,5,['d'],['d'],Y,Y,['space'],Y,42,36,25,,,,F,20,
16,10,250,3,3,6,['d'],['d'],Y,,,,,,,,,,F,20,
16,11,251,13,13,6,['d'],['k'],N,,,,,,,,,,F,20,
16,12,252,8,8,6,['d'],['k'],N,Y,None,N,,,,,,,F,20,
16,13,253,1,1,6,['k'],['d'],N,N,None,Y,,,,,,,F,20,
16,14,254,9,9,6,['d'],['d'],Y,Y,['space'],Y,,,,,,,F,20,
17,0,255,9,9,6,['k'],['k'],Y,N,['space'],N,,,,,,,F,20,
17,1,256,14,14,6,['d'],['d'],Y,N,['space'],N,,,,,,,F,20,
17,2,257,5,5,6,['k'],['d'],N,Y,None,N,,,,,,,F,20,
17,3,258,8,8,6,['k'],['d'],N,Y,['space'],Y,,,,,,,F,20,
17,4,259,7,7,6,['d'],['k'],N,N,['space'],N,,,,,,,F,20,
17,5,260,14,14,6,['d'],['d'],Y,N,['space'],N,,,,,,,F,20,
17,6,261,12,12,6,['k'],['d'],N,Y,['space'],Y,,,,,,,F,20,
17,7,262,8,8,6,['k'],['d'],N,Y,['space'],Y,,,,,,,F,20,
17,8,263,14,14,6,['d'],['d'],Y,Y,['space'],Y,,,,,,,F,20,
17,9,264,9,9,6,['d'],['d'],Y,Y,['space'],Y,,,,,,,F,20,
17,10,265,8,8,6,['k'],['k'],Y,Y,['d'],N,,,,,,,F,20,
17,11,266,7,7,6,['d'],['d'],Y,N,['d'],N,,,,,,,F,20,
17,12,267,12,12,6,['k'],['k'],Y,N,['space'],N,,,,,,,F,20,
17,13,268,5,5,6,['k'],['k'],Y,N,['space'],N,,,,,,,F,20,
17,14,269,3,3,6,['k'],['d'],N,N,['space'],N,,,,,,,F,20,
18,0,270,5,5,6,['k'],['k'],Y,N,None,Y,,,,,,,F,20,
18,1,271,14,14,6,['d'],['d'],Y,N,None,Y,,,,,,,F,20,
18,2,272,2,2,6,['k'],['k'],Y,N,None,Y,,,,,,,F,20,
18,3,273,0,0,6,['d'],['k'],N,Y,['space'],Y,,,,,,,F,20,
18,4,274,6,6,6,['k'],['k'],Y,Y,['space'],Y,,,,,,,F,20,
18,5,275,9,9,6,['k'],['k'],Y,Y,None,N,,,,,,,F,20,
18,6,276,12,12,6,['k'],['k'],Y,N,None,Y,,,,,,,F,20,
18,7,277,3,3,6,['d'],['d'],Y,N,['space'],N,,,,,,,F,20,
18,8,278,4,4,6,['d'],['d'],Y,Y,['space'],Y,,,,,,,F,20,
18,9,279,7,7,6,['d'],['k'],N,Y,None,N,,,,,,,F,20,
18,10,280,12,12,6,['d'],['d'],Y,Y,['space'],Y,,,,,,,F,20,
18,11,281,5,5,6,['d'],['d'],Y,N,['space'],N,,,,,,,F,20,
18,12,282,12,12,6,['k'],['k'],Y,Y,None,N,,,,,,,F,20,
18,13,283,14,14,6,['d'],['d'],Y,N,None,Y,,,,,,,F,20,
18,14,284,12,12,6,['k'],['k'],Y,N,None,Y,,,,,,,F,20,
19,0,285,3,3,6,['d'],['k'],N,N,None,Y,,,,,,,F,20,
19,1,286,14,14,6,['k'],['k'],Y,Y,['space'],Y,,,,,,,F,20,
19,2,287,6,6,6,['k'],['k'],Y,Y,['space'],Y,,,,,,,F,20,
19,3,288,8,8,6,['k'],['k'],Y,Y,['space'],Y,,,,,,,F,20,
19,4,289,1,1,6,['k'],['d'],N,Y,None,N,,,,,,,F,20,
19,5,290,11,11,6,['k'],['k'],Y,N,['space'],N,,,,,,,F,20,
19,6,291,3,3,6,['d'],['k'],N,Y,['space'],Y,,,,,,,F,20,
19,7,292,9,9,6,['d'],['d'],Y,N,None,Y,,,,,,,F,20,
19,8,293,8,8,6,['d'],['d'],Y,Y,None,N,,,,,,,F,20,
19,9,294,13,13,6,['k'],['d'],N,N,['space'],N,,,,,,,F,20,
19,10,295,3,3,6,['d'],['d'],Y,N,None,Y,,,,,,,F,20,
19,11,296,1,1,6,['k'],['k'],Y,Y,['space'],Y,,,,,,,F,20,
19,12,297,7,7,6,['k'],['k'],Y,N,['space'],N,,,,,,,F,20,
19,13,298,6,6,6,['d'],['d'],Y,N,None,Y,,,,,,,F,20,
19,14,299,8,8,6,['d'],['d'],Y,N,None,Y,35,27,23,,,,F,20,
20,0,300,7,7,7,['d'],['d'],Y,,,,,,,,,,F,20,
20,1,301,7,7,7,['d'],['d'],Y,,,,,,,,,,F,20,
20,2,302,5,5,7,['d'],['d'],Y,Y,None,N,,,,,,,F,20,
20,3,303,12,12,7,['k'],['d'],N,Y,['d'],N,,,,,,,F,20,
20,4,304,1,1,7,['d'],['k'],N,N,None,Y,,,,,,,F,20,
20,5,305,4,4,7,['d'],['d'],Y,N,['space'],N,,,,,,,F,20,
20,6,306,13,13,7,['d'],['d'],Y,N,['space'],N,,,,,,,F,20,
20,7,307,2,2,7,['k'],['k'],Y,Y,None,N,,,,,,,F,20,
20,8,308,9,9,7,['d'],['d'],Y,N,['space'],N,,,,,,,F,20,
20,9,309,6,6,7,['k'],['k'],Y,N,['space'],N,,,,,,,F,20,
20,10,310,9,9,7,['d'],['d'],Y,Y,['space'],Y,,,,,,,F,20,
20,11,311,6,6,7,['k'],['k'],Y,N,None,Y,,,,,,,F,20,
20,12,312,1,1,7,['k'],['k'],Y,Y,['k'],N,,,,,,,F,20,
20,13,313,1,1,7,['k'],['k'],Y,N,['space'],N,,,,,,,F,20,
20,14,314,1,1,7,['k'],['k'],Y,N,None,Y,,,,,,,F,20,
21,0,315,12,12,7,['k'],['k'],Y,Y,None,N,,,,,,,F,20,
21,1,316,14,14,7,['d'],['k'],N,Y,None,N,,,,,,,F,20,
21,2,317,10,10,7,['k'],['k'],Y,N,None,Y,,,,,,,F,20,
21,3,318,0,0,7,['k'],['k'],Y,Y,['space'],Y,,,,,,,F,20,
21,4,319,3,3,7,['k'],['k'],Y,Y,['space'],Y,,,,,,,F,20,
21,5,320,12,12,7,['d'],['d'],Y,Y,None,N,,,,,,,F,20,
21,6,321,4,4,7,['d'],['d'],Y,N,None,Y,,,,,,,F,20,
21,7,322,10,10,7,['k'],['k'],Y,Y,['space'],Y,,,,,,,F,20,
21,8,323,14,14,7,['k'],['k'],Y,N,['space'],N,,,,,,,F,20,
21,9,324,1,1,7,['d'],['k'],N,N,None,Y,,,,,,,F,20,
21,10,325,2,2,7,['k'],['k'],Y,Y,['space'],Y,,,,,,,F,20,
21,11,326,12,12,7,['d'],['k'],N,Y,None,N,,,,,,,F,20,
21,12,327,11,11,7,['k'],['d'],N,N,None,Y,,,,,,,F,20,
21,13,328,7,7,7,['d'],['d'],Y,N,None,Y,,,,,,,F,20,
21,14,329,14,14,7,['k'],['k'],Y,N,None,Y,,,,,,,F,20,
22,0,330,2,2,7,['d'],['d'],Y,N,['space'],N,,,,,,,F,20,
22,1,331,12,12,7,['d'],['d'],Y,Y,['space'],Y,,,,,,,F,20,
22,2,332,6,6,7,['d'],['d'],Y,N,None,Y,,,,,,,F,20,
22,3,333,13,13,7,['d'],['d'],Y,Y,None,N,,,,,,,F,20,
22,4,334,5,5,7,['d'],['d'],Y,N,['space'],N,,,,,,,F,20,
22,5,335,11,11,7,['k'],['k'],Y,N,['space'],N,,,,,,,F,20,
22,6,336,3,3,7,['d'],['d'],Y,Y,['space'],Y,,,,,,,F,20,
22,7,337,1,1,7,['k'],['d'],N,N,None,Y,,,,,,,F,20,
22,8,338,3,3,7,['k'],['k'],Y,Y,['space'],Y,,,,,,,F,20,
22,9,339,1,1,7,['d'],['k'],N,N,['space'],N,,,,,,,F,20,
22,10,340,9,9,7,['k'],['d'],N,Y,['space'],Y,,,,,,,F,20,
22,11,341,10,10,7,['k'],['k'],Y,Y,None,N,,,,,,,F,20,
22,12,342,4,4,7,['k'],['k'],Y,Y,['space'],Y,,,,,,,F,20,
22,13,343,5,5,7,['d'],['d'],Y,Y,['space'],Y,,,,,,,F,20,
22,14,344,4,4,7,['d'],['d'],Y,N,None,Y,,,,,,,F,20,
23,0,345,9,9,7,['d'],['k'],N,Y,['space'],Y,,,,,,,F,20,
23,1,346,9,9,7,['k'],['k'],Y,Y,['space'],Y,,,,,,,F,20,
23,2,347,9,9,7,['d'],['d'],Y,Y,['space'],Y,,,,,,,F,20,
23,3,348,13,13,7,['k'],['k'],Y,N,['space'],N,,,,,,,F,20,
23,4,349,7,7,7,['d'],['k'],N,Y,['space'],Y,39,27,25,,,,F,20,
23,5,350,2,2,8,['k'],['k'],Y,,,,,,,,,,F,20,
23,6,351,14,14,8,['k'],['k'],Y,,,,,,,,,,F,20,
23,7,352,2,2,8,['k'],['k'],Y,Y,['space'],Y,,,,,,,F,20,
23,8,353,13,13,8,['k'],['k'],Y,N,None,Y,,,,,,,F,20,
23,9,354,13,13,8,['k'],['k'],Y,Y,['space'],Y,,,,,,,F,20,
23,10,355,4,4,8,['d'],['d'],Y,Y,['space'],Y,,,,,,,F,20,
23,11,356,4,4,8,['d'],['d'],Y,Y,['space'],Y,,,,,,,F,20,
23,12,357,7,7,8,['d'],['d'],Y,Y,['space'],Y,,,,,,,F,20,
23,13,358,9,9,8,['k'],['k'],Y,N,None,Y,,,,,,,F,20,
23,14,359,3,3,8,['k'],['k'],Y,N,None,Y,,,,,,,F,20,
24,0,360,3,3,8,['k'],['d'],N,N,['space'],N,,,,,,,F,20,
24,1,361,6,6,8,['d'],['d'],Y,Y,['k'],N,,,,,,,F,20,
24,2,362,6,6,8,['d'],['d'],Y,Y,['k'],N,,,,,,,F,20,
24,3,363,12,12,8,['k'],['d'],N,N,None,Y,,,,,,,F,20,
24,4,364,11,11,8,['d'],['d'],Y,Y,['space'],Y,,,,,,,F,20,
24,5,365,3,3,8,['k'],['k'],Y,N,['space'],N,,,,,,,F,20,
24,6,366,14,14,8,['d'],['d'],Y,Y,['space'],Y,,,,,,,F,20,
24,7,367,2,2,8,['k'],['k'],Y,Y,['k'],N,,,,,,,F,20,
24,8,368,6,6,8,['k'],['k'],Y,Y,['k'],N,,,,,,,F,20,
24,9,369,13,13,8,['d'],['d'],Y,N,['space'],N,,,,,,,F,20,
24,10,370,4,4,8,['k'],['k'],Y,Y,['space'],Y,,,,,,,F,20,
24,11,371,11,11,8,['k'],['k'],Y,N,['space'],N,,,,,,,F,20,
24,12,372,3,3,8,['d'],['d'],Y,N,None,Y,,,,,,,F,20,
24,13,373,6,6,8,['d'],['k'],N,N,None,Y,,,,,,,F,20,
24,14,374,0,0,8,['d'],['d'],Y,Y,['space'],Y,,,,,,,F,20,
25,0,375,8,8,8,['d'],['k'],N,Y,['space'],Y,,,,,,,F,20,
25,1,376,8,8,8,['d'],['d'],Y,N,None,Y,,,,,,,F,20,
25,2,377,7,7,8,['d'],['d'],Y,N,['space'],N,,,,,,,F,20,
25,3,378,8,8,8,['k'],['d'],N,Y,None,N,,,,,,,F,20,
25,4,379,13,13,8,['k'],['k'],Y,N,['space'],N,,,,,,,F,20,
25,5,380,14,14,8,['d'],['d'],Y,N,None,Y,,,,,,,F,20,
25,6,381,8,8,8,['d'],['d'],Y,Y,['space'],Y,,,,,,,F,20,
25,7,382,12,12,8,['k'],['k'],Y,Y,['space'],Y,,,,,,,F,20,
25,8,383,13,13,8,['k'],['k'],Y,N,['d'],N,,,,,,,F,20,
25,9,384,12,12,8,['d'],['k'],N,N,None,Y,,,,,,,F,20,
25,10,385,10,10,8,['k'],['k'],Y,Y,['space'],Y,,,,,,,F,20,
25,11,386,2,2,8,['d'],['d'],Y,N,None,Y,,,,,,,F,20,
25,12,387,2,2,8,['d'],['d'],Y,N,None,Y,,,,,,,F,20,
25,13,388,13,13,8,['k'],['k'],Y,Y,['space'],Y,,,,,,,F,20,
25,14,389,12,12,8,['d'],['k'],N,N,None,Y,,,,,,,F,20,
26,0,390,0,0,8,['d'],['d'],Y,Y,['space'],Y,,,,,,,F,20,
26,1,391,8,8,8,['k'],['k'],Y,Y,['space'],Y,,,,,,,F,20,
26,2,392,2,2,8,['k'],['d'],N,N,None,Y,,,,,,,F,20,
26,3,393,0,0,8,['k'],['k'],Y,Y,None,N,,,,,,,F,20,
26,4,394,3,3,8,['k'],['k'],Y,Y,None,N,,,,,,,F,20,
26,5,395,7,7,8,['d'],['d'],Y,Y,None,N,,,,,,,F,20,
26,6,396,1,1,8,['k'],['k'],Y,Y,None,N,,,,,,,F,20,
26,7,397,13,13,8,['d'],['d'],Y,N,None,Y,,,,,,,F,20,
26,8,398,14,14,8,['k'],['k'],Y,N,None,Y,,,,,,,F,20,
26,9,399,7,7,8,['k'],['k'],Y,N,None,Y,42,32,25,,,,F,20,
26,10,400,3,3,9,['d'],['d'],Y,,,,,,,,,,F,20,
26,11,401,13,13,9,['k'],['k'],Y,,,,,,,,,,F,20,
26,12,402,11,11,9,['k'],['k'],Y,Y,['space'],Y,,,,,,,F,20,
26,13,403,13,13,9,['d'],['d'],Y,N,None,Y,,,,,,,F,20,
26,14,404,10,10,9,['k'],['k'],Y,N,['space'],N,,,,,,,F,20,
27,0,405,10,10,9,['k'],['k'],Y,N,None,Y,,,,,,,F,20,
27,1,406,12,12,9,['d'],['d'],Y,N,None,Y,,,,,,,F,20,
27,2,407,8,8,9,['k'],['k'],Y,N,None,Y,,,,,,,F,20,
27,3,408,6,6,9,['k'],['k'],Y,Y,None,N,,,,,,,F,20,
27,4,409,0,0,9,['k'],['d'],N,Y,['space'],Y,,,,,,,F,20,
27,5,410,5,5,9,['k'],['k'],Y,Y,None,N,,,,,,,F,20,
27,6,411,9,9,9,['k'],['k'],Y,N,['space'],N,,,,,,,F,20,
27,7,412,14,14,9,['k'],['k'],Y,N,None,Y,,,,,,,F,20,
27,8,413,0,0,9,['k'],['d'],N,Y,None,N,,,,,,,F,20,
27,9,414,10,10,9,['k'],['k'],Y,N,['space'],N,,,,,,,F,20,
27,10,415,10,10,9,['d'],['d'],Y,N,['space'],N,,,,,,,F,20,
27,11,416,4,4,9,['k'],['k'],Y,N,None,Y,,,,,,,F,20,
27,12,417,0,0,9,['k'],['k'],Y,Y,['space'],Y,,,,,,,F,20,
27,13,418,12,12,9,['k'],['k'],Y,N,None,Y,,,,,,,F,20,
27,14,419,5,5,9,['k'],['k'],Y,N,None,Y,,,,,,,F,20,
28,0,420,14,14,9,['d'],['d'],Y,N,None,Y,,,,,,,F,20,
28,1,421,7,7,9,['k'],['k'],Y,Y,None,N,,,,,,,F,20,
28,2,422,14,14,9,['d'],['d'],Y,Y,['space'],Y,,,,,,,F,20,
28,3,423,3,3,9,['d'],['d'],Y,Y,None,N,,,,,,,F,20,
28,4,424,9,9,9,['k'],['k'],Y,Y,None,N,,,,,,,F,20,
28,5,425,14,14,9,['d'],['d'],Y,N,['space'],N,,,,,,,F,20,
28,6,426,1,1,9,['k'],['k'],Y,Y,['space'],Y,,,,,,,F,20,
28,7,427,10,10,9,['d'],['d'],Y,N,['space'],N,,,,,,,F,20,
28,8,428,10,10,9,['d'],['d'],Y,N,['space'],N,,,,,,,F,20,
28,9,429,8,8,9,['d'],['d'],Y,N,None,Y,,,,,,,F,20,
28,10,430,1,1,9,['d'],['d'],Y,Y,['space'],Y,,,,,,,F,20,
28,11,431,9,9,9,['d'],['k'],N,N,['space'],N,,,,,,,F,20,
28,12,432,14,14,9,['k'],['d'],N,N,['space'],N,,,,,,,F,20,
28,13,433,0,0,9,['k'],['k'],Y,Y,None,N,,,,,,,F,20,
28,14,434,8,8,9,['k'],['k'],Y,Y,None,N,,,,,,,F,20,
29,0,435,0,0,9,['k'],['k'],Y,Y,['space'],Y,,,,,,,F,20,
29,1,436,6,6,9,None,,Timed out,Y,['space'],Y,,,,,,,F,20,
29,2,437,7,7,9,['k'],['k'],Y,Y,['space'],Y,,,,,,,F,20,
29,3,438,2,2,9,['d'],['d'],Y,Y,None,N,,,,,,,F,20,
29,4,439,2,2,9,['d'],['d'],Y,Y,['space'],Y,,,,,,,F,20,
29,5,440,3,3,9,['d'],['d'],Y,N,None,Y,,,,,,,F,20,
29,6,441,2,2,9,['k'],['k'],Y,N,None,Y,,,,,,,F,20,
29,7,442,12,12,9,['d'],['d'],Y,N,None,Y,,,,,,,F,20,
29,8,443,14,14,9,['k'],['k'],Y,N,None,Y,,,,,,,F,20,
29,9,444,0,0,9,['k'],['k'],Y,N,None,Y,,,,,,,F,20,
29,10,445,6,6,9,['k'],['d'],N,N,None,Y,,,,,,,F,20,
29,11,446,6,6,9,['k'],['k'],Y,N,None,Y,,,,,,,F,20,
29,12,447,4,4,9,['k'],['d'],N,Y,['space'],Y,,,,,,,F,20,
29,13,448,8,8,9,['k'],['d'],N,Y,['space'],Y,,,,,,,F,20,
29,14,449,3,3,9,['d'],['d'],Y,N,None,Y,42,30,21,,,,F,20,
30,0,450,4,4,10,['d'],['d'],Y,,,,,,,,,,F,20,
30,1,451,9,9,10,['k'],['d'],N,,,,,,,,,,F,20,
30,2,452,14,14,10,['k'],['d'],N,Y,None,N,,,,,,,F,20,
30,3,453,1,1,10,['d'],['k'],N,N,None,Y,,,,,,,F,20,
30,4,454,11,11,10,['d'],['d'],Y,N,None,Y,,,,,,,F,20,
30,5,455,3,3,10,['k'],['k'],Y,Y,['space'],Y,,,,,,,F,20,
30,6,456,7,7,10,['d'],['d'],Y,Y,None,N,,,,,,,F,20,
30,7,457,7,7,10,['k'],['k'],Y,N,['space'],N,,,,,,,F,20,
30,8,458,3,3,10,['k'],['k'],Y,N,None,Y,,,,,,,F,20,
30,9,459,5,5,10,['d'],['d'],Y,N,None,Y,,,,,,,F,20,
30,10,460,10,10,10,['k'],['k'],Y,N,['space'],N,,,,,,,F,20,
30,11,461,11,11,10,['k'],['k'],Y,N,None,Y,,,,,,,F,20,
30,12,462,7,7,10,['d'],['d'],Y,N,['space'],N,,,,,,,F,20,
30,13,463,0,0,10,['k'],['k'],Y,Y,None,N,,,,,,,F,20,
30,14,464,10,10,10,['d'],['d'],Y,Y,['space'],Y,,,,,,,F,20,
31,0,465,10,10,10,['d'],['d'],Y,N,None,Y,,,,,,,F,20,
31,1,466,4,4,10,['k'],['k'],Y,Y,['space'],Y,,,,,,,F,20,
31,2,467,12,12,10,['d'],['d'],Y,Y,None,N,,,,,,,F,20,
31,3,468,1,1,10,['d'],['d'],Y,Y,None,N,,,,,,,F,20,
31,4,469,0,0,10,['d'],['d'],Y,N,None,Y,,,,,,,F,20,
31,5,470,0,0,10,['k'],['d'],N,Y,['space'],Y,,,,,,,F,20,
31,6,471,12,12,10,['d'],['d'],Y,Y,['space'],Y,,,,,,,F,20,
31,7,472,7,7,10,['d'],['d'],Y,Y,['space'],Y,,,,,,,F,20,
31,8,473,5,5,10,['k'],['k'],Y,Y,['space'],Y,,,,,,,F,20,
31,9,474,5,5,10,['d'],['d'],Y,N,None,Y,,,,,,,F,20,
31,10,475,3,3,10,['d'],['d'],Y,N,None,Y,,,,,,,F,20,
31,11,476,1,1,10,['k'],['k'],Y,N,None,Y,,,,,,,F,20,
31,12,477,6,6,10,['d'],['d'],Y,N,['d'],N,,,,,,,F,20,
31,13,478,8,8,10,['k'],['k'],Y,N,['k'],N,,,,,,,F,20,
31,14,479,10,10,10,['d'],['d'],Y,N,None,Y,,,,,,,F,20,
32,0,480,1,1,10,['d'],['d'],Y,N,['space'],N,,,,,,,F,20,
32,1,481,8,8,10,['d'],['d'],Y,N,['d'],N,,,,,,,F,20,
32,2,482,14,14,10,['k'],['k'],Y,N,['space'],N,,,,,,,F,20,
32,3,483,8,8,10,['k'],['k'],Y,N,None,Y,,,,,,,F,20,
32,4,484,3,3,10,['k'],['d'],N,N,['space'],N,,,,,,,F,20,
32,5,485,9,9,10,['k'],['d'],N,Y,None,N,,,,,,,F,20,
32,6,486,2,2,10,['d'],['d'],Y,Y,None,N,,,,,,,F,20,
32,7,487,2,2,10,['k'],['d'],N,Y,None,N,,,,,,,F,20,
32,8,488,2,2,10,['k'],['k'],Y,Y,['space'],Y,,,,,,,F,20,
32,9,489,0,0,10,['k'],['d'],N,Y,['space'],Y,,,,,,,F,20,
32,10,490,0,0,10,['k'],['d'],N,N,['d'],N,,,,,,,F,20,
32,11,491,0,0,10,['k'],['d'],N,N,None,Y,,,,,,,F,20,
32,12,492,11,11,10,['d'],['d'],Y,N,None,Y,,,,,,,F,20,
32,13,493,10,10,10,['k'],['k'],Y,N,['space'],N,,,,,,,F,20,
32,14,494,11,11,10,['d'],['d'],Y,Y,['space'],Y,,,,,,,F,20,
33,0,495,7,7,10,['k'],['d'],N,Y,['space'],Y,,,,,,,F,20,
33,1,496,13,13,10,['k'],['k'],Y,N,['d'],N,,,,,,,F,20,
33,2,497,11,11,10,['d'],['d'],Y,Y,['space'],Y,,,,,,,F,20,
33,3,498,7,7,10,['k'],['k'],Y,Y,['space'],Y,,,,,,,F,20,
33,4,499,5,5,10,['d'],['d'],Y,Y,['space'],Y,39,28,22,,,,F,20,
33,5,500,11,11,11,['d'],['k'],Y,,,,,,,Y,Y,Y,F,20,
33,6,501,11,11,11,['d'],['k'],Y,,,,,,,,Y,Y,F,20,
33,7,502,10,10,11,['k'],['k'],N,Y,['space'],Y,,,,,Y,Y,F,20,
33,8,503,6,6,11,['k'],['d'],Y,Y,['space'],Y,,,,,Y,Y,F,20,
33,9,504,5,5,11,['k'],['d'],Y,N,None,Y,,,,,Y,Y,F,20,
33,10,505,5,5,11,['d'],['k'],Y,N,None,Y,,,,,Y,Y,F,20,
33,11,506,1,1,11,['d'],['k'],Y,Y,['space'],Y,,,,,Y,Y,F,20,
33,12,507,9,9,11,['d'],['k'],Y,Y,['space'],Y,,,,,Y,Y,F,20,
33,13,508,9,9,11,['d'],['k'],Y,Y,['space'],Y,,,,,Y,Y,F,20,
33,14,509,11,11,11,['d'],['k'],Y,N,None,Y,,,,,Y,Y,F,20,
34,0,510,2,2,11,['k'],['d'],Y,N,None,Y,,,,,Y,Y,F,20,
34,1,511,2,2,11,['k'],['d'],Y,N,None,Y,,,,,Y,Y,F,20,
34,2,512,1,1,11,['d'],['k'],Y,N,['d'],N,,,,,Y,Y,F,20,
34,3,513,4,4,11,None,,Timed out,N,['k'],N,,,,,Y,Y,F,20,
34,4,514,7,7,11,['k'],['d'],Y,Y,['d'],N,,,,,Y,Y,F,20,
34,5,515,11,11,11,['k'],['d'],Y,N,None,Y,,,,,Y,Y,F,20,
34,6,516,0,0,11,['k'],['k'],N,Y,None,N,,,,,Y,Y,F,20,
34,7,517,13,13,11,['k'],['d'],Y,Y,['space'],Y,,,,,Y,Y,F,20,
34,8,518,1,1,11,['d'],['d'],N,Y,['d'],N,,,,,Y,Y,F,20,
34,9,519,13,13,11,['k'],['d'],Y,Y,None,N,,,,,Y,Y,F,20,
34,10,520,4,4,11,['d'],['k'],Y,N,None,Y,,,,,Y,Y,F,20,
34,11,521,2,2,11,['d'],['k'],Y,N,None,Y,,,,,Y,Y,F,20,
34,12,522,8,8,11,['d'],['k'],Y,Y,None,N,,,,,Y,Y,F,20,
34,13,523,5,5,11,['k'],['k'],N,Y,['space'],Y,,,,,Y,Y,F,20,
34,14,524,1,1,11,['d'],['k'],Y,N,None,Y,,,,,Y,Y,F,20,
35,0,525,2,2,11,['d'],['k'],Y,N,None,Y,,,,,Y,Y,F,20,
35,1,526,11,11,11,['d'],['k'],Y,N,None,Y,,,,,Y,Y,F,20,
35,2,527,8,8,11,['d'],['k'],Y,N,None,Y,,,,,Y,Y,F,20,
35,3,528,12,12,11,['k'],['k'],N,N,None,Y,,,,,Y,Y,F,20,
35,4,529,11,11,11,['k'],['d'],Y,Y,None,N,,,,,Y,Y,F,20,
35,5,530,8,8,11,['d'],['k'],Y,N,None,Y,,,,,Y,Y,F,20,
35,6,531,13,13,11,['d'],['k'],Y,N,['space'],N,,,,,Y,Y,F,20,
35,7,532,4,4,11,['d'],['k'],Y,Y,['space'],Y,,,,,Y,Y,F,20,
35,8,533,14,14,11,None,,Timed out,N,['space'],N,,,,,Y,Y,F,20,
35,9,534,4,4,11,['k'],['d'],Y,Y,['space'],Y,,,,,Y,Y,F,20,
35,10,535,1,1,11,['k'],['d'],Y,N,['space'],N,,,,,Y,Y,F,20,
35,11,536,9,9,11,['k'],['d'],Y,Y,['space'],Y,,,,,Y,Y,F,20,
35,12,537,4,4,11,['d'],['k'],Y,N,None,Y,,,,,Y,Y,F,20,
35,13,538,2,2,11,['d'],['k'],Y,N,None,Y,,,,,Y,Y,F,20,
35,14,539,5,5,11,['d'],['k'],Y,N,None,Y,,,,,Y,Y,F,20,
36,0,540,4,4,11,['k'],['d'],Y,N,['space'],N,,,,,Y,Y,F,20,
36,1,541,3,3,11,['k'],['k'],N,Y,['space'],Y,,,,,Y,Y,F,20,
36,2,542,5,5,11,['d'],['k'],Y,N,['space'],N,,,,,Y,Y,F,20,
36,3,543,7,7,11,['d'],['k'],Y,Y,['space'],Y,,,,,Y,Y,F,20,
36,4,544,7,7,11,['k'],['d'],Y,Y,['space'],Y,,,,,Y,Y,F,20,
36,5,545,11,11,11,['d'],['k'],Y,Y,None,N,,,,,Y,Y,F,20,
36,6,546,11,11,11,['k'],['d'],Y,N,['space'],N,,,,,Y,Y,F,20,
36,7,547,10,10,11,['k'],['d'],Y,Y,['space'],Y,,,,,Y,Y,F,20,
36,8,548,2,2,11,['d'],['k'],Y,Y,None,N,,,,,Y,Y,F,20,
36,9,549,13,13,11,['k'],['k'],N,Y,['space'],Y,41,32,23,,Y,Y,F,20,
36,10,550,4,4,12,['k'],['d'],Y,,,,,,,,Y,Y,F,20,
36,11,551,11,11,12,['d'],['k'],Y,,,,,,,,Y,Y,F,20,
36,12,552,7,7,12,['k'],['d'],Y,N,None,Y,,,,,Y,Y,F,20,
36,13,553,14,14,12,['k'],['d'],Y,Y,['space'],Y,,,,,Y,Y,F,20,
36,14,554,8,8,12,['d'],['k'],Y,Y,['space'],Y,,,,,Y,Y,F,20,
37,0,555,3,3,12,None,,Timed out,Y,['space'],Y,,,,,Y,Y,F,20,
37,1,556,10,10,12,['k'],['d'],Y,N,['d'],N,,,,,Y,Y,F,20,
37,2,557,11,11,12,['k'],['k'],N,N,None,Y,,,,,Y,Y,F,20,
37,3,558,5,5,12,['d'],['d'],N,Y,['space'],Y,,,,,Y,Y,F,20,
37,4,559,4,4,12,['k'],['d'],Y,Y,None,N,,,,,Y,Y,F,20,
37,5,560,6,6,12,['d'],['k'],Y,N,None,Y,,,,,Y,Y,F,20,
37,6,561,6,6,12,['k'],['k'],N,Y,None,N,,,,,Y,Y,F,20,
37,7,562,10,10,12,['k'],['d'],Y,Y,['space'],Y,,,,,Y,Y,F,20,
37,8,563,11,11,12,['k'],['k'],N,N,None,Y,,,,,Y,Y,F,20,
37,9,564,0,0,12,['d'],['d'],N,Y,None,N,,,,,Y,Y,F,20,
37,10,565,10,10,12,['d'],['k'],Y,N,['space'],N,,,,,Y,Y,F,20,
37,11,566,9,9,12,['d'],['k'],Y,N,['space'],N,,,,,Y,Y,F,20,
37,12,567,1,1,12,['k'],['k'],N,Y,['space'],Y,,,,,Y,Y,F,20,
37,13,568,14,14,12,['k'],['d'],Y,N,['space'],N,,,,,Y,Y,F,20,
37,14,569,0,0,12,['k'],['d'],Y,N,None,Y,,,,,Y,Y,F,20,
38,0,570,10,10,12,['k'],['d'],Y,Y,['space'],Y,,,,,Y,Y,F,20,
38,1,571,6,6,12,['k'],['k'],N,Y,['space'],Y,,,,,Y,Y,F,20,
38,2,572,13,13,12,['d'],['d'],N,Y,None,N,,,,,Y,Y,F,20,
38,3,573,1,1,12,['k'],['d'],Y,N,['d'],N,,,,,Y,Y,F,20,
38,4,574,13,13,12,['d'],['k'],Y,Y,None,N,,,,,Y,Y,F,20,
38,5,575,14,14,12,['d'],['k'],Y,Y,None,N,,,,,Y,Y,F,20,
38,6,576,14,14,12,['d'],['k'],Y,Y,['space'],Y,,,,,Y,Y,F,20,
38,7,577,1,1,12,['d'],['k'],Y,N,None,Y,,,,,Y,Y,F,20,
38,8,578,13,13,12,['d'],['k'],Y,N,None,Y,,,,,Y,Y,F,20,
38,9,579,3,3,12,['d'],['k'],Y,Y,None,N,,,,,Y,Y,F,20,
38,10,580,3,3,12,['d'],['k'],Y,N,None,Y,,,,,Y,Y,F,20,
38,11,581,12,12,12,['d'],['k'],Y,Y,None,N,,,,,Y,Y,F,20,
38,12,582,3,3,12,['d'],['k'],Y,Y,['space'],Y,,,,,Y,Y,F,20,
38,13,583,12,12,12,['d'],['d'],N,N,['space'],N,,,,,Y,Y,F,20,
38,14,584,0,0,12,['k'],['d'],Y,N,['space'],N,,,,,Y,Y,F,20,
39,0,585,11,11,12,['k'],['k'],N,Y,None,N,,,,,Y,Y,F,20,
39,1,586,6,6,12,['k'],['d'],Y,Y,['space'],Y,,,,,Y,Y,F,20,
39,2,587,2,2,12,['d'],['d'],N,Y,None,N,,,,,Y,Y,F,20,
39,3,588,12,12,12,['d'],['k'],Y,N,['space'],N,,,,,Y,Y,F,20,
39,4,589,14,14,12,['k'],['d'],Y,N,['space'],N,,,,,Y,Y,F,20,
39,5,590,4,4,12,['d'],['k'],Y,Y,None,N,,,,,Y,Y,F,20,
39,6,591,5,5,12,['k'],['d'],Y,N,None,Y,,,,,Y,Y,F,20,
39,7,592,6,6,12,['k'],['k'],N,Y,['space'],Y,,,,,Y,Y,F,20,
39,8,593,2,2,12,['k'],['d'],Y,N,None,Y,,,,,Y,Y,F,20,
39,9,594,11,11,12,['d'],['k'],Y,N,None,Y,,,,,Y,Y,F,20,
39,10,595,0,0,12,['d'],['k'],Y,N,None,Y,,,,,Y,Y,F,20,
39,11,596,6,6,12,['k'],['d'],Y,N,None,Y,,,,,Y,Y,F,20,
39,12,597,11,11,12,['k'],['d'],Y,N,None,Y,,,,,Y,Y,F,20,
39,13,598,5,5,12,['d'],['k'],Y,N,None,Y,,,,,Y,Y,F,20,
39,14,599,14,14,12,['d'],['k'],Y,N,None,Y,37,28,23,,Y,Y,F,20,
