.thisRepN,.thisTrialN,.thisN,.thisIndex,Block Number,Key pressed,Correct?,Category,Match?,Interference correct?,Total correct in block,Button switch shown?,Actually switched?,Fast?,gender,age
0,0,0,114,1,None,Timed out,,,,,,,,M,20
0,1,1,405,1,['n'],Y,['k'],N,Y,,,,,M,20
0,2,2,58,1,['y'],Y,['d'],N,N,,,,,M,20
0,3,3,4,1,['n'],N,['d'],Y,N,,,,,M,20
0,4,4,294,1,['y'],Y,['d'],Y,Y,,,,,M,20
0,5,5,256,1,['n'],N,['d'],N,Y,,,,,M,20
0,6,6,29,1,['n'],Y,['d'],N,Y,,,,,M,20
0,7,7,529,1,['n'],N,['k'],N,Y,,,,,M,20
0,8,8,248,1,['y'],Y,['d'],Y,Y,,,,,M,20
0,9,9,450,1,['n'],Y,['k'],Y,N,,,,,M,20
0,10,10,182,1,['y'],Y,['d'],Y,Y,,,,,M,20
0,11,11,71,1,['y'],N,['d'],Y,Y,,,,,M,20
0,12,12,209,1,['n'],Y,['d'],N,Y,,,,,M,20
0,13,13,345,1,['n'],Y,['k'],N,Y,,,,,M,20
0,14,14,581,1,['n'],N,['k'],N,Y,,,,,M,20
0,15,15,221,1,['y'],Y,['d'],Y,Y,,,,,M,20
0,16,16,277,1,['n'],Y,['d'],N,Y,,,,,M,20
0,17,17,564,1,['n'],Y,['k'],N,Y,,,,,M,20
0,18,18,168,1,['y'],Y,['d'],Y,Y,,,,,M,20
0,19,19,98,1,['n'],N,['d'],N,Y,,,,,M,20
0,20,20,492,1,['n'],N,['k'],N,Y,,,,,M,20
0,21,21,78,1,['y'],Y,['d'],Y,Y,,,,,M,20
0,22,22,228,1,['n'],Y,['d'],N,Y,,,,,M,20
0,23,23,285,1,['y'],N,['d'],Y,Y,,,,,M,20
0,24,24,263,1,['n'],Y,['d'],N,Y,,,,,M,20
0,25,25,556,1,['y'],Y,['k'],Y,Y,,,,,M,20
0,26,26,404,1,['n'],N,['k'],N,Y,,,,,M,20
0,27,27,501,1,['n'],N,['k'],N,Y,,,,,M,20
0,28,28,20,1,['y'],Y,['d'],Y,Y,,,,,M,20
0,29,29,92,1,['y'],N,['d'],Y,Y,,,,,M,20
0,30,30,433,1,['n'],N,['k'],N,Y,,,,,M,20
0,31,31,136,1,['y'],Y,['d'],Y,Y,,,,,M,20
0,32,32,579,1,['y'],Y,['k'],Y,Y,,,,,M,20
0,33,33,441,1,['y'],Y,['k'],Y,Y,,,,,M,20
0,34,34,173,1,['n'],Y,['d'],N,Y,,,,,M,20
0,35,35,588,1,['n'],Y,['k'],N,Y,,,,,M,20
0,36,36,423,1,['y'],Y,['k'],Y,Y,,,,,M,20
0,37,37,396,1,['y'],N,['k'],Y,Y,,,,,M,20
0,38,38,178,1,['n'],N,['d'],Y,N,,,,,M,20
0,39,39,288,1,['y'],N,['d'],Y,Y,,,,,M,20
0,40,40,225,1,['y'],Y,['d'],Y,Y,,,,,M,20
0,41,41,252,1,['n'],Y,['d'],N,Y,,,,,M,20
0,42,42,407,1,['y'],Y,['k'],Y,Y,,,,,M,20
0,43,43,124,1,['n'],N,['d'],N,Y,,,,,M,20
0,44,44,289,1,['n'],Y,['d'],Y,N,,,,,M,20
0,45,45,461,1,['y'],N,['k'],N,N,,,,,M,20
0,46,46,290,1,['y'],Y,['d'],Y,Y,,,,,M,20
0,47,47,572,1,['y'],Y,['k'],N,N,,,,,M,20
0,48,48,316,1,['y'],Y,['k'],Y,Y,,,,,M,20
0,49,49,117,1,['y'],Y,['d'],Y,Y,32,,,,M,20
0,50,50,369,2,['y'],N,['k'],Y,Y,,,,,M,20
0,51,51,183,2,['n'],Y,['d'],N,Y,,,,,M,20
0,52,52,57,2,['n'],Y,['d'],N,Y,,,,,M,20
0,53,53,400,2,['y'],Y,['k'],Y,Y,,,,,M,20
0,54,54,359,2,['n'],Y,['k'],N,Y,,,,,M,20
0,55,55,573,2,['y'],N,['k'],Y,Y,,,,,M,20
0,56,56,496,2,['y'],Y,['k'],Y,Y,,,,,M,20
0,57,57,566,2,['n'],Y,['k'],Y,N,,,,,M,20
0,58,58,264,2,['n'],Y,['d'],Y,N,,,,,M,20
0,59,59,528,2,['n'],Y,['k'],N,Y,,,,,M,20
0,60,60,411,2,['y'],Y,['k'],Y,Y,,,,,M,20
0,61,61,530,2,['n'],N,['k'],N,Y,,,,,M,20
0,62,62,333,2,['y'],Y,['k'],Y,Y,,,,,M,20
0,63,63,291,2,['n'],Y,['d'],N,Y,,,,,M,20
0,64,64,188,2,['n'],Y,['d'],N,Y,,,,,M,20
0,65,65,550,2,['n'],Y,['k'],N,Y,,,,,M,20
0,66,66,153,2,['y'],Y,['d'],Y,Y,,,,,M,20
0,67,67,409,2,['n'],Y,['k'],N,Y,,,,,M,20
0,68,68,350,2,['y'],Y,['k'],Y,Y,,,,,M,20
0,69,69,531,2,['y'],Y,['k'],Y,Y,,,,,M,20
0,70,70,551,2,['y'],Y,['k'],N,N,,,,,M,20
0,71,71,226,2,['n'],Y,['d'],N,Y,,,,,M,20
0,72,72,424,2,['y'],Y,['k'],Y,Y,,,,,M,20
0,73,73,553,2,['n'],Y,['k'],N,Y,,,,,M,20
0,74,74,402,2,['n'],Y,['k'],N,Y,,,,,M,20
0,75,75,212,2,['n'],Y,['d'],N,Y,,,,,M,20
0,76,76,349,2,['y'],N,['k'],Y,Y,,,,,M,20
0,77,77,135,2,['n'],Y,['d'],Y,N,,,,,M,20
0,78,78,412,2,['n'],Y,['k'],N,Y,,,,,M,20
0,79,79,101,2,['y'],Y,['d'],Y,Y,,,,,M,20
0,80,80,237,2,['y'],Y,['d'],Y,Y,,,,,M,20
0,81,81,457,2,['y'],Y,['k'],Y,Y,,,,,M,20
0,82,82,576,2,['y'],Y,['k'],Y,Y,,,,,M,20
0,83,83,372,2,['y'],Y,['k'],Y,Y,,,,,M,20
0,84,84,547,2,['n'],Y,['k'],N,Y,,,,,M,20
0,85,85,271,2,['n'],Y,['d'],N,Y,,,,,M,20
0,86,86,514,2,['n'],Y,['k'],N,Y,,,,,M,20
0,87,87,0,2,['y'],Y,['d'],Y,Y,,,,,M,20
0,88,88,305,2,['n'],Y,['k'],N,Y,,,,,M,20
0,89,89,232,2,['n'],Y,['d'],N,Y,,,,,M,20
0,90,90,134,2,['y'],Y,['d'],Y,Y,,,,,M,20
0,91,91,431,2,['y'],Y,['k'],Y,Y,,,,,M,20
0,92,92,63,2,['n'],Y,['d'],Y,N,,,,,M,20
0,93,93,30,2,['y'],Y,['d'],Y,Y,,,,,M,20
0,94,94,494,2,['n'],Y,['k'],N,Y,,,,,M,20
0,95,95,425,2,['n'],Y,['k'],N,Y,,,,,M,20
0,96,96,385,2,['y'],Y,['k'],Y,Y,,,,,M,20
0,97,97,238,2,['n'],Y,['d'],N,Y,,,,,M,20
0,98,98,481,2,['n'],Y,['k'],N,Y,,,,,M,20
0,99,99,104,2,['y'],Y,['d'],Y,Y,46,,,,M,20
0,100,100,166,3,['n'],Y,['d'],N,Y,,,,,M,20
0,101,101,24,3,['y'],Y,['d'],Y,Y,,,,,M,20
0,102,102,270,3,['y'],Y,['d'],Y,Y,,,,,M,20
0,103,103,282,3,['n'],Y,['d'],Y,N,,,,,M,20
0,104,104,35,3,['y'],Y,['d'],Y,Y,,,,,M,20
0,105,105,592,3,['y'],Y,['k'],Y,Y,,,,,M,20
0,106,106,328,3,['y'],N,['k'],Y,Y,,,,,M,20
0,107,107,269,3,['y'],Y,['d'],Y,Y,,,,,M,20
0,108,108,535,3,['y'],Y,['k'],Y,Y,,,,,M,20
0,109,109,227,3,['n'],Y,['d'],N,Y,,,,,M,20
0,110,110,239,3,['n'],Y,['d'],N,Y,,,,,M,20
0,111,111,246,3,['y'],Y,['d'],Y,Y,,,,,M,20
0,112,112,377,3,['n'],Y,['k'],N,Y,,,,,M,20
0,113,113,343,3,['n'],Y,['k'],N,Y,,,,,M,20
0,114,114,534,3,['n'],Y,['k'],N,Y,,,,,M,20
0,115,115,590,3,['y'],Y,['k'],Y,Y,,,,,M,20
0,116,116,363,3,['n'],Y,['k'],N,Y,,,,,M,20
0,117,117,66,3,['n'],Y,['d'],N,Y,,,,,M,20
0,118,118,276,3,['y'],Y,['d'],Y,Y,,,,,M,20
0,119,119,560,3,['y'],Y,['k'],Y,Y,,,,,M,20
0,120,120,38,3,['y'],Y,['d'],Y,Y,,,,,M,20
0,121,121,42,3,['n'],N,['d'],N,Y,,,,,M,20
0,122,122,198,3,['n'],N,['d'],N,Y,,,,,M,20
0,123,123,398,3,['n'],Y,['k'],N,Y,,,,,M,20
0,124,124,540,3,['y'],Y,['k'],Y,Y,,,,,M,20
0,125,125,467,3,['y'],Y,['k'],Y,Y,,,,,M,20
0,126,126,504,3,['n'],Y,['k'],N,Y,,,,,M,20
0,127,127,108,3,['n'],Y,['d'],N,Y,,,,,M,20
0,128,128,376,3,['n'],Y,['k'],N,Y,,,,,M,20
0,129,129,499,3,['n'],Y,['k'],N,Y,,,,,M,20
0,130,130,14,3,['y'],Y,['d'],Y,Y,,,,,M,20
0,131,131,414,3,['y'],Y,['k'],Y,Y,,,,,M,20
0,132,132,147,3,['n'],Y,['d'],N,Y,,,,,M,20
0,133,133,391,3,['y'],Y,['k'],Y,Y,,,,,M,20
0,134,134,387,3,['n'],Y,['k'],N,Y,,,,,M,20
0,135,135,140,3,['n'],Y,['d'],N,Y,,,,,M,20
0,136,136,516,3,['y'],Y,['k'],Y,Y,,,,,M,20
0,137,137,339,3,['y'],Y,['k'],Y,Y,,,,,M,20
0,138,138,589,3,['y'],Y,['k'],Y,Y,,,,,M,20
0,139,139,148,3,['n'],Y,['d'],N,Y,,,,,M,20
0,140,140,159,3,['n'],Y,['d'],N,Y,,,,,M,20
0,141,141,420,3,['n'],Y,['k'],N,Y,,,,,M,20
0,142,142,298,3,['n'],Y,['d'],N,Y,,,,,M,20
0,143,143,554,3,['n'],Y,['k'],N,Y,,,,,M,20
0,144,144,518,3,['y'],Y,['k'],Y,Y,,,,,M,20
0,145,145,23,3,['y'],Y,['d'],Y,Y,,,,,M,20
0,146,146,69,3,['y'],Y,['d'],Y,Y,,,,,M,20
0,147,147,513,3,['n'],Y,['k'],N,Y,,,,,M,20
0,148,148,410,3,['n'],Y,['k'],N,Y,,,,,M,20
0,149,149,125,3,['n'],Y,['d'],Y,N,47,,,,M,20
0,150,150,373,4,['y'],Y,['k'],Y,Y,,,,,M,20
0,151,151,371,4,['n'],Y,['k'],N,Y,,,,,M,20
0,152,152,281,4,['y'],Y,['d'],Y,Y,,,,,M,20
0,153,153,542,4,['n'],Y,['k'],N,Y,,,,,M,20
0,154,154,532,4,['n'],N,['k'],N,Y,,,,,M,20
0,155,155,419,4,['n'],Y,['k'],Y,N,,,,,M,20
0,156,156,185,4,['y'],N,['d'],Y,Y,,,,,M,20
0,157,157,544,4,['n'],Y,['k'],N,Y,,,,,M,20
0,158,158,311,4,['n'],N,['k'],Y,N,,,,,M,20
0,159,159,577,4,['n'],Y,['k'],Y,N,,,,,M,20
0,160,160,181,4,['y'],Y,['d'],Y,Y,,,,,M,20
0,161,161,365,4,['y'],Y,['k'],Y,Y,,,,,M,20
0,162,162,578,4,['n'],Y,['k'],N,Y,,,,,M,20
0,163,163,533,4,['y'],Y,['k'],Y,Y,,,,,M,20
0,164,164,584,4,['y'],N,['k'],N,N,,,,,M,20
0,165,165,26,4,['y'],Y,['d'],Y,Y,,,,,M,20
0,166,166,446,4,['n'],Y,['k'],N,Y,,,,,M,20
0,167,167,393,4,['y'],Y,['k'],Y,Y,,,,,M,20
0,168,168,585,4,['n'],Y,['k'],Y,N,,,,,M,20
0,169,169,141,4,['y'],Y,['d'],Y,Y,,,,,M,20
0,170,170,388,4,['y'],Y,['k'],Y,Y,,,,,M,20
0,171,171,196,4,['y'],Y,['d'],Y,Y,,,,,M,20
0,172,172,40,4,['n'],Y,['d'],N,Y,,,,,M,20
0,173,173,128,4,['n'],Y,['d'],N,Y,,,,,M,20
0,174,174,303,4,['y'],Y,['k'],Y,Y,,,,,M,20
0,175,175,586,4,['n'],Y,['k'],N,Y,,,,,M,20
0,176,176,73,4,['n'],Y,['d'],Y,N,,,,,M,20
0,177,177,497,4,['n'],Y,['k'],N,Y,,,,,M,20
0,178,178,471,4,['n'],Y,['k'],N,Y,,,,,M,20
0,179,179,460,4,['n'],Y,['k'],N,Y,,,,,M,20
0,180,180,8,4,['y'],Y,['d'],Y,Y,,,,,M,20
0,181,181,179,4,['n'],Y,['d'],N,Y,,,,,M,20
0,182,182,133,4,['n'],Y,['d'],N,Y,,,,,M,20
0,183,183,488,4,['n'],Y,['k'],N,Y,,,,,M,20
0,184,184,392,4,['n'],Y,['k'],N,Y,,,,,M,20
0,185,185,508,4,['n'],Y,['k'],N,Y,,,,,M,20
0,186,186,413,4,['n'],Y,['k'],Y,N,,,,,M,20
0,187,187,447,4,['n'],Y,['k'],N,Y,,,,,M,20
0,188,188,356,4,['y'],Y,['k'],Y,Y,,,,,M,20
0,189,189,594,4,['n'],Y,['k'],N,Y,,,,,M,20
0,190,190,322,4,['n'],Y,['k'],N,Y,,,,,M,20
0,191,191,41,4,['n'],Y,['d'],N,Y,,,,,M,20
0,192,192,36,4,['n'],Y,['d'],N,Y,,,,,M,20
0,193,193,266,4,['y'],Y,['d'],Y,Y,,,,,M,20
0,194,194,546,4,['y'],Y,['k'],Y,Y,,,,,M,20
0,195,195,79,4,['y'],Y,['d'],Y,Y,,,,,M,20
0,196,196,326,4,['n'],Y,['k'],N,Y,,,,,M,20
0,197,197,320,4,['y'],Y,['k'],Y,Y,,,,,M,20
0,198,198,562,4,['y'],N,['k'],N,N,,,,,M,20
0,199,199,91,4,['n'],Y,['d'],N,Y,45,,,,M,20
0,200,200,386,5,['y'],Y,['k'],Y,Y,,,,,M,20
0,201,201,158,5,['y'],Y,['d'],Y,Y,,,,,M,20
0,202,202,456,5,['y'],Y,['k'],Y,Y,,,,,M,20
0,203,203,56,5,['n'],Y,['d'],Y,N,,,,,M,20
0,204,204,33,5,['y'],Y,['d'],Y,Y,,,,,M,20
0,205,205,399,5,['n'],Y,['k'],N,Y,,,,,M,20
0,206,206,286,5,['n'],N,['d'],N,Y,,,,,M,20
0,207,207,384,5,['y'],Y,['k'],Y,Y,,,,,M,20
0,208,208,520,5,['y'],Y,['k'],Y,Y,,,,,M,20
0,209,209,254,5,['y'],Y,['d'],Y,Y,,,,,M,20
0,210,210,222,5,['y'],Y,['d'],Y,Y,,,,,M,20
0,211,211,39,5,['n'],N,['d'],N,Y,,,,,M,20
0,212,212,325,5,['y'],Y,['k'],Y,Y,,,,,M,20
0,213,213,94,5,['n'],Y,['d'],N,Y,,,,,M,20
0,214,214,274,5,['y'],Y,['d'],Y,Y,,,,,M,20
0,215,215,347,5,['n'],Y,['k'],N,Y,,,,,M,20
0,216,216,536,5,['n'],Y,['k'],N,Y,,,,,M,20
0,217,217,176,5,['y'],Y,['d'],Y,Y,,,,,M,20
0,218,218,297,5,['y'],Y,['d'],Y,Y,,,,,M,20
0,219,219,327,5,['n'],Y,['k'],Y,N,,,,,M,20
0,220,220,121,5,['y'],Y,['d'],Y,Y,,,,,M,20
0,221,221,401,5,['y'],Y,['k'],Y,Y,,,,,M,20
0,222,222,249,5,['y'],Y,['d'],Y,Y,,,,,M,20
0,223,223,517,5,['y'],Y,['k'],Y,Y,,,,,M,20
0,224,224,358,5,['y'],Y,['k'],Y,Y,,,,,M,20
0,225,225,156,5,['y'],Y,['d'],Y,Y,,,,,M,20
0,226,226,337,5,['y'],Y,['k'],Y,Y,,,,,M,20
0,227,227,112,5,['n'],Y,['d'],Y,N,,,,,M,20
0,228,228,395,5,['y'],Y,['k'],Y,Y,,,,,M,20
0,229,229,163,5,['n'],Y,['d'],N,Y,,,,,M,20
0,230,230,452,5,['n'],Y,['k'],N,Y,,,,,M,20
0,231,231,18,5,['n'],Y,['d'],Y,N,,,,,M,20
0,232,232,598,5,['n'],Y,['k'],N,Y,,,,,M,20
0,233,233,362,5,['n'],Y,['k'],N,Y,,,,,M,20
0,234,234,197,5,['n'],Y,['d'],N,Y,,,,,M,20
0,235,235,207,5,['n'],Y,['d'],N,Y,,,,,M,20
0,236,236,379,5,['y'],Y,['k'],Y,Y,,,,,M,20
0,237,237,229,5,['y'],Y,['d'],Y,Y,,,,,M,20
0,238,238,105,5,['n'],Y,['d'],N,Y,,,,,M,20
0,239,239,463,5,['n'],N,['k'],N,Y,,,,,M,20
0,240,240,571,5,['n'],Y,['k'],N,Y,,,,,M,20
0,241,241,469,5,['n'],N,['k'],N,Y,,,,,M,20
0,242,242,324,5,['y'],Y,['k'],Y,Y,,,,,M,20
0,243,243,597,5,['n'],Y,['k'],Y,N,,,,,M,20
0,244,244,574,5,['y'],Y,['k'],Y,Y,,,,,M,20
0,245,245,82,5,['y'],Y,['d'],Y,Y,,,,,M,20
0,246,246,591,5,['n'],N,['k'],N,Y,,,,,M,20
0,247,247,171,5,['n'],Y,['d'],N,Y,,,,,M,20
0,248,248,1,5,['n'],Y,['d'],N,Y,,,,,M,20
0,249,249,382,5,['y'],N,['k'],Y,Y,44,,,,M,20
0,250,250,381,6,['y'],Y,['k'],Y,Y,,,,,M,20
0,251,251,361,6,['y'],Y,['k'],Y,Y,,,,,M,20
0,252,252,27,6,['y'],Y,['d'],Y,Y,,,,,M,20
0,253,253,394,6,['n'],Y,['k'],Y,N,,,,,M,20
0,254,254,210,6,['y'],Y,['d'],Y,Y,,,,,M,20
0,255,255,84,6,['n'],Y,['d'],N,Y,,,,,M,20
0,256,256,309,6,['y'],Y,['k'],N,N,,,,,M,20
0,257,257,555,6,['n'],Y,['k'],Y,N,,,,,M,20
0,258,258,509,6,['y'],Y,['k'],Y,Y,,,,,M,20
0,259,259,54,6,['n'],Y,['d'],N,Y,,,,,M,20
0,260,260,506,6,['y'],Y,['k'],Y,Y,,,,,M,20
0,261,261,561,6,['n'],Y,['k'],N,Y,,,,,M,20
0,262,262,161,6,['n'],Y,['d'],N,Y,,,,,M,20
0,263,263,296,6,['n'],Y,['d'],N,Y,,,,,M,20
0,264,264,200,6,['n'],Y,['d'],N,Y,,,,,M,20
0,265,265,336,6,['n'],Y,['k'],Y,N,,,,,M,20
0,266,266,505,6,['n'],N,['k'],N,Y,,,,,M,20
0,267,267,459,6,['y'],Y,['k'],Y,Y,,,,,M,20
0,268,268,55,6,['y'],Y,['d'],Y,Y,,,,,M,20
0,269,269,97,6,['y'],Y,['d'],Y,Y,,,,,M,20
0,270,270,234,6,['y'],Y,['d'],Y,Y,,,,,M,20
0,271,271,575,6,['y'],Y,['k'],Y,Y,,,,,M,20
0,272,272,192,6,['n'],Y,['d'],N,Y,,,,,M,20
0,273,273,247,6,['n'],Y,['d'],N,Y,,,,,M,20
0,274,274,46,6,['y'],Y,['d'],Y,Y,,,,,M,20
0,275,275,258,6,['n'],Y,['d'],Y,N,,,,,M,20
0,276,276,443,6,['n'],Y,['k'],N,Y,,,,,M,20
0,277,277,19,6,['y'],Y,['d'],Y,Y,,,,,M,20
0,278,278,406,6,['n'],Y,['k'],N,Y,,,,,M,20
0,279,279,109,6,['n'],Y,['d'],Y,N,,,,,M,20
0,280,280,47,6,['y'],Y,['d'],Y,Y,,,,,M,20
0,281,281,16,6,['n'],Y,['d'],N,Y,,,,,M,20
0,282,282,170,6,['y'],Y,['d'],Y,Y,,,,,M,20
0,283,283,75,6,['y'],Y,['d'],Y,Y,,,,,M,20
0,284,284,172,6,['n'],Y,['d'],N,Y,,,,,M,20
0,285,285,474,6,['n'],Y,['k'],N,Y,,,,,M,20
0,286,286,220,6,['y'],Y,['d'],Y,Y,,,,,M,20
0,287,287,442,6,['n'],Y,['k'],Y,N,,,,,M,20
0,288,288,189,6,['n'],Y,['d'],N,Y,,,,,M,20
0,289,289,130,6,['n'],Y,['d'],N,Y,,,,,M,20
0,290,290,543,6,['n'],Y,['k'],N,Y,,,,,M,20
0,291,291,477,6,['n'],Y,['k'],N,Y,,,,,M,20
0,292,292,187,6,['n'],Y,['d'],N,Y,,,,,M,20
0,293,293,448,6,['n'],Y,['k'],N,Y,,,,,M,20
0,294,294,444,6,['n'],Y,['k'],N,Y,,,,,M,20
0,295,295,465,6,['y'],Y,['k'],Y,Y,,,,,M,20
0,296,296,435,6,['y'],Y,['k'],Y,Y,,,,,M,20
0,297,297,335,6,['n'],Y,['k'],N,Y,,,,,M,20
0,298,298,486,6,['n'],Y,['k'],N,Y,,,,,M,20
0,299,299,476,6,['n'],N,['k'],N,Y,48,,,,M,20
0,300,300,49,7,['n'],Y,['d'],Y,N,,,,,M,20
0,301,301,515,7,['y'],Y,['k'],Y,Y,,,,,M,20
0,302,302,231,7,['y'],Y,['d'],Y,Y,,,,,M,20
0,303,303,151,7,['n'],N,['d'],Y,N,,,,,M,20
0,304,304,131,7,['n'],Y,['d'],N,Y,,,,,M,20
0,305,305,253,7,['y'],Y,['d'],Y,Y,,,,,M,20
0,306,306,180,7,['n'],Y,['d'],N,Y,,,,,M,20
0,307,307,103,7,['y'],Y,['d'],Y,Y,,,,,M,20
0,308,308,25,7,['n'],Y,['d'],N,Y,,,,,M,20
0,309,309,415,7,['n'],Y,['k'],N,Y,,,,,M,20
0,310,310,60,7,['y'],N,['d'],Y,Y,,,,,M,20
0,311,311,205,7,['y'],Y,['d'],Y,Y,,,,,M,20
0,312,312,374,7,['n'],N,['k'],N,Y,,,,,M,20
0,313,313,352,7,['n'],Y,['k'],N,Y,,,,,M,20
0,314,314,355,7,['y'],Y,['k'],Y,Y,,,,,M,20
0,315,315,96,7,['n'],Y,['d'],N,Y,,,,,M,20
0,316,316,522,7,['y'],Y,['k'],Y,Y,,,,,M,20
0,317,317,149,7,['y'],Y,['d'],Y,Y,,,,,M,20
0,318,318,318,7,None,Y,['k'],N,Timed Out,,,,,M,20
0,319,319,145,7,['n'],Y,['d'],Y,N,,,,,M,20
0,320,320,194,7,['y'],Y,['d'],Y,Y,,,,,M,20
0,321,321,521,7,['n'],Y,['k'],N,Y,,,,,M,20
0,322,322,503,7,['n'],Y,['k'],N,Y,,,,,M,20
0,323,323,74,7,['n'],Y,['d'],Y,N,,,,,M,20
0,324,324,279,7,['n'],Y,['d'],N,Y,,,,,M,20
0,325,325,563,7,['n'],Y,['k'],N,Y,,,,,M,20
0,326,326,331,7,['n'],Y,['k'],N,Y,,,,,M,20
0,327,327,218,7,['n'],Y,['d'],N,Y,,,,,M,20
0,328,328,312,7,['n'],Y,['k'],N,Y,,,,,M,20
0,329,329,2,7,['y'],Y,['d'],Y,Y,,,,,M,20
0,330,330,162,7,['n'],Y,['d'],N,Y,,,,,M,20
0,331,331,475,7,['n'],N,['k'],N,Y,,,,,M,20
0,332,332,243,7,None,Y,['d'],Y,Timed Out,,,,,M,20
0,333,333,9,7,['n'],N,['d'],Y,N,,,,,M,20
0,334,334,272,7,['y'],Y,['d'],Y,Y,,,,,M,20
0,335,335,559,7,['y'],Y,['k'],Y,Y,,,,,M,20
0,336,336,152,7,['n'],Y,['d'],N,Y,,,,,M,20
0,337,337,250,7,['y'],Y,['d'],Y,Y,,,,,M,20
0,338,338,190,7,['n'],Y,['d'],N,Y,,,,,M,20
0,339,339,587,7,['y'],Y,['k'],Y,Y,,,,,M,20
0,340,340,208,7,['n'],Y,['d'],N,Y,,,,,M,20
0,341,341,211,7,['y'],Y,['d'],Y,Y,,,,,M,20
0,342,342,378,7,['y'],Y,['k'],Y,Y,,,,,M,20
0,343,343,65,7,['n'],Y,['d'],N,Y,,,,,M,20
0,344,344,257,7,['n'],Y,['d'],N,Y,,,,,M,20
0,345,345,242,7,['n'],Y,['d'],N,Y,,,,,M,20
0,346,346,360,7,['y'],Y,['k'],Y,Y,,,,,M,20
0,347,347,70,7,['y'],Y,['d'],Y,Y,,,,,M,20
0,348,348,203,7,['n'],Y,['d'],N,Y,,,,,M,20
0,349,349,510,7,['n'],Y,['k'],N,Y,45,,,,M,20
0,350,350,7,8,['n'],Y,['d'],N,Y,,,,,M,20
0,351,351,61,8,['y'],Y,['d'],Y,Y,,,,,M,20
0,352,352,302,8,['n'],Y,['k'],N,Y,,,,,M,20
0,353,353,539,8,['y'],Y,['k'],Y,Y,,,,,M,20
0,354,354,472,8,['y'],Y,['k'],Y,Y,,,,,M,20
0,355,355,519,8,['y'],Y,['k'],Y,Y,,,,,M,20
0,356,356,507,8,['n'],Y,['k'],N,Y,,,,,M,20
0,357,357,284,8,['y'],Y,['d'],Y,Y,,,,,M,20
0,358,358,175,8,['n'],Y,['d'],N,Y,,,,,M,20
0,359,359,489,8,['n'],Y,['k'],Y,N,,,,,M,20
0,360,360,127,8,['n'],Y,['d'],N,Y,,,,,M,20
0,361,361,440,8,['y'],Y,['k'],Y,Y,,,,,M,20
0,362,362,201,8,['n'],Y,['d'],Y,N,,,,,M,20
0,363,363,368,8,['n'],Y,['k'],N,Y,,,,,M,20
0,364,364,93,8,['n'],N,['d'],N,Y,,,,,M,20
0,365,365,582,8,['n'],Y,['k'],N,Y,,,,,M,20
0,366,366,524,8,['n'],Y,['k'],N,Y,,,,,M,20
0,367,367,44,8,['n'],Y,['d'],N,Y,,,,,M,20
0,368,368,293,8,['n'],Y,['d'],N,Y,,,,,M,20
0,369,369,357,8,['n'],Y,['k'],N,Y,,,,,M,20
0,370,370,599,8,['n'],Y,['k'],N,Y,,,,,M,20
0,371,371,455,8,['n'],Y,['k'],N,Y,,,,,M,20
0,372,372,81,8,['n'],Y,['d'],N,Y,,,,,M,20
0,373,373,366,8,['n'],Y,['k'],N,Y,,,,,M,20
0,374,374,262,8,['n'],Y,['d'],N,Y,,,,,M,20
0,375,375,155,8,['n'],Y,['d'],N,Y,,,,,M,20
0,376,376,304,8,['n'],Y,['k'],N,Y,,,,,M,20
0,377,377,483,8,['n'],Y,['k'],N,Y,,,,,M,20
0,378,378,454,8,['y'],Y,['k'],Y,Y,,,,,M,20
0,379,379,118,8,['y'],Y,['d'],Y,Y,,,,,M,20
0,380,380,177,8,['n'],Y,['d'],N,Y,,,,,M,20
0,381,381,418,8,['y'],N,['k'],Y,Y,,,,,M,20
0,382,382,557,8,['n'],Y,['k'],Y,N,,,,,M,20
0,383,383,6,8,['n'],Y,['d'],N,Y,,,,,M,20
0,384,384,338,8,['n'],Y,['k'],N,Y,,,,,M,20
0,385,385,568,8,['n'],Y,['k'],N,Y,,,,,M,20
0,386,386,169,8,['n'],Y,['d'],N,Y,,,,,M,20
0,387,387,383,8,['n'],Y,['k'],Y,N,,,,,M,20
0,388,388,132,8,['n'],Y,['d'],N,Y,,,,,M,20
0,389,389,45,8,['n'],Y,['d'],N,Y,,,,,M,20
0,390,390,43,8,['y'],N,['d'],Y,Y,,,,,M,20
0,391,391,470,8,['n'],Y,['k'],N,Y,,,,,M,20
0,392,392,593,8,['n'],Y,['k'],N,Y,,,,,M,20
0,393,393,245,8,['y'],Y,['d'],Y,Y,,,,,M,20
0,394,394,77,8,['n'],Y,['d'],N,Y,,,,,M,20
0,395,395,437,8,['n'],Y,['k'],N,Y,,,,,M,20
0,396,396,265,8,['n'],Y,['d'],N,Y,,,,,M,20
0,397,397,110,8,['y'],N,['d'],Y,Y,,,,,M,20
0,398,398,491,8,['n'],Y,['k'],N,Y,,,,,M,20
0,399,399,353,8,['n'],Y,['k'],N,Y,46,,,,M,20
0,400,400,126,9,['n'],Y,['d'],N,Y,,,,,M,20
0,401,401,213,9,['n'],Y,['d'],N,Y,,,,,M,20
0,402,402,199,9,['y'],Y,['d'],Y,Y,,,,,M,20
0,403,403,233,9,['y'],Y,['d'],Y,Y,,,,,M,20
0,404,404,206,9,['n'],Y,['d'],N,Y,,,,,M,20
0,405,405,432,9,['n'],Y,['k'],N,Y,,,,,M,20
0,406,406,299,9,['n'],Y,['d'],N,Y,,,,,M,20
0,407,407,283,9,['y'],Y,['d'],Y,Y,,,,,M,20
0,408,408,484,9,['n'],Y,['k'],N,Y,,,,,M,20
0,409,409,340,9,['y'],Y,['k'],Y,Y,,,,,M,20
0,410,410,240,9,['y'],Y,['d'],Y,Y,,,,,M,20
0,411,411,119,9,['n'],Y,['d'],N,Y,,,,,M,20
0,412,412,462,9,['y'],Y,['k'],Y,Y,,,,,M,20
0,413,413,473,9,['n'],Y,['k'],N,Y,,,,,M,20
0,414,414,567,9,['n'],Y,['k'],N,Y,,,,,M,20
0,415,415,323,9,['y'],Y,['k'],Y,Y,,,,,M,20
0,416,416,122,9,['n'],Y,['d'],N,Y,,,,,M,20
0,417,417,301,9,['n'],Y,['k'],N,Y,,,,,M,20
0,418,418,111,9,['y'],Y,['d'],Y,Y,,,,,M,20
0,419,419,107,9,['n'],Y,['d'],N,Y,,,,,M,20
0,420,420,308,9,['y'],Y,['k'],Y,Y,,,,,M,20
0,421,421,403,9,['y'],N,['k'],Y,Y,,,,,M,20
0,422,422,537,9,['y'],Y,['k'],Y,Y,,,,,M,20
0,423,423,267,9,['n'],Y,['d'],N,Y,,,,,M,20
0,424,424,174,9,['n'],Y,['d'],N,Y,,,,,M,20
0,425,425,527,9,['n'],Y,['k'],N,Y,,,,,M,20
0,426,426,453,9,['y'],Y,['k'],Y,Y,,,,,M,20
0,427,427,48,9,['n'],Y,['d'],N,Y,,,,,M,20
0,428,428,458,9,['n'],Y,['k'],N,Y,,,,,M,20
0,429,429,259,9,['n'],Y,['d'],Y,N,,,,,M,20
0,430,430,236,9,['y'],Y,['d'],Y,Y,,,,,M,20
0,431,431,306,9,['y'],Y,['k'],Y,Y,,,,,M,20
0,432,432,273,9,['n'],N,['d'],Y,N,,,,,M,20
0,433,433,583,9,['y'],Y,['k'],Y,Y,,,,,M,20
0,434,434,348,9,['y'],Y,['k'],Y,Y,,,,,M,20
0,435,435,115,9,['y'],Y,['d'],Y,Y,,,,,M,20
0,436,436,480,9,['n'],Y,['k'],Y,N,,,,,M,20
0,437,437,5,9,['n'],Y,['d'],N,Y,,,,,M,20
0,438,438,102,9,['y'],Y,['d'],Y,Y,,,,,M,20
0,439,439,113,9,['n'],Y,['d'],N,Y,,,,,M,20
0,440,440,230,9,['y'],Y,['d'],Y,Y,,,,,M,20
0,441,441,32,9,['n'],Y,['d'],N,Y,,,,,M,20
0,442,442,160,9,['y'],Y,['d'],Y,Y,,,,,M,20
0,443,443,430,9,['n'],Y,['k'],N,Y,,,,,M,20
0,444,444,389,9,['n'],Y,['k'],N,Y,,,,,M,20
0,445,445,439,9,['n'],Y,['k'],N,Y,,,,,M,20
0,446,446,100,9,['n'],Y,['d'],N,Y,,,,,M,20
0,447,447,275,9,['n'],Y,['d'],Y,N,,,,,M,20
0,448,448,428,9,['n'],Y,['k'],Y,N,,,,,M,20
0,449,449,191,9,['n'],Y,['d'],N,Y,48,,,,M,20
0,450,450,13,10,['n'],Y,['d'],Y,N,,,,,M,20
0,451,451,10,10,['y'],Y,['d'],Y,Y,,,,,M,20
0,452,452,137,10,['n'],Y,['d'],N,Y,,,,,M,20
0,453,453,95,10,['n'],Y,['d'],N,Y,,,,,M,20
0,454,454,569,10,['y'],Y,['k'],Y,Y,,,,,M,20
0,455,455,321,10,['y'],Y,['k'],Y,Y,,,,,M,20
0,456,456,466,10,['n'],Y,['k'],Y,N,,,,,M,20
0,457,457,500,10,['y'],N,['k'],Y,Y,,,,,M,20
0,458,458,224,10,['y'],Y,['d'],Y,Y,,,,,M,20
0,459,459,17,10,['n'],Y,['d'],N,Y,,,,,M,20
0,460,460,21,10,['n'],Y,['d'],N,Y,,,,,M,20
0,461,461,319,10,['n'],Y,['k'],N,Y,,,,,M,20
0,462,462,216,10,['n'],Y,['d'],N,Y,,,,,M,20
0,463,463,580,10,['n'],Y,['k'],N,Y,,,,,M,20
0,464,464,330,10,['n'],N,['k'],Y,N,,,,,M,20
0,465,465,64,10,['y'],Y,['d'],Y,Y,,,,,M,20
0,466,466,552,10,['n'],Y,['k'],N,Y,,,,,M,20
0,467,467,313,10,['y'],Y,['k'],Y,Y,,,,,M,20
0,468,468,59,10,['y'],Y,['d'],Y,Y,,,,,M,20
0,469,469,334,10,['y'],Y,['k'],Y,Y,,,,,M,20
0,470,470,545,10,['n'],Y,['k'],N,Y,,,,,M,20
0,471,471,502,10,['n'],Y,['k'],N,Y,,,,,M,20
0,472,472,332,10,['y'],N,['k'],Y,Y,,,,,M,20
0,473,473,68,10,['n'],Y,['d'],N,Y,,,,,M,20
0,474,474,548,10,['y'],Y,['k'],Y,Y,,,,,M,20
0,475,475,408,10,['n'],Y,['k'],N,Y,,,,,M,20
0,476,476,85,10,['y'],Y,['d'],Y,Y,,,,,M,20
0,477,477,244,10,['n'],Y,['d'],N,Y,,,,,M,20
0,478,478,31,10,['n'],Y,['d'],Y,N,,,,,M,20
0,479,479,51,10,['n'],Y,['d'],N,Y,,,,,M,20
0,480,480,251,10,['y'],Y,['d'],Y,Y,,,,,M,20
0,481,481,538,10,['y'],Y,['k'],Y,Y,,,,,M,20
0,482,482,143,10,['y'],Y,['d'],Y,Y,,,,,M,20
0,483,483,28,10,['y'],N,['d'],Y,Y,,,,,M,20
0,484,484,565,10,['n'],N,['k'],N,Y,,,,,M,20
0,485,485,106,10,['y'],Y,['d'],Y,Y,,,,,M,20
0,486,486,219,10,['n'],Y,['d'],N,Y,,,,,M,20
0,487,487,451,10,['n'],Y,['k'],N,Y,,,,,M,20
0,488,488,202,10,['y'],N,['d'],Y,Y,,,,,M,20
0,489,489,479,10,['y'],Y,['k'],Y,Y,,,,,M,20
0,490,490,184,10,['n'],Y,['d'],N,Y,,,,,M,20
0,491,491,195,10,['n'],Y,['d'],N,Y,,,,,M,20
0,492,492,329,10,['y'],Y,['k'],Y,Y,,,,,M,20
0,493,493,204,10,['n'],Y,['d'],N,Y,,,,,M,20
0,494,494,541,10,['n'],Y,['k'],Y,N,,,,,M,20
0,495,495,167,10,['y'],Y,['d'],Y,Y,,,,,M,20
0,496,496,438,10,['n'],Y,['k'],N,Y,,,,,M,20
0,497,497,380,10,['n'],Y,['k'],N,Y,,,,,M,20
0,498,498,280,10,['y'],Y,['d'],Y,Y,,,,,M,20
0,499,499,287,10,['n'],Y,['d'],N,Y,44,,,,M,20
0,500,500,367,11,None,Timed out,,,,,Y,Y,Y,M,20
0,501,501,511,11,['n'],Y,['k'],N,Y,,,Y,Y,M,20
0,502,502,53,11,None,N,['d'],N,Timed Out,,,Y,Y,M,20
0,503,503,241,11,['n'],Y,['d'],N,Y,,,Y,Y,M,20
0,504,504,80,11,['n'],Y,['d'],Y,N,,,Y,Y,M,20
0,505,505,83,11,['y'],N,['d'],Y,Y,,,Y,Y,M,20
0,506,506,523,11,['n'],Y,['k'],N,Y,,,Y,Y,M,20
0,507,507,129,11,['n'],Y,['d'],Y,N,,,Y,Y,M,20
0,508,508,485,11,None,Y,['k'],N,Timed Out,,,Y,Y,M,20
0,509,509,292,11,['n'],Y,['d'],N,Y,,,Y,Y,M,20
0,510,510,445,11,['n'],Y,['k'],N,Y,,,Y,Y,M,20
0,511,511,449,11,['n'],Y,['k'],N,Y,,,Y,Y,M,20
0,512,512,364,11,None,N,['k'],Y,Timed Out,,,Y,Y,M,20
0,513,513,307,11,['n'],Y,['k'],N,Y,,,Y,Y,M,20
0,514,514,154,11,['n'],Y,['d'],N,Y,,,Y,Y,M,20
0,515,515,417,11,['n'],Y,['k'],Y,N,,,Y,Y,M,20
0,516,516,268,11,None,N,['d'],N,Timed Out,,,Y,Y,M,20
0,517,517,12,11,None,Timed out,,,,,,Y,Y,M,20
0,518,518,215,11,['y'],Y,['d'],Y,Y,,,Y,Y,M,20
0,519,519,3,11,['n'],N,['d'],N,Y,,,Y,Y,M,20
0,520,520,570,11,['n'],N,['k'],N,Y,,,Y,Y,M,20
0,521,521,493,11,['n'],Y,['k'],N,Y,,,Y,Y,M,20
0,522,522,397,11,['y'],Y,['k'],Y,Y,,,Y,Y,M,20
0,523,523,525,11,['n'],N,['k'],N,Y,,,Y,Y,M,20
0,524,524,596,11,['y'],Y,['k'],Y,Y,,,Y,Y,M,20
0,525,525,193,11,['y'],N,['d'],Y,Y,,,Y,Y,M,20
0,526,526,11,11,['n'],Y,['d'],N,Y,,,Y,Y,M,20
0,527,527,422,11,['y'],Y,['k'],Y,Y,,,Y,Y,M,20
0,528,528,235,11,['n'],N,['d'],Y,N,,,Y,Y,M,20
0,529,529,478,11,['y'],N,['k'],Y,Y,,,Y,Y,M,20
0,530,530,549,11,['n'],Y,['k'],N,Y,,,Y,Y,M,20
0,531,531,295,11,None,Timed out,,,,,,Y,Y,M,20
0,532,532,558,11,['y'],N,['k'],Y,Y,,,Y,Y,M,20
0,533,533,146,11,None,N,['d'],N,Timed Out,,,Y,Y,M,20
0,534,534,186,11,['y'],N,['d'],Y,Y,,,Y,Y,M,20
0,535,535,464,11,['n'],N,['k'],N,Y,,,Y,Y,M,20
0,536,536,468,11,None,Timed out,,,,,,Y,Y,M,20
0,537,537,89,11,None,Timed out,,,,,,Y,Y,M,20
0,538,538,495,11,['n'],Y,['k'],Y,N,,,Y,Y,M,20
0,539,539,487,11,None,N,['k'],Y,Timed Out,,,Y,Y,M,20
0,540,540,139,11,['n'],Y,['d'],N,Y,,,Y,Y,M,20
0,541,541,390,11,['y'],Y,['k'],Y,Y,,,Y,Y,M,20
0,542,542,37,11,['y'],Y,['d'],Y,Y,,,Y,Y,M,20
0,543,543,260,11,['n'],N,['d'],Y,N,,,Y,Y,M,20
0,544,544,34,11,['n'],Y,['d'],N,Y,,,Y,Y,M,20
0,545,545,67,11,['y'],Y,['d'],Y,Y,,,Y,Y,M,20
0,546,546,52,11,None,N,['d'],Y,Timed Out,,,Y,Y,M,20
0,547,547,429,11,['y'],Y,['k'],N,N,,,Y,Y,M,20
0,548,548,416,11,['y'],Y,['k'],Y,Y,,,Y,Y,M,20
0,549,549,490,11,['y'],Y,['k'],Y,Y,28,,Y,Y,M,20
0,550,550,526,12,['n'],Y,['k'],N,Y,,,Y,Y,M,20
0,551,551,86,12,['n'],Y,['d'],N,Y,,,Y,Y,M,20
0,552,552,434,12,['n'],Y,['k'],N,Y,,,Y,Y,M,20
0,553,553,217,12,['y'],Y,['d'],Y,Y,,,Y,Y,M,20
0,554,554,482,12,['n'],Y,['k'],N,Y,,,Y,Y,M,20
0,555,555,278,12,['y'],Y,['d'],Y,Y,,,Y,Y,M,20
0,556,556,116,12,None,Timed out,,,,,,Y,Y,M,20
0,557,557,165,12,['y'],Y,['d'],Y,Y,,,Y,Y,M,20
0,558,558,370,12,['n'],Y,['k'],Y,N,,,Y,Y,M,20
0,559,559,421,12,['n'],Y,['k'],N,Y,,,Y,Y,M,20
0,560,560,354,12,['n'],N,['k'],N,Y,,,Y,Y,M,20
0,561,561,138,12,['y'],Y,['d'],Y,Y,,,Y,Y,M,20
0,562,562,22,12,['y'],Y,['d'],Y,Y,,,Y,Y,M,20
0,563,563,375,12,['y'],Y,['k'],Y,Y,,,Y,Y,M,20
0,564,564,88,12,['y'],N,['d'],N,N,,,Y,Y,M,20
0,565,565,223,12,['y'],Y,['d'],Y,Y,,,Y,Y,M,20
0,566,566,50,12,['y'],Y,['d'],Y,Y,,,Y,Y,M,20
0,567,567,99,12,['n'],Y,['d'],N,Y,,,Y,Y,M,20
0,568,568,341,12,None,Y,['k'],N,Timed Out,,,Y,Y,M,20
0,569,569,351,12,['n'],Y,['k'],N,Y,,,Y,Y,M,20
0,570,570,512,12,['y'],N,['k'],Y,Y,,,Y,Y,M,20
0,571,571,436,12,['y'],Y,['k'],Y,Y,,,Y,Y,M,20
0,572,572,261,12,None,Timed out,,,,,,Y,Y,M,20
0,573,573,15,12,['n'],N,['d'],N,Y,,,Y,Y,M,20
0,574,574,150,12,['y'],Y,['d'],Y,Y,,,Y,Y,M,20
0,575,575,346,12,['y'],Y,['k'],Y,Y,,,Y,Y,M,20
0,576,576,120,12,['y'],Y,['d'],Y,Y,,,Y,Y,M,20
0,577,577,142,12,['n'],Y,['d'],N,Y,,,Y,Y,M,20
0,578,578,498,12,['n'],Y,['k'],N,Y,,,Y,Y,M,20
0,579,579,344,12,None,Y,['k'],Y,Timed Out,,,Y,Y,M,20
0,580,580,90,12,['n'],Y,['d'],N,Y,,,Y,Y,M,20
0,581,581,314,12,['y'],Y,['k'],Y,Y,,,Y,Y,M,20
0,582,582,317,12,['n'],Y,['k'],N,Y,,,Y,Y,M,20
0,583,583,62,12,['y'],Y,['d'],Y,Y,,,Y,Y,M,20
0,584,584,310,12,['y'],Y,['k'],Y,Y,,,Y,Y,M,20
0,585,585,342,12,['n'],N,['k'],N,Y,,,Y,Y,M,20
0,586,586,123,12,['n'],Y,['d'],N,Y,,,Y,Y,M,20
0,587,587,315,12,['n'],N,['k'],N,Y,,,Y,Y,M,20
0,588,588,255,12,['n'],Y,['d'],N,Y,,,Y,Y,M,20
0,589,589,144,12,['n'],Y,['d'],N,Y,,,Y,Y,M,20
0,590,590,76,12,['n'],Y,['d'],N,Y,,,Y,Y,M,20
0,591,591,157,12,['y'],Y,['d'],Y,Y,,,Y,Y,M,20
0,592,592,214,12,['y'],Y,['d'],Y,Y,,,Y,Y,M,20
0,593,593,300,12,['n'],Y,['k'],N,Y,,,Y,Y,M,20
0,594,594,427,12,['y'],Y,['k'],Y,Y,,,Y,Y,M,20
0,595,595,426,12,['y'],Y,['k'],Y,Y,,,Y,Y,M,20
0,596,596,164,12,None,Timed out,,,,,,Y,Y,M,20
0,597,597,72,12,['y'],Y,['d'],Y,Y,,,Y,Y,M,20
0,598,598,595,12,['y'],Y,['k'],N,N,,,Y,Y,M,20
0,599,599,87,12,['n'],Y,['d'],N,Y,41,,Y,Y,M,20
