.thisRepN,.thisTrialN,.thisN,.thisIndex,.thisTrial,Block Number,Key pressed,Correct?,Category,Int Match?,Int Response,Int Correct?,Line Accuracy,Interference Accuracy,Matching Interferences,New instruction shown?,Buttons switched?,Fast?,gender,age,
0,0,0,4,4,1,None,Timed out,,,,,,,,,,,M,20,
0,1,1,5,5,1,['d'],N,['k'],,,,,,,,,,M,20,
0,2,2,3,3,1,['k'],N,['d'],N,None,Y,,,,,,,M,20,
0,3,3,10,10,1,['k'],Y,['k'],N,None,Y,,,,,,,M,20,
0,4,4,8,8,1,['k'],Y,['k'],N,None,Y,,,,,,,M,20,
0,5,5,4,4,1,['k'],N,['d'],N,None,Y,,,,,,,M,20,
0,6,6,10,10,1,['d'],Y,['d'],Y,['k'],N,,,,,,,M,20,
0,7,7,10,10,1,['d'],N,['k'],Y,['space'],Y,,,,,,,M,20,
0,8,8,7,7,1,['d'],Y,['d'],Y,None,N,,,,,,,M,20,
0,9,9,5,5,1,['d'],N,['k'],Y,['space'],Y,,,,,,,M,20,
0,10,10,9,9,1,['k'],N,['d'],N,None,Y,,,,,,,M,20,
1,0,11,0,0,1,['d'],Y,['d'],Y,None,N,,,,,,,M,20,
1,1,12,9,9,1,['d'],N,['k'],Y,None,N,,,,,,,M,20,
1,2,13,7,7,1,['k'],N,['d'],N,None,Y,,,,,,,M,20,
1,3,14,2,2,1,['d'],N,['k'],N,None,Y,,,,,,,M,20,
1,4,15,4,4,1,['d'],Y,['d'],Y,None,N,,,,,,,M,20,
1,5,16,10,10,1,['k'],Y,['k'],N,['space'],N,,,,,,,M,20,
1,6,17,9,9,1,['k'],Y,['k'],Y,['space'],Y,,,,,,,M,20,
1,7,18,1,1,1,['k'],Y,['k'],Y,['d'],N,,,,,,,M,20,
1,8,19,2,2,1,['k'],N,['d'],N,['space'],N,,,,,,,M,20,
1,9,20,7,7,1,['k'],Y,['k'],Y,None,N,,,,,,,M,20,
1,10,21,9,9,1,['k'],Y,['k'],Y,None,N,,,,,,,M,20,
2,0,22,1,1,1,['d'],Y,['d'],N,None,Y,,,,,,,M,20,
2,1,23,2,2,1,['d'],Y,['d'],Y,None,N,,,,,,,M,20,
2,2,24,4,4,1,['d'],N,['k'],N,['space'],N,,,,,,,M,20,
2,3,25,0,0,1,['k'],N,['d'],Y,['space'],Y,,,,,,,M,20,
2,4,26,10,10,1,['d'],N,['k'],Y,None,N,,,,,,,M,20,
2,5,27,7,7,1,['d'],Y,['d'],Y,['space'],Y,,,,,,,M,20,
2,6,28,8,8,1,['k'],N,['d'],N,None,Y,,,,,,,M,20,
2,7,29,5,5,1,['d'],Y,['d'],N,None,Y,,,,,,,M,20,
2,8,30,0,0,1,['d'],Y,['d'],Y,['space'],Y,,,,,,,M,20,
2,9,31,5,5,1,['d'],Y,['d'],N,None,Y,,,,,,,M,20,
2,10,32,2,2,1,['k'],N,['d'],Y,['space'],Y,,,,,,,M,20,
3,0,33,6,6,1,['d'],N,['k'],Y,['space'],Y,,,,,,,M,20,
3,1,34,0,0,1,['k'],Y,['k'],Y,['space'],Y,,,,,,,M,20,
3,2,35,6,6,1,['k'],Y,['k'],N,None,Y,,,,,,,M,20,
3,3,36,2,2,1,['d'],Y,['d'],N,None,Y,,,,,,,M,20,
3,4,37,6,6,1,['k'],Y,['k'],N,['space'],N,,,,,,,M,20,
3,5,38,5,5,1,['d'],Y,['d'],N,None,Y,,,,,,,M,20,
3,6,39,9,9,1,['d'],Y,['d'],N,None,Y,,,,,,,M,20,
3,7,40,9,9,1,['k'],N,['d'],N,['space'],N,,,,,,,M,20,
3,8,41,10,10,1,['k'],N,['d'],N,None,Y,,,,,,,M,20,
3,9,42,4,4,1,['d'],N,['k'],N,None,Y,,,,,,,M,20,
3,10,43,6,6,1,['k'],N,['d'],N,None,Y,,,,,,,M,20,
4,0,44,0,0,1,['d'],Y,['d'],N,None,Y,,,,,,,M,20,
4,1,45,1,1,1,['d'],N,['k'],N,None,Y,,,,,,,M,20,
4,2,46,1,1,1,['k'],Y,['k'],N,['space'],N,,,,,,,M,20,
4,3,47,6,6,1,['d'],Y,['d'],N,['space'],N,,,,,,,M,20,
4,4,48,3,3,1,['k'],N,['d'],N,None,Y,,,,,,,M,20,
4,5,49,2,2,1,['k'],Y,['k'],N,None,Y,27,31,19,,,,M,20,
4,6,50,7,7,2,['d'],N,['k'],,,,,,,,,,M,20,
4,7,51,10,10,2,['k'],Y,['k'],,,,,,,,,,M,20,
4,8,52,4,4,2,['d'],Y,['d'],Y,None,N,,,,,,,M,20,
4,9,53,0,0,2,['k'],Y,['k'],N,None,Y,,,,,,,M,20,
4,10,54,2,2,2,['d'],N,['k'],Y,['space'],Y,,,,,,,M,20,
5,0,55,8,8,2,['k'],Y,['k'],N,None,Y,,,,,,,M,20,
5,1,56,9,9,2,['k'],N,['d'],N,None,Y,,,,,,,M,20,
5,2,57,2,2,2,['d'],N,['k'],Y,None,N,,,,,,,M,20,
5,3,58,7,7,2,['d'],N,['k'],Y,['space'],Y,,,,,,,M,20,
5,4,59,4,4,2,['k'],Y,['k'],N,None,Y,,,,,,,M,20,
5,5,60,2,2,2,['k'],Y,['k'],Y,['space'],Y,,,,,,,M,20,
5,6,61,4,4,2,['k'],Y,['k'],N,None,Y,,,,,,,M,20,
5,7,62,0,0,2,['d'],N,['k'],Y,None,N,,,,,,,M,20,
5,8,63,8,8,2,['k'],Y,['k'],Y,['space'],Y,,,,,,,M,20,
5,9,64,0,0,2,['k'],N,['d'],Y,None,N,,,,,,,M,20,
5,10,65,9,9,2,['k'],Y,['k'],N,None,Y,,,,,,,M,20,
6,0,66,10,10,2,['k'],N,['d'],N,['space'],N,,,,,,,M,20,
6,1,67,6,6,2,['k'],N,['d'],Y,['space'],Y,,,,,,,M,20,
6,2,68,2,2,2,['d'],N,['k'],N,None,Y,,,,,,,M,20,
6,3,69,1,1,2,['k'],N,['d'],Y,['space'],Y,,,,,,,M,20,
6,4,70,5,5,2,['d'],Y,['d'],Y,None,N,,,,,,,M,20,
6,5,71,3,3,2,['d'],N,['k'],Y,['space'],Y,,,,,,,M,20,
6,6,72,0,0,2,['d'],Y,['d'],N,None,Y,,,,,,,M,20,
6,7,73,8,8,2,['d'],N,['k'],N,None,Y,,,,,,,M,20,
6,8,74,7,7,2,['k'],N,['d'],Y,['k'],N,,,,,,,M,20,
6,9,75,3,3,2,['d'],N,['k'],N,None,Y,,,,,,,M,20,
6,10,76,0,0,2,['k'],Y,['k'],Y,['space'],Y,,,,,,,M,20,
7,0,77,6,6,2,['d'],N,['k'],Y,None,N,,,,,,,M,20,
7,1,78,0,0,2,['k'],N,['d'],Y,['space'],Y,,,,,,,M,20,
7,2,79,3,3,2,['d'],Y,['d'],Y,['space'],Y,,,,,,,M,20,
7,3,80,8,8,2,['d'],N,['k'],Y,['space'],Y,,,,,,,M,20,
7,4,81,7,7,2,['k'],Y,['k'],Y,['space'],Y,,,,,,,M,20,
7,5,82,2,2,2,['d'],N,['k'],N,None,Y,,,,,,,M,20,
7,6,83,0,0,2,['k'],Y,['k'],Y,['space'],Y,,,,,,,M,20,
7,7,84,10,10,2,['d'],Y,['d'],N,None,Y,,,,,,,M,20,
7,8,85,10,10,2,['k'],N,['d'],Y,['space'],Y,,,,,,,M,20,
7,9,86,8,8,2,['k'],Y,['k'],Y,['space'],Y,,,,,,,M,20,
7,10,87,4,4,2,['d'],N,['k'],N,None,Y,,,,,,,M,20,
8,0,88,1,1,2,['k'],Y,['k'],N,None,Y,,,,,,,M,20,
8,1,89,9,9,2,['d'],N,['k'],Y,['space'],Y,,,,,,,M,20,
8,2,90,7,7,2,['k'],N,['d'],Y,['space'],Y,,,,,,,M,20,
8,3,91,7,7,2,['d'],Y,['d'],Y,['space'],Y,,,,,,,M,20,
8,4,92,6,6,2,['k'],N,['d'],N,None,Y,,,,,,,M,20,
8,5,93,4,4,2,['k'],N,['d'],N,['space'],N,,,,,,,M,20,
8,6,94,8,8,2,['d'],N,['k'],N,None,Y,,,,,,,M,20,
8,7,95,1,1,2,['k'],Y,['k'],N,None,Y,,,,,,,M,20,
8,8,96,1,1,2,['d'],N,['k'],N,['space'],N,,,,,,,M,20,
8,9,97,9,9,2,['k'],Y,['k'],N,None,Y,,,,,,,M,20,
8,10,98,9,9,2,['d'],Y,['d'],N,None,Y,,,,,,,M,20,
9,0,99,1,1,2,['d'],Y,['d'],N,None,Y,23,38,25,,,,M,20,
9,1,100,7,7,3,['k'],Y,['k'],,,,,,,,,,M,20,
9,2,101,10,10,3,['d'],Y,['d'],,,,,,,,,,M,20,
9,3,102,4,4,3,['k'],N,['d'],Y,['space'],Y,,,,,,,M,20,
9,4,103,4,4,3,['d'],Y,['d'],Y,['space'],Y,,,,,,,M,20,
9,5,104,10,10,3,['d'],Y,['d'],N,['space'],N,,,,,,,M,20,
9,6,105,10,10,3,['k'],Y,['k'],N,None,Y,,,,,,,M,20,
9,7,106,5,5,3,['k'],N,['d'],Y,['space'],Y,,,,,,,M,20,
9,8,107,9,9,3,['k'],Y,['k'],N,None,Y,,,,,,,M,20,
9,9,108,2,2,3,['k'],N,['d'],N,None,Y,,,,,,,M,20,
9,10,109,5,5,3,['k'],Y,['k'],Y,['space'],Y,,,,,,,M,20,
10,0,110,0,0,3,['k'],Y,['k'],Y,None,N,,,,,,,M,20,
10,1,111,9,9,3,['d'],Y,['d'],Y,['space'],Y,,,,,,,M,20,
10,2,112,9,9,3,['k'],Y,['k'],Y,None,N,,,,,,,M,20,
10,3,113,3,3,3,['k'],Y,['k'],N,None,Y,,,,,,,M,20,
10,4,114,3,3,3,['d'],Y,['d'],Y,None,N,,,,,,,M,20,
10,5,115,10,10,3,['d'],N,['k'],Y,['space'],Y,,,,,,,M,20,
10,6,116,1,1,3,['k'],N,['d'],Y,['space'],Y,,,,,,,M,20,
10,7,117,10,10,3,['k'],Y,['k'],Y,['space'],Y,,,,,,,M,20,
10,8,118,7,7,3,['d'],Y,['d'],N,None,Y,,,,,,,M,20,
10,9,119,8,8,3,['k'],Y,['k'],Y,['space'],Y,,,,,,,M,20,
10,10,120,5,5,3,['d'],N,['k'],N,None,Y,,,,,,,M,20,
11,0,121,10,10,3,['d'],Y,['d'],N,None,Y,,,,,,,M,20,
11,1,122,4,4,3,['k'],Y,['k'],Y,['space'],Y,,,,,,,M,20,
11,2,123,7,7,3,['d'],Y,['d'],N,None,Y,,,,,,,M,20,
11,3,124,9,9,3,['k'],N,['d'],N,None,Y,,,,,,,M,20,
11,4,125,8,8,3,['d'],Y,['d'],Y,['space'],Y,,,,,,,M,20,
11,5,126,1,1,3,['k'],Y,['k'],Y,['space'],Y,,,,,,,M,20,
11,6,127,4,4,3,['d'],N,['k'],N,None,Y,,,,,,,M,20,
11,7,128,2,2,3,['k'],Y,['k'],N,None,Y,,,,,,,M,20,
11,8,129,9,9,3,['d'],N,['k'],N,['space'],N,,,,,,,M,20,
11,9,130,6,6,3,['d'],N,['k'],N,None,Y,,,,,,,M,20,
11,10,131,3,3,3,['d'],Y,['d'],Y,['space'],Y,,,,,,,M,20,
12,0,132,2,2,3,['k'],Y,['k'],Y,['space'],Y,,,,,,,M,20,
12,1,133,7,7,3,['k'],N,['d'],N,None,Y,,,,,,,M,20,
12,2,134,4,4,3,['d'],N,['k'],N,['space'],N,,,,,,,M,20,
12,3,135,10,10,3,['k'],Y,['k'],N,None,Y,,,,,,,M,20,
12,4,136,7,7,3,['k'],N,['d'],N,['space'],N,,,,,,,M,20,
12,5,137,10,10,3,['d'],N,['k'],Y,['space'],Y,,,,,,,M,20,
12,6,138,2,2,3,['k'],N,['d'],Y,['space'],Y,,,,,,,M,20,
12,7,139,4,4,3,['k'],Y,['k'],Y,['space'],Y,,,,,,,M,20,
12,8,140,5,5,3,['k'],N,['d'],Y,None,N,,,,,,,M,20,
12,9,141,4,4,3,['d'],Y,['d'],N,None,Y,,,,,,,M,20,
12,10,142,2,2,3,['d'],Y,['d'],Y,['space'],Y,,,,,,,M,20,
13,0,143,5,5,3,['k'],Y,['k'],Y,['space'],Y,,,,,,,M,20,
13,1,144,5,5,3,['k'],Y,['k'],N,None,Y,,,,,,,M,20,
13,2,145,3,3,3,['d'],Y,['d'],N,None,Y,,,,,,,M,20,
13,3,146,1,1,3,['k'],N,['d'],Y,['space'],Y,,,,,,,M,20,
13,4,147,8,8,3,['d'],N,['k'],Y,['space'],Y,,,,,,,M,20,
13,5,148,6,6,3,['k'],Y,['k'],N,None,Y,,,,,,,M,20,
13,6,149,3,3,3,['d'],Y,['d'],N,None,Y,32,40,25,,,,M,20,
13,7,150,7,7,4,['k'],N,['d'],,,,,,,,,,M,20,
13,8,151,0,0,4,['k'],N,['d'],,,,,,,,,,M,20,
13,9,152,0,0,4,['d'],N,['k'],Y,['lalt'],N,,,,,,,M,20,
13,10,153,5,5,4,['k'],Y,['k'],Y,['space'],Y,,,,,,,M,20,
14,0,154,6,6,4,['d'],N,['k'],N,None,Y,,,,,,,M,20,
14,1,155,2,2,4,['k'],N,['d'],Y,['space'],Y,,,,,,,M,20,
14,2,156,6,6,4,['d'],N,['k'],Y,['space'],Y,,,,,,,M,20,
14,3,157,10,10,4,['k'],N,['d'],Y,['space'],Y,,,,,,,M,20,
14,4,158,2,2,4,['d'],N,['k'],Y,['space'],Y,,,,,,,M,20,
14,5,159,10,10,4,['k'],Y,['k'],Y,['space'],Y,,,,,,,M,20,
14,6,160,8,8,4,['d'],N,['k'],Y,None,N,,,,,,,M,20,
14,7,161,2,2,4,['k'],Y,['k'],Y,['space'],Y,,,,,,,M,20,
14,8,162,4,4,4,['d'],Y,['d'],N,None,Y,,,,,,,M,20,
14,9,163,8,8,4,['k'],N,['d'],Y,['space'],Y,,,,,,,M,20,
14,10,164,3,3,4,['d'],N,['k'],Y,['space'],Y,,,,,,,M,20,
15,0,165,7,7,4,['k'],N,['d'],Y,['space'],Y,,,,,,,M,20,
15,1,166,3,3,4,['d'],Y,['d'],N,None,Y,,,,,,,M,20,
15,2,167,8,8,4,['k'],N,['d'],Y,['space'],Y,,,,,,,M,20,
15,3,168,6,6,4,['d'],Y,['d'],Y,None,N,,,,,,,M,20,
15,4,169,6,6,4,['k'],N,['d'],Y,['space'],Y,,,,,,,M,20,
15,5,170,0,0,4,['d'],Y,['d'],N,None,Y,,,,,,,M,20,
15,6,171,3,3,4,['d'],N,['k'],Y,None,N,,,,,,,M,20,
15,7,172,2,2,4,['k'],N,['d'],N,None,Y,,,,,,,M,20,
15,8,173,9,9,4,['d'],N,['k'],N,None,Y,,,,,,,M,20,
15,9,174,0,0,4,['k'],N,['d'],N,None,Y,,,,,,,M,20,
15,10,175,8,8,4,['d'],Y,['d'],Y,None,N,,,,,,,M,20,
16,0,176,2,2,4,['k'],Y,['k'],Y,None,N,,,,,,,M,20,
16,1,177,3,3,4,['d'],N,['k'],N,['space'],N,,,,,,,M,20,
16,2,178,4,4,4,['d'],Y,['d'],N,None,Y,,,,,,,M,20,
16,3,179,4,4,4,['k'],N,['d'],N,None,Y,,,,,,,M,20,
16,4,180,7,7,4,['d'],Y,['d'],N,None,Y,,,,,,,M,20,
16,5,181,2,2,4,['k'],N,['d'],N,None,Y,,,,,,,M,20,
16,6,182,4,4,4,['d'],N,['k'],N,['space'],N,,,,,,,M,20,
16,7,183,8,8,4,['d'],N,['k'],Y,['space'],Y,,,,,,,M,20,
16,8,184,9,9,4,['d'],Y,['d'],Y,['space'],Y,,,,,,,M,20,
16,9,185,4,4,4,['k'],Y,['k'],Y,['space'],Y,,,,,,,M,20,
16,10,186,1,1,4,['d'],N,['k'],N,None,Y,,,,,,,M,20,
17,0,187,8,8,4,['k'],Y,['k'],N,None,Y,,,,,,,M,20,
17,1,188,5,5,4,['d'],N,['k'],N,None,Y,,,,,,,M,20,
17,2,189,8,8,4,['k'],N,['d'],N,['space'],N,,,,,,,M,20,
17,3,190,6,6,4,['d'],Y,['d'],N,None,Y,,,,,,,M,20,
17,4,191,3,3,4,['d'],Y,['d'],Y,None,N,,,,,,,M,20,
17,5,192,5,5,4,['d'],Y,['d'],N,['space'],N,,,,,,,M,20,
17,6,193,6,6,4,['k'],Y,['k'],Y,['space'],Y,,,,,,,M,20,
17,7,194,2,2,4,['d'],Y,['d'],N,None,Y,,,,,,,M,20,
17,8,195,2,2,4,['d'],Y,['d'],Y,['space'],Y,,,,,,,M,20,
17,9,196,6,6,4,['d'],Y,['d'],N,None,Y,,,,,,,M,20,
17,10,197,10,10,4,['d'],Y,['d'],N,None,Y,,,,,,,M,20,
18,0,198,3,3,4,['k'],Y,['k'],N,None,Y,,,,,,,M,20,
18,1,199,0,0,4,['k'],Y,['k'],Y,['space'],Y,24,37,25,,,,M,20,
18,2,200,2,2,5,['d'],Y,['d'],,,,,,,,,,M,20,
18,3,201,8,8,5,['d'],Y,['d'],,,,,,,,,,M,20,
18,4,202,1,1,5,['d'],Y,['d'],Y,['space'],Y,,,,,,,M,20,
18,5,203,4,4,5,['k'],Y,['k'],Y,['space'],Y,,,,,,,M,20,
18,6,204,1,1,5,['d'],Y,['d'],N,None,Y,,,,,,,M,20,
18,7,205,6,6,5,['k'],Y,['k'],N,None,Y,,,,,,,M,20,
18,8,206,8,8,5,['d'],Y,['d'],Y,['space'],Y,,,,,,,M,20,
18,9,207,8,8,5,['k'],Y,['k'],Y,['space'],Y,,,,,,,M,20,
18,10,208,10,10,5,['d'],Y,['d'],N,None,Y,,,,,,,M,20,
19,0,209,7,7,5,['k'],Y,['k'],Y,['space'],Y,,,,,,,M,20,
19,1,210,6,6,5,['d'],Y,['d'],N,['space'],N,,,,,,,M,20,
19,2,211,2,2,5,['k'],Y,['k'],Y,['space'],Y,,,,,,,M,20,
19,3,212,3,3,5,['d'],Y,['d'],Y,['space'],Y,,,,,,,M,20,
19,4,213,7,7,5,['k'],Y,['k'],Y,['space'],Y,,,,,,,M,20,
19,5,214,8,8,5,['d'],Y,['d'],N,None,Y,,,,,,,M,20,
19,6,215,3,3,5,['k'],Y,['k'],Y,['space'],Y,,,,,,,M,20,
19,7,216,3,3,5,['k'],Y,['k'],N,None,Y,,,,,,,M,20,
19,8,217,9,9,5,['d'],Y,['d'],Y,['space'],Y,,,,,,,M,20,
19,9,218,6,6,5,['k'],Y,['k'],Y,None,N,,,,,,,M,20,
19,10,219,2,2,5,['d'],Y,['d'],N,['space'],N,,,,,,,M,20,
20,0,220,6,6,5,['d'],Y,['d'],N,['space'],N,,,,,,,M,20,
20,1,221,7,7,5,['k'],Y,['k'],N,None,Y,,,,,,,M,20,
20,2,222,10,10,5,['d'],Y,['d'],Y,['space'],Y,,,,,,,M,20,
20,3,223,9,9,5,['d'],Y,['d'],Y,['space'],Y,,,,,,,M,20,
20,4,224,10,10,5,['k'],Y,['k'],N,None,Y,,,,,,,M,20,
20,5,225,7,7,5,['d'],Y,['d'],Y,['space'],Y,,,,,,,M,20,
20,6,226,4,4,5,['d'],Y,['d'],Y,['space'],Y,,,,,,,M,20,
20,7,227,7,7,5,['d'],Y,['d'],Y,['space'],Y,,,,,,,M,20,
20,8,228,7,7,5,['d'],N,['k'],N,None,Y,,,,,,,M,20,
20,9,229,5,5,5,['k'],Y,['k'],N,None,Y,,,,,,,M,20,
20,10,230,5,5,5,['k'],Y,['k'],Y,['space'],Y,,,,,,,M,20,
21,0,231,1,1,5,['d'],Y,['d'],N,None,Y,,,,,,,M,20,
21,1,232,7,7,5,['k'],Y,['k'],Y,['space'],Y,,,,,,,M,20,
21,2,233,3,3,5,['k'],Y,['k'],N,['space'],N,,,,,,,M,20,
21,3,234,8,8,5,['k'],Y,['k'],Y,['space'],Y,,,,,,,M,20,
21,4,235,5,5,5,['k'],Y,['k'],N,['space'],N,,,,,,,M,20,
21,5,236,10,10,5,['k'],Y,['k'],N,None,Y,,,,,,,M,20,
21,6,237,6,6,5,['d'],N,['k'],Y,['space'],Y,,,,,,,M,20,
21,7,238,10,10,5,['k'],Y,['k'],Y,['space'],Y,,,,,,,M,20,
21,8,239,3,3,5,['k'],Y,['k'],Y,['space'],Y,,,,,,,M,20,
21,9,240,4,4,5,['d'],Y,['d'],N,None,Y,,,,,,,M,20,
21,10,241,0,0,5,['d'],Y,['d'],N,None,Y,,,,,,,M,20,
22,0,242,4,4,5,['k'],Y,['k'],N,None,Y,,,,,,,M,20,
22,1,243,8,8,5,['k'],Y,['k'],Y,None,N,,,,,,,M,20,
22,2,244,5,5,5,['k'],Y,['k'],N,['space'],N,,,,,,,M,20,
22,3,245,1,1,5,['d'],Y,['d'],Y,['space'],Y,,,,,,,M,20,
22,4,246,7,7,5,['k'],Y,['k'],N,['space'],N,,,,,,,M,20,
22,5,247,3,3,5,['d'],N,['k'],N,None,Y,,,,,,,M,20,
22,6,248,7,7,5,['d'],Y,['d'],N,None,Y,,,,,,,M,20,
22,7,249,5,5,5,['d'],N,['k'],N,None,Y,46,39,24,,,,M,20,
22,8,250,2,2,6,['d'],Y,['d'],,,,,,,,,,M,20,
22,9,251,4,4,6,['d'],Y,['d'],,,,,,,,,,M,20,
22,10,252,4,4,6,['d'],Y,['d'],N,['space'],N,,,,,,,M,20,
23,0,253,5,5,6,['k'],Y,['k'],Y,['space'],Y,,,,,,,M,20,
23,1,254,9,9,6,['d'],Y,['d'],N,None,Y,,,,,,,M,20,
23,2,255,0,0,6,['k'],Y,['k'],Y,['space'],Y,,,,,,,M,20,
23,3,256,0,0,6,['k'],Y,['k'],Y,['space'],Y,,,,,,,M,20,
23,4,257,8,8,6,['d'],Y,['d'],Y,['space'],Y,,,,,,,M,20,
23,5,258,1,1,6,['k'],Y,['k'],N,None,Y,,,,,,,M,20,
23,6,259,6,6,6,['d'],Y,['d'],Y,['space'],Y,,,,,,,M,20,
23,7,260,1,1,6,['d'],Y,['d'],N,None,Y,,,,,,,M,20,
23,8,261,9,9,6,['d'],Y,['d'],Y,['space'],Y,,,,,,,M,20,
23,9,262,8,8,6,['d'],N,['k'],N,None,Y,,,,,,,M,20,
23,10,263,3,3,6,['k'],Y,['k'],N,None,Y,,,,,,,M,20,
24,0,264,6,6,6,['k'],Y,['k'],Y,['space'],Y,,,,,,,M,20,
24,1,265,4,4,6,['d'],Y,['d'],Y,['space'],Y,,,,,,,M,20,
24,2,266,10,10,6,['k'],Y,['k'],Y,['space'],Y,,,,,,,M,20,
24,3,267,5,5,6,['k'],Y,['k'],N,None,Y,,,,,,,M,20,
24,4,268,7,7,6,['k'],Y,['k'],N,None,Y,,,,,,,M,20,
24,5,269,4,4,6,['k'],Y,['k'],Y,['space'],Y,,,,,,,M,20,
24,6,270,5,5,6,['d'],N,['k'],N,['space'],N,,,,,,,M,20,
24,7,271,9,9,6,['d'],Y,['d'],N,None,Y,,,,,,,M,20,
24,8,272,0,0,6,['d'],N,['k'],N,None,Y,,,,,,,M,20,
24,9,273,4,4,6,['k'],Y,['k'],Y,None,N,,,,,,,M,20,
24,10,274,5,5,6,['d'],Y,['d'],Y,['space'],Y,,,,,,,M,20,
25,0,275,0,0,6,['k'],Y,['k'],Y,None,N,,,,,,,M,20,
25,1,276,0,0,6,['d'],Y,['d'],Y,['space'],Y,,,,,,,M,20,
25,2,277,5,5,6,['k'],Y,['k'],Y,['space'],Y,,,,,,,M,20,
25,3,278,5,5,6,['k'],Y,['k'],Y,['space'],Y,,,,,,,M,20,
25,4,279,2,2,6,['d'],Y,['d'],Y,['space'],Y,,,,,,,M,20,
25,5,280,0,0,6,['d'],Y,['d'],N,None,Y,,,,,,,M,20,
25,6,281,7,7,6,['d'],Y,['d'],Y,['space'],Y,,,,,,,M,20,
25,7,282,1,1,6,['d'],Y,['d'],Y,['space'],Y,,,,,,,M,20,
25,8,283,8,8,6,['d'],Y,['d'],Y,['space'],Y,,,,,,,M,20,
25,9,284,4,4,6,['d'],Y,['d'],Y,['space'],Y,,,,,,,M,20,
25,10,285,3,3,6,['d'],Y,['d'],N,None,Y,,,,,,,M,20,
26,0,286,4,4,6,['d'],Y,['d'],N,None,Y,,,,,,,M,20,
26,1,287,5,5,6,['k'],Y,['k'],N,None,Y,,,,,,,M,20,
26,2,288,0,0,6,['k'],Y,['k'],N,None,Y,,,,,,,M,20,
26,3,289,5,5,6,['k'],Y,['k'],Y,['space'],Y,,,,,,,M,20,
26,4,290,7,7,6,['k'],Y,['k'],Y,['space'],Y,,,,,,,M,20,
26,5,291,0,0,6,['d'],Y,['d'],Y,['space'],Y,,,,,,,M,20,
26,6,292,2,2,6,['k'],Y,['k'],N,None,Y,,,,,,,M,20,
26,7,293,3,3,6,['d'],Y,['d'],N,None,Y,,,,,,,M,20,
26,8,294,10,10,6,['d'],Y,['d'],Y,['space'],Y,,,,,,,M,20,
26,9,295,3,3,6,['k'],Y,['k'],N,None,Y,,,,,,,M,20,
26,10,296,7,7,6,['d'],Y,['d'],N,None,Y,,,,,,,M,20,
27,0,297,3,3,6,['k'],Y,['k'],N,None,Y,,,,,,,M,20,
27,1,298,6,6,6,['d'],Y,['d'],N,None,Y,,,,,,,M,20,
27,2,299,9,9,6,['d'],Y,['d'],N,None,Y,47,44,25,,,,M,20,
27,3,300,0,0,7,['d'],N,['k'],,,,,,,,,,M,20,
27,4,301,7,7,7,['d'],Y,['d'],,,,,,,,,,M,20,
27,5,302,6,6,7,['d'],Y,['d'],N,None,Y,,,,,,,M,20,
27,6,303,10,10,7,['k'],Y,['k'],N,None,Y,,,,,,,M,20,
27,7,304,5,5,7,['k'],Y,['k'],N,None,Y,,,,,,,M,20,
27,8,305,5,5,7,['k'],Y,['k'],N,None,Y,,,,,,,M,20,
27,9,306,9,9,7,['k'],Y,['k'],N,None,Y,,,,,,,M,20,
27,10,307,1,1,7,['k'],Y,['k'],Y,['space'],Y,,,,,,,M,20,
28,0,308,1,1,7,['k'],Y,['k'],Y,['space'],Y,,,,,,,M,20,
28,1,309,10,10,7,['d'],Y,['d'],N,None,Y,,,,,,,M,20,
28,2,310,0,0,7,['k'],Y,['k'],Y,['space'],Y,,,,,,,M,20,
28,3,311,10,10,7,['k'],Y,['k'],N,None,Y,,,,,,,M,20,
28,4,312,8,8,7,['d'],Y,['d'],N,None,Y,,,,,,,M,20,
28,5,313,4,4,7,['k'],Y,['k'],N,None,Y,,,,,,,M,20,
28,6,314,10,10,7,['d'],Y,['d'],Y,['space'],Y,,,,,,,M,20,
28,7,315,7,7,7,['d'],Y,['d'],N,None,Y,,,,,,,M,20,
28,8,316,2,2,7,['d'],Y,['d'],N,None,Y,,,,,,,M,20,
28,9,317,7,7,7,['d'],Y,['d'],Y,['space'],Y,,,,,,,M,20,
28,10,318,0,0,7,['d'],Y,['d'],Y,['space'],Y,,,,,,,M,20,
29,0,319,0,0,7,['d'],Y,['d'],N,None,Y,,,,,,,M,20,
29,1,320,6,6,7,['k'],Y,['k'],N,None,Y,,,,,,,M,20,
29,2,321,7,7,7,['k'],Y,['k'],Y,['space'],Y,,,,,,,M,20,
29,3,322,1,1,7,['d'],Y,['d'],Y,['space'],Y,,,,,,,M,20,
29,4,323,1,1,7,['k'],Y,['k'],N,None,Y,,,,,,,M,20,
29,5,324,4,4,7,['d'],N,['k'],N,None,Y,,,,,,,M,20,
29,6,325,8,8,7,['k'],Y,['k'],N,None,Y,,,,,,,M,20,
29,7,326,5,5,7,['d'],Y,['d'],N,None,Y,,,,,,,M,20,
29,8,327,7,7,7,['k'],Y,['k'],Y,['space'],Y,,,,,,,M,20,
29,9,328,4,4,7,['d'],Y,['d'],N,['space'],N,,,,,,,M,20,
29,10,329,1,1,7,['k'],Y,['k'],N,None,Y,,,,,,,M,20,
30,0,330,8,8,7,['k'],Y,['k'],Y,['space'],Y,,,,,,,M,20,
30,1,331,8,8,7,['d'],Y,['d'],Y,['space'],Y,,,,,,,M,20,
30,2,332,6,6,7,['k'],Y,['k'],Y,['space'],Y,,,,,,,M,20,
30,3,333,1,1,7,['d'],Y,['d'],Y,['space'],Y,,,,,,,M,20,
30,4,334,7,7,7,['k'],Y,['k'],N,None,Y,,,,,,,M,20,
30,5,335,10,10,7,['d'],N,['k'],N,None,Y,,,,,,,M,20,
30,6,336,7,7,7,['k'],Y,['k'],N,None,Y,,,,,,,M,20,
30,7,337,5,5,7,['d'],Y,['d'],N,None,Y,,,,,,,M,20,
30,8,338,4,4,7,['d'],Y,['d'],N,None,Y,,,,,,,M,20,
30,9,339,10,10,7,['k'],Y,['k'],N,None,Y,,,,,,,M,20,
30,10,340,4,4,7,['k'],Y,['k'],N,None,Y,,,,,,,M,20,
31,0,341,8,8,7,['d'],Y,['d'],N,None,Y,,,,,,,M,20,
31,1,342,8,8,7,['k'],Y,['k'],Y,['space'],Y,,,,,,,M,20,
31,2,343,5,5,7,['d'],N,['k'],N,None,Y,,,,,,,M,20,
31,3,344,1,1,7,['k'],Y,['k'],Y,['space'],Y,,,,,,,M,20,
31,4,345,7,7,7,['k'],Y,['k'],Y,['space'],Y,,,,,,,M,20,
31,5,346,1,1,7,['d'],Y,['d'],N,None,Y,,,,,,,M,20,
31,6,347,1,1,7,['k'],Y,['k'],Y,['space'],Y,,,,,,,M,20,
31,7,348,1,1,7,['d'],Y,['d'],N,None,Y,,,,,,,M,20,
31,8,349,9,9,7,['k'],N,['d'],N,None,Y,45,47,17,,,,M,20,
31,9,350,2,2,8,['d'],Y,['d'],,,,,,,,,,M,20,
31,10,351,0,0,8,['k'],Y,['k'],,,,,,,,,,M,20,
32,0,352,10,10,8,['k'],Y,['k'],Y,None,N,,,,,,,M,20,
32,1,353,0,0,8,['k'],Y,['k'],Y,['space'],Y,,,,,,,M,20,
32,2,354,8,8,8,['d'],Y,['d'],Y,['space'],Y,,,,,,,M,20,
32,3,355,2,2,8,['k'],Y,['k'],Y,['space'],Y,,,,,,,M,20,
32,4,356,0,0,8,['k'],Y,['k'],N,None,Y,,,,,,,M,20,
32,5,357,9,9,8,['k'],Y,['k'],N,None,Y,,,,,,,M,20,
32,6,358,1,1,8,['d'],Y,['d'],N,None,Y,,,,,,,M,20,
32,7,359,3,3,8,['k'],Y,['k'],Y,['space'],Y,,,,,,,M,20,
32,8,360,1,1,8,['d'],Y,['d'],Y,['space'],Y,,,,,,,M,20,
32,9,361,6,6,8,['k'],Y,['k'],N,None,Y,,,,,,,M,20,
32,10,362,4,4,8,['d'],Y,['d'],N,None,Y,,,,,,,M,20,
33,0,363,10,10,8,['k'],Y,['k'],Y,['space'],Y,,,,,,,M,20,
33,1,364,8,8,8,['k'],Y,['k'],Y,None,N,,,,,,,M,20,
33,2,365,0,0,8,['d'],Y,['d'],Y,None,N,,,,,,,M,20,
33,3,366,7,7,8,['k'],N,['d'],Y,['space'],Y,,,,,,,M,20,
33,4,367,4,4,8,['d'],Y,['d'],N,None,Y,,,,,,,M,20,
33,5,368,6,6,8,['d'],Y,['d'],N,None,Y,,,,,,,M,20,
33,6,369,10,10,8,['d'],Y,['d'],Y,['space'],Y,,,,,,,M,20,
33,7,370,1,1,8,['d'],Y,['d'],Y,['space'],Y,,,,,,,M,20,
33,8,371,10,10,8,['d'],Y,['d'],N,None,Y,,,,,,,M,20,
33,9,372,2,2,8,['k'],Y,['k'],Y,['space'],Y,,,,,,,M,20,
33,10,373,2,2,8,['d'],Y,['d'],Y,['k'],N,,,,,,,M,20,
34,0,374,6,6,8,['k'],N,['d'],Y,['space'],Y,,,,,,,M,20,
34,1,375,4,4,8,['d'],Y,['d'],N,None,Y,,,,,,,M,20,
34,2,376,9,9,8,['k'],Y,['k'],Y,['d'],N,,,,,,,M,20,
34,3,377,1,1,8,['d'],Y,['d'],N,None,Y,,,,,,,M,20,
34,4,378,8,8,8,['d'],Y,['d'],Y,None,N,,,,,,,M,20,
34,5,379,9,9,8,['d'],Y,['d'],N,None,Y,,,,,,,M,20,
34,6,380,9,9,8,['k'],Y,['k'],N,None,Y,,,,,,,M,20,
34,7,381,2,2,8,['d'],Y,['d'],Y,['space'],Y,,,,,,,M,20,
34,8,382,6,6,8,['d'],Y,['d'],N,None,Y,,,,,,,M,20,
34,9,383,10,10,8,['k'],Y,['k'],Y,['space'],Y,,,,,,,M,20,
34,10,384,5,5,8,['d'],Y,['d'],N,None,Y,,,,,,,M,20,
35,0,385,9,9,8,['d'],Y,['d'],Y,['space'],Y,,,,,,,M,20,
35,1,386,6,6,8,['k'],Y,['k'],Y,['space'],Y,,,,,,,M,20,
35,2,387,8,8,8,['d'],Y,['d'],Y,['space'],Y,,,,,,,M,20,
35,3,388,0,0,8,['k'],Y,['k'],Y,['space'],Y,,,,,,,M,20,
35,4,389,9,9,8,['d'],Y,['d'],N,None,Y,,,,,,,M,20,
35,5,390,0,0,8,['k'],Y,['k'],Y,['space'],Y,,,,,,,M,20,
35,6,391,3,3,8,['d'],Y,['d'],N,None,Y,,,,,,,M,20,
35,7,392,2,2,8,['k'],Y,['k'],N,None,Y,,,,,,,M,20,
35,8,393,1,1,8,['d'],Y,['d'],N,None,Y,,,,,,,M,20,
35,9,394,9,9,8,['k'],Y,['k'],N,None,Y,,,,,,,M,20,
35,10,395,2,2,8,['d'],N,['k'],N,None,Y,,,,,,,M,20,
36,0,396,10,10,8,['k'],Y,['k'],N,None,Y,,,,,,,M,20,
36,1,397,5,5,8,['k'],Y,['k'],Y,['space'],Y,,,,,,,M,20,
36,2,398,7,7,8,['d'],N,['k'],N,None,Y,,,,,,,M,20,
36,3,399,0,0,8,['d'],Y,['d'],N,None,Y,46,42,25,,,,M,20,
36,4,400,9,9,9,['d'],Y,['d'],,,,,,,,,,M,20,
36,5,401,1,1,9,['d'],Y,['d'],,,,,,,,,,M,20,
36,6,402,2,2,9,['k'],Y,['k'],N,None,Y,,,,,,,M,20,
36,7,403,1,1,9,['d'],Y,['d'],N,None,Y,,,,,,,M,20,
36,8,404,2,2,9,['d'],Y,['d'],N,None,Y,,,,,,,M,20,
36,9,405,9,9,9,['d'],Y,['d'],N,None,Y,,,,,,,M,20,
36,10,406,3,3,9,['k'],Y,['k'],N,None,Y,,,,,,,M,20,
37,0,407,2,2,9,['k'],Y,['k'],Y,['space'],Y,,,,,,,M,20,
37,1,408,1,1,9,['d'],N,['k'],N,None,Y,,,,,,,M,20,
37,2,409,9,9,9,['k'],Y,['k'],Y,['space'],Y,,,,,,,M,20,
37,3,410,3,3,9,['d'],Y,['d'],N,None,Y,,,,,,,M,20,
37,4,411,1,1,9,['d'],Y,['d'],Y,['space'],Y,,,,,,,M,20,
37,5,412,1,1,9,['d'],Y,['d'],Y,['space'],Y,,,,,,,M,20,
37,6,413,5,5,9,['k'],Y,['k'],N,None,Y,,,,,,,M,20,
37,7,414,2,2,9,['d'],Y,['d'],Y,['space'],Y,,,,,,,M,20,
37,8,415,0,0,9,['k'],Y,['k'],Y,['space'],Y,,,,,,,M,20,
37,9,416,3,3,9,['d'],Y,['d'],N,None,Y,,,,,,,M,20,
37,10,417,8,8,9,['d'],Y,['d'],Y,['space'],Y,,,,,,,M,20,
38,0,418,4,4,9,['d'],Y,['d'],Y,['space'],Y,,,,,,,M,20,
38,1,419,5,5,9,['d'],Y,['d'],Y,['space'],Y,,,,,,,M,20,
38,2,420,0,0,9,['k'],N,['d'],Y,['space'],Y,,,,,,,M,20,
38,3,421,3,3,9,['d'],Y,['d'],N,None,Y,,,,,,,M,20,
38,4,422,2,2,9,['k'],Y,['k'],Y,['space'],Y,,,,,,,M,20,
38,5,423,3,3,9,['d'],Y,['d'],Y,['space'],Y,,,,,,,M,20,
38,6,424,5,5,9,['k'],Y,['k'],Y,['space'],Y,,,,,,,M,20,
38,7,425,9,9,9,['k'],Y,['k'],Y,['space'],Y,,,,,,,M,20,
38,8,426,3,3,9,['d'],Y,['d'],N,['space'],N,,,,,,,M,20,
38,9,427,6,6,9,['d'],Y,['d'],N,None,Y,,,,,,,M,20,
38,10,428,3,3,9,['d'],Y,['d'],Y,['space'],Y,,,,,,,M,20,
39,0,429,6,6,9,['k'],Y,['k'],N,['space'],N,,,,,,,M,20,
39,1,430,7,7,9,['k'],Y,['k'],Y,None,N,,,,,,,M,20,
39,2,431,10,10,9,['k'],Y,['k'],N,None,Y,,,,,,,M,20,
39,3,432,5,5,9,['k'],Y,['k'],N,None,Y,,,,,,,M,20,
39,4,433,8,8,9,['d'],Y,['d'],N,None,Y,,,,,,,M,20,
39,5,434,0,0,9,['d'],Y,['d'],Y,['space'],Y,,,,,,,M,20,
39,6,435,6,6,9,['k'],N,['d'],N,None,Y,,,,,,,M,20,
39,7,436,3,3,9,['d'],Y,['d'],Y,['space'],Y,,,,,,,M,20,
39,8,437,3,3,9,['d'],Y,['d'],Y,['space'],Y,,,,,,,M,20,
39,9,438,10,10,9,['k'],Y,['k'],Y,['space'],Y,,,,,,,M,20,
39,10,439,5,5,9,['d'],Y,['d'],N,None,Y,,,,,,,M,20,
40,0,440,6,6,9,['k'],Y,['k'],Y,['space'],Y,,,,,,,M,20,
40,1,441,5,5,9,['k'],Y,['k'],Y,['space'],Y,,,,,,,M,20,
40,2,442,1,1,9,['d'],N,['k'],N,None,Y,,,,,,,M,20,
40,3,443,7,7,9,['d'],Y,['d'],Y,['space'],Y,,,,,,,M,20,
40,4,444,2,2,9,['k'],Y,['k'],N,None,Y,,,,,,,M,20,
40,5,445,1,1,9,['d'],Y,['d'],Y,['space'],Y,,,,,,,M,20,
40,6,446,6,6,9,['k'],Y,['k'],Y,['space'],Y,,,,,,,M,20,
40,7,447,2,2,9,['d'],Y,['d'],N,None,Y,,,,,,,M,20,
40,8,448,7,7,9,['d'],Y,['d'],N,None,Y,,,,,,,M,20,
40,9,449,3,3,9,['d'],Y,['d'],N,None,Y,46,45,25,,,,M,20,
40,10,450,6,6,10,['k'],Y,['k'],,,,,,,,,,M,20,
41,0,451,3,3,10,['d'],Y,['d'],,,,,,,,,,M,20,
41,1,452,9,9,10,['d'],Y,['d'],Y,['space'],Y,,,,,,,M,20,
41,2,453,7,7,10,['d'],Y,['d'],N,None,Y,,,,,,,M,20,
41,3,454,8,8,10,['d'],Y,['d'],N,None,Y,,,,,,,M,20,
41,4,455,8,8,10,['d'],Y,['d'],Y,['space'],Y,,,,,,,M,20,
41,5,456,5,5,10,['k'],Y,['k'],N,None,Y,,,,,,,M,20,
41,6,457,7,7,10,['d'],Y,['d'],N,None,Y,,,,,,,M,20,
41,7,458,10,10,10,['k'],Y,['k'],Y,['space'],Y,,,,,,,M,20,
41,8,459,7,7,10,['d'],N,['k'],Y,['space'],Y,,,,,,,M,20,
41,9,460,0,0,10,['d'],Y,['d'],N,None,Y,,,,,,,M,20,
41,10,461,3,3,10,['k'],Y,['k'],N,None,Y,,,,,,,M,20,
42,0,462,4,4,10,['d'],Y,['d'],Y,['space'],Y,,,,,,,M,20,
42,1,463,5,5,10,['d'],Y,['d'],Y,['space'],Y,,,,,,,M,20,
42,2,464,1,1,10,['d'],Y,['d'],Y,None,N,,,,,,,M,20,
42,3,465,3,3,10,['k'],Y,['k'],Y,None,N,,,,,,,M,20,
42,4,466,3,3,10,['k'],Y,['k'],Y,['space'],Y,,,,,,,M,20,
42,5,467,10,10,10,['d'],Y,['d'],Y,['space'],Y,,,,,,,M,20,
42,6,468,6,6,10,['k'],Y,['k'],Y,['space'],Y,,,,,,,M,20,
42,7,469,5,5,10,['k'],Y,['k'],Y,['space'],Y,,,,,,,M,20,
42,8,470,3,3,10,['k'],Y,['k'],Y,['space'],Y,,,,,,,M,20,
42,9,471,8,8,10,['d'],Y,['d'],Y,['space'],Y,,,,,,,M,20,
42,10,472,4,4,10,['d'],Y,['d'],N,['space'],N,,,,,,,M,20,
43,0,473,5,5,10,['k'],Y,['k'],Y,['space'],Y,,,,,,,M,20,
43,1,474,0,0,10,['d'],Y,['d'],N,None,Y,,,,,,,M,20,
43,2,475,9,9,10,['d'],Y,['d'],Y,['space'],Y,,,,,,,M,20,
43,3,476,5,5,10,['d'],Y,['d'],Y,None,N,,,,,,,M,20,
43,4,477,8,8,10,['d'],Y,['d'],Y,['space'],Y,,,,,,,M,20,
43,5,478,9,9,10,['d'],Y,['d'],Y,['space'],Y,,,,,,,M,20,
43,6,479,3,3,10,['k'],Y,['k'],N,None,Y,,,,,,,M,20,
43,7,480,9,9,10,['k'],Y,['k'],N,None,Y,,,,,,,M,20,
43,8,481,2,2,10,['d'],Y,['d'],Y,['space'],Y,,,,,,,M,20,
43,9,482,6,6,10,['k'],Y,['k'],N,None,Y,,,,,,,M,20,
43,10,483,6,6,10,['k'],Y,['k'],Y,['space'],Y,,,,,,,M,20,
44,0,484,1,1,10,['d'],Y,['d'],N,None,Y,,,,,,,M,20,
44,1,485,7,7,10,['k'],Y,['k'],N,None,Y,,,,,,,M,20,
44,2,486,4,4,10,['d'],Y,['d'],Y,['space'],Y,,,,,,,M,20,
44,3,487,3,3,10,['d'],Y,['d'],Y,['space'],Y,,,,,,,M,20,
44,4,488,7,7,10,['d'],Y,['d'],Y,['space'],Y,,,,,,,M,20,
44,5,489,4,4,10,['k'],N,['d'],Y,['space'],Y,,,,,,,M,20,
44,6,490,3,3,10,['d'],Y,['d'],N,None,Y,,,,,,,M,20,
44,7,491,6,6,10,['d'],Y,['d'],N,None,Y,,,,,,,M,20,
44,8,492,0,0,10,['k'],Y,['k'],N,None,Y,,,,,,,M,20,
44,9,493,1,1,10,['k'],Y,['k'],N,None,Y,,,,,,,M,20,
44,10,494,10,10,10,['d'],Y,['d'],N,None,Y,,,,,,,M,20,
45,0,495,9,9,10,['k'],Y,['k'],N,None,Y,,,,,,,M,20,
45,1,496,2,2,10,['d'],Y,['d'],N,None,Y,,,,,,,M,20,
45,2,497,3,3,10,['k'],Y,['k'],N,None,Y,,,,,,,M,20,
45,3,498,9,9,10,['k'],Y,['k'],N,['space'],N,,,,,,,M,20,
45,4,499,0,0,10,['d'],Y,['d'],N,None,Y,48,43,25,,,,M,20,
45,5,500,4,4,11,['d'],Y,['k'],,,,,,,Y,Y,Y,M,20,
45,6,501,5,5,11,['d'],Y,['k'],,,,,,,,Y,Y,M,20,
45,7,502,0,0,11,['d'],Y,['k'],N,None,Y,,,,,Y,Y,M,20,
45,8,503,6,6,11,['k'],Y,['d'],Y,['space'],Y,,,,,Y,Y,M,20,
45,9,504,9,9,11,['d'],Y,['k'],N,None,Y,,,,,Y,Y,M,20,
45,10,505,8,8,11,['d'],Y,['k'],N,None,Y,,,,,Y,Y,M,20,
46,0,506,2,2,11,['k'],Y,['d'],Y,['space'],Y,,,,,Y,Y,M,20,
46,1,507,1,1,11,['k'],Y,['d'],N,None,Y,,,,,Y,Y,M,20,
46,2,508,6,6,11,['k'],N,['k'],N,None,Y,,,,,Y,Y,M,20,
46,3,509,6,6,11,['k'],Y,['d'],N,['space'],N,,,,,Y,Y,M,20,
46,4,510,10,10,11,['d'],Y,['k'],N,None,Y,,,,,Y,Y,M,20,
46,5,511,1,1,11,['k'],Y,['d'],N,None,Y,,,,,Y,Y,M,20,
46,6,512,4,4,11,['d'],Y,['k'],Y,['space'],Y,,,,,Y,Y,M,20,
46,7,513,5,5,11,['k'],Y,['d'],Y,['space'],Y,,,,,Y,Y,M,20,
46,8,514,4,4,11,['d'],Y,['k'],Y,['space'],Y,,,,,Y,Y,M,20,
46,9,515,6,6,11,['k'],Y,['d'],Y,['space'],Y,,,,,Y,Y,M,20,
46,10,516,9,9,11,['k'],Y,['d'],Y,['space'],Y,,,,,Y,Y,M,20,
47,0,517,6,6,11,['d'],Y,['k'],N,None,Y,,,,,Y,Y,M,20,
47,1,518,3,3,11,['d'],Y,['k'],N,None,Y,,,,,Y,Y,M,20,
47,2,519,7,7,11,['k'],Y,['d'],Y,['space'],Y,,,,,Y,Y,M,20,
47,3,520,0,0,11,['d'],Y,['k'],N,None,Y,,,,,Y,Y,M,20,
47,4,521,0,0,11,['d'],Y,['k'],Y,None,N,,,,,Y,Y,M,20,
47,5,522,10,10,11,['k'],N,['k'],N,None,Y,,,,,Y,Y,M,20,
47,6,523,0,0,11,['d'],Y,['k'],N,None,Y,,,,,Y,Y,M,20,
47,7,524,9,9,11,['d'],Y,['k'],N,None,Y,,,,,Y,Y,M,20,
47,8,525,2,2,11,['k'],Y,['d'],N,None,Y,,,,,Y,Y,M,20,
47,9,526,9,9,11,['d'],Y,['k'],Y,['space'],Y,,,,,Y,Y,M,20,
47,10,527,6,6,11,['d'],Y,['k'],N,None,Y,,,,,Y,Y,M,20,
48,0,528,2,2,11,['d'],Y,['k'],N,['space'],N,,,,,Y,Y,M,20,
48,1,529,1,1,11,['d'],Y,['k'],N,None,Y,,,,,Y,Y,M,20,
48,2,530,5,5,11,['k'],Y,['d'],Y,['space'],Y,,,,,Y,Y,M,20,
48,3,531,1,1,11,['d'],N,['d'],Y,['space'],Y,,,,,Y,Y,M,20,
48,4,532,8,8,11,['k'],Y,['d'],N,None,Y,,,,,Y,Y,M,20,
48,5,533,6,6,11,['d'],Y,['k'],N,None,Y,,,,,Y,Y,M,20,
48,6,534,9,9,11,['k'],Y,['d'],Y,['space'],Y,,,,,Y,Y,M,20,
48,7,535,9,9,11,['d'],Y,['k'],N,None,Y,,,,,Y,Y,M,20,
48,8,536,4,4,11,['k'],Y,['d'],N,None,Y,,,,,Y,Y,M,20,
48,9,537,9,9,11,['k'],Y,['d'],Y,['space'],Y,,,,,Y,Y,M,20,
48,10,538,4,4,11,['d'],N,['d'],Y,['space'],Y,,,,,Y,Y,M,20,
49,0,539,1,1,11,['d'],Y,['k'],N,None,Y,,,,,Y,Y,M,20,
49,1,540,2,2,11,['k'],Y,['d'],N,None,Y,,,,,Y,Y,M,20,
49,2,541,3,3,11,['k'],Y,['d'],N,None,Y,,,,,Y,Y,M,20,
49,3,542,3,3,11,['d'],Y,['k'],Y,None,N,,,,,Y,Y,M,20,
49,4,543,8,8,11,['d'],Y,['k'],N,None,Y,,,,,Y,Y,M,20,
49,5,544,2,2,11,['k'],Y,['d'],Y,['space'],Y,,,,,Y,Y,M,20,
49,6,545,6,6,11,['d'],N,['d'],N,None,Y,,,,,Y,Y,M,20,
49,7,546,2,2,11,['k'],N,['k'],Y,['space'],Y,,,,,Y,Y,M,20,
49,8,547,10,10,11,['k'],Y,['d'],Y,['space'],Y,,,,,Y,Y,M,20,
49,9,548,6,6,11,['d'],N,['d'],Y,['space'],Y,,,,,Y,Y,M,20,
49,10,549,5,5,11,['d'],Y,['k'],N,None,Y,43,44,20,,Y,Y,M,20,
50,0,550,6,6,12,['d'],Y,['k'],,,,,,,,Y,Y,M,20,
50,1,551,8,8,12,['k'],Y,['d'],,,,,,,,Y,Y,M,20,
50,2,552,10,10,12,['d'],Y,['k'],Y,['space'],Y,,,,,Y,Y,M,20,
50,3,553,9,9,12,['d'],Y,['k'],N,None,Y,,,,,Y,Y,M,20,
50,4,554,0,0,12,['k'],Y,['d'],N,None,Y,,,,,Y,Y,M,20,
50,5,555,1,1,12,['d'],Y,['k'],Y,['space'],Y,,,,,Y,Y,M,20,
50,6,556,9,9,12,['d'],Y,['k'],N,['space'],N,,,,,Y,Y,M,20,
50,7,557,9,9,12,['d'],Y,['k'],N,None,Y,,,,,Y,Y,M,20,
50,8,558,7,7,12,['d'],Y,['k'],N,['space'],N,,,,,Y,Y,M,20,
50,9,559,5,5,12,['d'],Y,['k'],Y,['space'],Y,,,,,Y,Y,M,20,
50,10,560,3,3,12,['k'],Y,['d'],N,None,Y,,,,,Y,Y,M,20,
51,0,561,8,8,12,['d'],Y,['k'],Y,['space'],Y,,,,,Y,Y,M,20,
51,1,562,10,10,12,['k'],Y,['d'],N,None,Y,,,,,Y,Y,M,20,
51,2,563,1,1,12,['k'],Y,['d'],N,None,Y,,,,,Y,Y,M,20,
51,3,564,10,10,12,['d'],Y,['k'],Y,['space'],Y,,,,,Y,Y,M,20,
51,4,565,8,8,12,['d'],Y,['k'],N,None,Y,,,,,Y,Y,M,20,
51,5,566,2,2,12,['k'],Y,['d'],Y,['space'],Y,,,,,Y,Y,M,20,
51,6,567,6,6,12,['k'],Y,['d'],N,None,Y,,,,,Y,Y,M,20,
51,7,568,10,10,12,['d'],Y,['k'],Y,['space'],Y,,,,,Y,Y,M,20,
51,8,569,6,6,12,['k'],Y,['d'],Y,['space'],Y,,,,,Y,Y,M,20,
51,9,570,3,3,12,['d'],Y,['k'],Y,['space'],Y,,,,,Y,Y,M,20,
51,10,571,4,4,12,['k'],Y,['d'],Y,['space'],Y,,,,,Y,Y,M,20,
52,0,572,7,7,12,['d'],Y,['k'],Y,['space'],Y,,,,,Y,Y,M,20,
52,1,573,7,7,12,['d'],Y,['k'],N,None,Y,,,,,Y,Y,M,20,
52,2,574,10,10,12,['d'],Y,['k'],N,None,Y,,,,,Y,Y,M,20,
52,3,575,7,7,12,['k'],Y,['d'],N,None,Y,,,,,Y,Y,M,20,
52,4,576,0,0,12,['d'],Y,['k'],Y,['space'],Y,,,,,Y,Y,M,20,
52,5,577,0,0,12,['k'],Y,['d'],Y,['space'],Y,,,,,Y,Y,M,20,
52,6,578,9,9,12,['d'],Y,['k'],N,None,Y,,,,,Y,Y,M,20,
52,7,579,8,8,12,['d'],Y,['k'],Y,None,N,,,,,Y,Y,M,20,
52,8,580,7,7,12,['k'],Y,['d'],Y,['space'],Y,,,,,Y,Y,M,20,
52,9,581,5,5,12,['d'],N,['d'],Y,['space'],Y,,,,,Y,Y,M,20,
52,10,582,3,3,12,['k'],Y,['d'],N,None,Y,,,,,Y,Y,M,20,
53,0,583,4,4,12,['d'],Y,['k'],Y,['space'],Y,,,,,Y,Y,M,20,
53,1,584,8,8,12,['k'],Y,['d'],Y,['space'],Y,,,,,Y,Y,M,20,
53,2,585,3,3,12,['d'],Y,['k'],N,None,Y,,,,,Y,Y,M,20,
53,3,586,8,8,12,['d'],Y,['k'],N,None,Y,,,,,Y,Y,M,20,
53,4,587,5,5,12,['k'],Y,['d'],N,None,Y,,,,,Y,Y,M,20,
53,5,588,5,5,12,['d'],Y,['k'],Y,None,N,,,,,Y,Y,M,20,
53,6,589,10,10,12,['d'],Y,['k'],Y,['space'],Y,,,,,Y,Y,M,20,
53,7,590,0,0,12,['d'],Y,['k'],Y,['space'],Y,,,,,Y,Y,M,20,
53,8,591,1,1,12,['d'],Y,['k'],Y,['space'],Y,,,,,Y,Y,M,20,
53,9,592,10,10,12,['k'],Y,['d'],N,None,Y,,,,,Y,Y,M,20,
53,10,593,5,5,12,['d'],Y,['k'],Y,['space'],Y,,,,,Y,Y,M,20,
54,0,594,8,8,12,['k'],Y,['d'],N,None,Y,,,,,Y,Y,M,20,
54,1,595,4,4,12,['k'],Y,['d'],Y,['space'],Y,,,,,Y,Y,M,20,
54,2,596,8,8,12,['k'],Y,['d'],Y,['space'],Y,,,,,Y,Y,M,20,
54,3,597,1,1,12,['k'],Y,['d'],N,None,Y,,,,,Y,Y,M,20,
54,4,598,0,0,12,['k'],Y,['d'],N,None,Y,,,,,Y,Y,M,20,
54,5,599,9,9,12,['k'],Y,['d'],N,None,Y,49,44,25,,Y,Y,M,20,
