.thisRepN,.thisTrialN,.thisN,.thisIndex,.thisTrial,Block Number,Key pressed,Category,Correct?,Int Match?,Int Response,Int Correct?,Line Accuracy,Interference Accuracy,Matching Interferences,New instruction shown?,Buttons switched?,Fast?,gender,age,
0,0,0,6,6,1,['k'],['k'],Y,,,,,,,,,,M,22,
0,1,1,4,4,1,['k'],['d'],N,,,,,,,,,,M,22,
0,2,2,6,6,1,['k'],['k'],Y,Y,None,N,,,,,,,M,22,
0,3,3,9,9,1,['d'],['k'],N,N,None,Y,,,,,,,M,22,
0,4,4,3,3,1,['d'],['k'],N,Y,None,N,,,,,,,M,22,
0,5,5,4,4,1,['k'],['d'],N,Y,None,N,,,,,,,M,22,
0,6,6,6,6,1,['k'],['k'],Y,N,None,Y,,,,,,,M,22,
0,7,7,2,2,1,['k'],['d'],N,N,None,Y,,,,,,,M,22,
0,8,8,4,4,1,['d'],['k'],N,Y,None,N,,,,,,,M,22,
0,9,9,4,4,1,['k'],['k'],Y,N,None,Y,,,,,,,M,22,
0,10,10,7,7,1,['k'],['k'],Y,Y,None,N,,,,,,,M,22,
1,0,11,8,8,1,['d'],['d'],Y,N,None,Y,,,,,,,M,22,
1,1,12,5,5,1,['k'],['d'],N,N,None,Y,,,,,,,M,22,
1,2,13,9,9,1,['k'],['d'],N,N,None,Y,,,,,,,M,22,
1,3,14,8,8,1,['k'],['k'],Y,Y,None,N,,,,,,,M,22,
1,4,15,1,1,1,['d'],['d'],Y,N,None,Y,,,,,,,M,22,
1,5,16,3,3,1,['k'],['d'],N,Y,None,N,,,,,,,M,22,
1,6,17,2,2,1,['k'],['d'],N,N,None,Y,,,,,,,M,22,
1,7,18,9,9,1,['k'],['d'],N,Y,None,N,,,,,,,M,22,
1,8,19,8,8,1,['d'],['k'],N,N,None,Y,,,,,,,M,22,
1,9,20,1,1,1,['k'],['k'],Y,Y,None,N,,,,,,,M,22,
1,10,21,1,1,1,['k'],['k'],Y,Y,None,N,,,,,,,M,22,
2,0,22,0,0,1,['k'],['k'],Y,N,None,Y,,,,,,,M,22,
2,1,23,10,10,1,['k'],['d'],N,N,None,Y,,,,,,,M,22,
2,2,24,2,2,1,['k'],['d'],N,Y,None,N,,,,,,,M,22,
2,3,25,3,3,1,['k'],['d'],N,N,None,Y,,,,,,,M,22,
2,4,26,4,4,1,['k'],['k'],Y,N,None,Y,,,,,,,M,22,
2,5,27,5,5,1,['k'],['k'],Y,N,None,Y,,,,,,,M,22,
2,6,28,0,0,1,['k'],['k'],Y,N,['k'],N,,,,,,,M,22,
2,7,29,3,3,1,['d'],['k'],N,N,None,Y,,,,,,,M,22,
2,8,30,0,0,1,['k'],['k'],Y,Y,None,N,,,,,,,M,22,
2,9,31,2,2,1,['d'],['d'],Y,N,None,Y,,,,,,,M,22,
2,10,32,7,7,1,['k'],['k'],Y,Y,None,N,,,,,,,M,22,
3,0,33,10,10,1,['d'],['d'],Y,N,None,Y,,,,,,,M,22,
3,1,34,6,6,1,['k'],['k'],Y,N,None,Y,,,,,,,M,22,
3,2,35,9,9,1,['d'],['d'],Y,Y,None,N,,,,,,,M,22,
3,3,36,0,0,1,['d'],['d'],Y,N,None,Y,,,,,,,M,22,
3,4,37,9,9,1,['k'],['k'],Y,Y,None,N,,,,,,,M,22,
3,5,38,3,3,1,['d'],['k'],N,N,None,Y,,,,,,,M,22,
3,6,39,9,9,1,['k'],['d'],N,Y,None,N,,,,,,,M,22,
3,7,40,1,1,1,['d'],['d'],Y,Y,None,N,,,,,,,M,22,
3,8,41,4,4,1,['d'],['k'],N,N,None,Y,,,,,,,M,22,
3,9,42,0,0,1,['d'],['k'],N,Y,None,N,,,,,,,M,22,
3,10,43,1,1,1,['d'],['k'],N,Y,None,N,,,,,,,M,22,
4,0,44,5,5,1,['d'],['k'],N,N,None,Y,,,,,,,M,22,
4,1,45,1,1,1,['d'],['d'],Y,N,['return'],N,,,,,,,M,22,
4,2,46,10,10,1,['d'],['k'],N,Y,['d'],N,,,,,,,M,22,
4,3,47,7,7,1,['d'],['d'],Y,N,['d'],N,,,,,,,M,22,
4,4,48,9,9,1,['d'],['k'],N,Y,None,N,,,,,,,M,22,
4,5,49,1,1,1,['d'],['k'],N,Y,None,N,25,23,22,,,,M,22,
4,6,50,6,6,2,['d'],['d'],Y,,,,,,,,,,M,22,
4,7,51,2,2,2,['d'],['k'],N,,,,,,,,,,M,22,
4,8,52,8,8,2,['d'],['k'],N,Y,['space'],Y,,,,,,,M,22,
4,9,53,9,9,2,['d'],['k'],N,Y,['space'],Y,,,,,,,M,22,
4,10,54,1,1,2,['d'],['d'],Y,Y,['k'],N,,,,,,,M,22,
5,0,55,10,10,2,['d'],['d'],Y,Y,['space'],Y,,,,,,,M,22,
5,1,56,6,6,2,['d'],['k'],N,Y,None,N,,,,,,,M,22,
5,2,57,8,8,2,['d'],['d'],Y,Y,['space'],Y,,,,,,,M,22,
5,3,58,10,10,2,['d'],['d'],Y,Y,['space'],Y,,,,,,,M,22,
5,4,59,7,7,2,['d'],['k'],N,N,['space'],N,,,,,,,M,22,
5,5,60,1,1,2,['d'],['d'],Y,Y,['space'],Y,,,,,,,M,22,
5,6,61,0,0,2,['d'],['d'],Y,Y,['space'],Y,,,,,,,M,22,
5,7,62,9,9,2,['d'],['k'],N,Y,['space'],Y,,,,,,,M,22,
5,8,63,3,3,2,['d'],['d'],Y,Y,['space'],Y,,,,,,,M,22,
5,9,64,0,0,2,['d'],['k'],N,Y,['space'],Y,,,,,,,M,22,
5,10,65,0,0,2,['d'],['k'],N,N,['space'],N,,,,,,,M,22,
6,0,66,1,1,2,['d'],['d'],Y,N,None,Y,,,,,,,M,22,
6,1,67,7,7,2,['d'],['d'],Y,N,['space'],N,,,,,,,M,22,
6,2,68,9,9,2,['d'],['k'],N,Y,['space'],Y,,,,,,,M,22,
6,3,69,4,4,2,['k'],['k'],Y,N,None,Y,,,,,,,M,22,
6,4,70,7,7,2,['d'],['k'],N,Y,['space'],Y,,,,,,,M,22,
6,5,71,0,0,2,['d'],['d'],Y,Y,['space'],Y,,,,,,,M,22,
6,6,72,2,2,2,['d'],['d'],Y,N,None,Y,,,,,,,M,22,
6,7,73,4,4,2,['d'],['d'],Y,N,None,Y,,,,,,,M,22,
6,8,74,6,6,2,['d'],['d'],Y,N,None,Y,,,,,,,M,22,
6,9,75,2,2,2,['d'],['k'],N,Y,['space'],Y,,,,,,,M,22,
6,10,76,1,1,2,['d'],['k'],N,N,None,Y,,,,,,,M,22,
7,0,77,6,6,2,['d'],['k'],N,N,['space'],N,,,,,,,M,22,
7,1,78,0,0,2,['k'],['k'],Y,Y,['space'],Y,,,,,,,M,22,
7,2,79,7,7,2,['k'],['k'],Y,Y,['space'],Y,,,,,,,M,22,
7,3,80,6,6,2,['k'],['d'],N,N,None,Y,,,,,,,M,22,
7,4,81,2,2,2,['k'],['k'],Y,Y,['space'],Y,,,,,,,M,22,
7,5,82,9,9,2,['k'],['d'],N,N,None,Y,,,,,,,M,22,
7,6,83,2,2,2,['d'],['d'],Y,Y,['space'],Y,,,,,,,M,22,
7,7,84,6,6,2,['k'],['d'],N,N,['space'],N,,,,,,,M,22,
7,8,85,6,6,2,['k'],['d'],N,N,None,Y,,,,,,,M,22,
7,9,86,6,6,2,['k'],['d'],N,Y,['k'],N,,,,,,,M,22,
7,10,87,3,3,2,['k'],['k'],Y,Y,None,N,,,,,,,M,22,
8,0,88,10,10,2,['d'],['k'],N,Y,None,N,,,,,,,M,22,
8,1,89,6,6,2,['k'],['d'],N,N,None,Y,,,,,,,M,22,
8,2,90,9,9,2,['k'],['k'],Y,Y,['space'],Y,,,,,,,M,22,
8,3,91,5,5,2,['k'],['d'],N,Y,['k'],N,,,,,,,M,22,
8,4,92,7,7,2,['k'],['k'],Y,N,['space'],N,,,,,,,M,22,
8,5,93,8,8,2,['k'],['d'],N,N,['k'],N,,,,,,,M,22,
8,6,94,7,7,2,['d'],['d'],Y,N,None,Y,,,,,,,M,22,
8,7,95,6,6,2,['k'],['d'],N,N,None,Y,,,,,,,M,22,
8,8,96,7,7,2,['d'],['k'],N,N,None,Y,,,,,,,M,22,
8,9,97,0,0,2,['d'],['k'],N,N,None,Y,,,,,,,M,22,
8,10,98,7,7,2,['k'],['d'],N,N,None,Y,,,,,,,M,22,
9,0,99,1,1,2,['d'],['d'],Y,N,['space'],N,24,34,25,,,,M,22,
9,1,100,4,4,3,['k'],['d'],N,,,,,,,,,,M,22,
9,2,101,0,0,3,['k'],['k'],Y,,,,,,,,,,M,22,
9,3,102,0,0,3,['d'],['d'],Y,N,['space'],N,,,,,,,M,22,
9,4,103,5,5,3,['k'],['d'],N,Y,['space'],Y,,,,,,,M,22,
9,5,104,7,7,3,['k'],['d'],N,N,None,Y,,,,,,,M,22,
9,6,105,10,10,3,['k'],['d'],N,Y,['space'],Y,,,,,,,M,22,
9,7,106,10,10,3,['k'],['k'],Y,Y,None,N,,,,,,,M,22,
9,8,107,5,5,3,['d'],['k'],N,N,None,Y,,,,,,,M,22,
9,9,108,2,2,3,['d'],['k'],N,Y,['space'],Y,,,,,,,M,22,
9,10,109,4,4,3,['d'],['k'],N,Y,None,N,,,,,,,M,22,
10,0,110,8,8,3,['d'],['d'],Y,N,None,Y,,,,,,,M,22,
10,1,111,2,2,3,['d'],['k'],N,N,None,Y,,,,,,,M,22,
10,2,112,2,2,3,['k'],['d'],N,Y,None,N,,,,,,,M,22,
10,3,113,0,0,3,['k'],['k'],Y,Y,['space'],Y,,,,,,,M,22,
10,4,114,8,8,3,['d'],['k'],N,N,None,Y,,,,,,,M,22,
10,5,115,0,0,3,['d'],['d'],Y,Y,None,N,,,,,,,M,22,
10,6,116,5,5,3,['k'],['k'],Y,N,None,Y,,,,,,,M,22,
10,7,117,0,0,3,['k'],['k'],Y,Y,['space'],Y,,,,,,,M,22,
10,8,118,4,4,3,['k'],['k'],Y,N,None,Y,,,,,,,M,22,
10,9,119,5,5,3,['k'],['k'],Y,Y,['space'],Y,,,,,,,M,22,
10,10,120,1,1,3,['d'],['k'],N,N,None,Y,,,,,,,M,22,
11,0,121,7,7,3,['k'],['k'],Y,N,None,Y,,,,,,,M,22,
11,1,122,10,10,3,['k'],['k'],Y,Y,None,N,,,,,,,M,22,
11,2,123,0,0,3,['k'],['d'],N,Y,None,N,,,,,,,M,22,
11,3,124,2,2,3,['d'],['k'],N,Y,None,N,,,,,,,M,22,
11,4,125,3,3,3,['k'],['k'],Y,N,None,Y,,,,,,,M,22,
11,5,126,4,4,3,['k'],['d'],N,N,None,Y,,,,,,,M,22,
11,6,127,6,6,3,['k'],['k'],Y,Y,['space'],Y,,,,,,,M,22,
11,7,128,4,4,3,['k'],['k'],Y,N,None,Y,,,,,,,M,22,
11,8,129,6,6,3,['d'],['k'],N,Y,None,N,,,,,,,M,22,
11,9,130,10,10,3,['d'],['d'],Y,Y,['space'],Y,,,,,,,M,22,
11,10,131,9,9,3,['d'],['k'],N,N,['d'],N,,,,,,,M,22,
12,0,132,10,10,3,['k'],['d'],N,N,None,Y,,,,,,,M,22,
12,1,133,6,6,3,['d'],['k'],N,N,None,Y,,,,,,,M,22,
12,2,134,9,9,3,['k'],['k'],Y,N,['space'],N,,,,,,,M,22,
12,3,135,7,7,3,['d'],['d'],Y,N,None,Y,,,,,,,M,22,
12,4,136,3,3,3,['d'],['d'],Y,N,None,Y,,,,,,,M,22,
12,5,137,3,3,3,['d'],['k'],N,N,['d'],N,,,,,,,M,22,
12,6,138,7,7,3,['d'],['k'],N,Y,['d'],N,,,,,,,M,22,
12,7,139,9,9,3,['d'],['d'],Y,N,None,Y,,,,,,,M,22,
12,8,140,4,4,3,['k'],['d'],N,Y,None,N,,,,,,,M,22,
12,9,141,1,1,3,['d'],['d'],Y,Y,None,N,,,,,,,M,22,
12,10,142,6,6,3,['k'],['k'],Y,Y,None,N,,,,,,,M,22,
13,0,143,8,8,3,['k'],['d'],N,Y,None,N,,,,,,,M,22,
13,1,144,1,1,3,['d'],['d'],Y,N,['k'],N,,,,,,,M,22,
13,2,145,4,4,3,['d'],['k'],N,Y,['d'],N,,,,,,,M,22,
13,3,146,4,4,3,['k'],['d'],N,Y,None,N,,,,,,,M,22,
13,4,147,10,10,3,['k'],['d'],N,N,None,Y,,,,,,,M,22,
13,5,148,6,6,3,['d'],['d'],Y,Y,['space'],Y,,,,,,,M,22,
13,6,149,3,3,3,['k'],['k'],Y,N,None,Y,25,28,24,,,,M,22,
13,7,150,5,5,4,['d'],['d'],Y,,,,,,,,,,M,22,
13,8,151,10,10,4,['k'],['d'],N,,,,,,,,,,M,22,
13,9,152,1,1,4,['k'],['k'],Y,N,None,Y,,,,,,,M,22,
13,10,153,2,2,4,['k'],['k'],Y,Y,['d'],N,,,,,,,M,22,
14,0,154,9,9,4,['k'],['d'],N,N,None,Y,,,,,,,M,22,
14,1,155,4,4,4,['k'],['d'],N,N,None,Y,,,,,,,M,22,
14,2,156,5,5,4,['d'],['k'],N,Y,None,N,,,,,,,M,22,
14,3,157,10,10,4,['k'],['d'],N,Y,None,N,,,,,,,M,22,
14,4,158,5,5,4,['d'],['k'],N,N,['k'],N,,,,,,,M,22,
14,5,159,3,3,4,['k'],['k'],Y,N,None,Y,,,,,,,M,22,
14,6,160,9,9,4,['d'],['k'],N,Y,None,N,,,,,,,M,22,
14,7,161,1,1,4,['d'],['d'],Y,Y,['space'],Y,,,,,,,M,22,
14,8,162,3,3,4,['d'],['k'],N,Y,None,N,,,,,,,M,22,
14,9,163,7,7,4,['k'],['d'],N,N,None,Y,,,,,,,M,22,
14,10,164,3,3,4,['k'],['k'],Y,N,None,Y,,,,,,,M,22,
15,0,165,8,8,4,['k'],['k'],Y,Y,None,N,,,,,,,M,22,
15,1,166,1,1,4,['k'],['k'],Y,Y,None,N,,,,,,,M,22,
15,2,167,1,1,4,['k'],['d'],N,N,None,Y,,,,,,,M,22,
15,3,168,3,3,4,['k'],['k'],Y,N,None,Y,,,,,,,M,22,
15,4,169,3,3,4,['k'],['k'],Y,Y,['space'],Y,,,,,,,M,22,
15,5,170,1,1,4,['k'],['d'],N,Y,['space'],Y,,,,,,,M,22,
15,6,171,7,7,4,['k'],['k'],Y,Y,['d'],N,,,,,,,M,22,
15,7,172,6,6,4,['d'],['k'],N,Y,None,N,,,,,,,M,22,
15,8,173,2,2,4,['k'],['k'],Y,Y,None,N,,,,,,,M,22,
15,9,174,10,10,4,['d'],['d'],Y,Y,None,N,,,,,,,M,22,
15,10,175,10,10,4,['k'],['d'],N,N,None,Y,,,,,,,M,22,
16,0,176,10,10,4,['d'],['k'],N,Y,['d'],N,,,,,,,M,22,
16,1,177,3,3,4,['d'],['k'],N,Y,['d'],N,,,,,,,M,22,
16,2,178,2,2,4,['d'],['d'],Y,Y,None,N,,,,,,,M,22,
16,3,179,5,5,4,['k'],['d'],N,Y,None,N,,,,,,,M,22,
16,4,180,1,1,4,['k'],['d'],N,N,None,Y,,,,,,,M,22,
16,5,181,10,10,4,['d'],['k'],N,N,['k'],N,,,,,,,M,22,
16,6,182,4,4,4,['d'],['d'],Y,Y,None,N,,,,,,,M,22,
16,7,183,9,9,4,['d'],['d'],Y,N,None,Y,,,,,,,M,22,
16,8,184,7,7,4,['d'],['d'],Y,N,['space'],N,,,,,,,M,22,
16,9,185,7,7,4,['k'],['k'],Y,Y,None,N,,,,,,,M,22,
16,10,186,4,4,4,['k'],['k'],Y,N,None,Y,,,,,,,M,22,
17,0,187,10,10,4,['k'],['k'],Y,N,None,Y,,,,,,,M,22,
17,1,188,1,1,4,['d'],['d'],Y,Y,None,N,,,,,,,M,22,
17,2,189,3,3,4,['k'],['k'],Y,N,['space'],N,,,,,,,M,22,
17,3,190,4,4,4,['k'],['d'],N,Y,None,N,,,,,,,M,22,
17,4,191,4,4,4,['k'],['d'],N,N,None,Y,,,,,,,M,22,
17,5,192,1,1,4,['d'],['d'],Y,N,['space'],N,,,,,,,M,22,
17,6,193,5,5,4,['d'],['k'],N,N,None,Y,,,,,,,M,22,
17,7,194,0,0,4,['d'],['k'],N,N,['space'],N,,,,,,,M,22,
17,8,195,8,8,4,['k'],['d'],N,N,None,Y,,,,,,,M,22,
17,9,196,9,9,4,['k'],['k'],Y,N,None,Y,,,,,,,M,22,
17,10,197,5,5,4,['d'],['k'],N,N,None,Y,,,,,,,M,22,
18,0,198,8,8,4,['k'],['d'],N,N,None,Y,,,,,,,M,22,
18,1,199,7,7,4,['d'],['k'],N,Y,['space'],Y,24,23,23,,,,M,22,
18,2,200,8,8,5,['k'],['d'],N,,,,,,,,,,M,22,
18,3,201,5,5,5,['k'],['k'],Y,,,,,,,,,,M,22,
18,4,202,2,2,5,['k'],['k'],Y,N,None,Y,,,,,,,M,22,
18,5,203,5,5,5,['d'],['k'],N,N,None,Y,,,,,,,M,22,
18,6,204,6,6,5,['k'],['d'],N,Y,['space'],Y,,,,,,,M,22,
18,7,205,10,10,5,['d'],['k'],N,Y,['space'],Y,,,,,,,M,22,
18,8,206,5,5,5,['d'],['k'],N,Y,None,N,,,,,,,M,22,
18,9,207,6,6,5,['d'],['k'],N,Y,None,N,,,,,,,M,22,
18,10,208,5,5,5,['k'],['k'],Y,Y,['k'],N,,,,,,,M,22,
19,0,209,9,9,5,['k'],['d'],N,N,['space'],N,,,,,,,M,22,
19,1,210,3,3,5,['k'],['k'],Y,Y,['space'],Y,,,,,,,M,22,
19,2,211,5,5,5,['k'],['k'],Y,N,['space'],N,,,,,,,M,22,
19,3,212,3,3,5,['k'],['d'],N,Y,['space'],Y,,,,,,,M,22,
19,4,213,6,6,5,['d'],['d'],Y,Y,['space'],Y,,,,,,,M,22,
19,5,214,5,5,5,['k'],['d'],N,N,['space'],N,,,,,,,M,22,
19,6,215,3,3,5,['k'],['k'],Y,Y,['space'],Y,,,,,,,M,22,
19,7,216,3,3,5,['d'],['k'],N,N,['space'],N,,,,,,,M,22,
19,8,217,1,1,5,['k'],['d'],N,N,['space'],N,,,,,,,M,22,
19,9,218,0,0,5,['d'],['d'],Y,N,['space'],N,,,,,,,M,22,
19,10,219,2,2,5,['k'],['d'],N,Y,['space'],Y,,,,,,,M,22,
20,0,220,3,3,5,['d'],['d'],Y,N,['space'],N,,,,,,,M,22,
20,1,221,9,9,5,['k'],['d'],N,N,['space'],N,,,,,,,M,22,
20,2,222,10,10,5,['d'],['k'],N,N,['space'],N,,,,,,,M,22,
20,3,223,2,2,5,['k'],['d'],N,N,['space'],N,,,,,,,M,22,
20,4,224,6,6,5,['k'],['d'],N,Y,['space'],Y,,,,,,,M,22,
20,5,225,2,2,5,['d'],['d'],Y,Y,['space'],Y,,,,,,,M,22,
20,6,226,4,4,5,['d'],['d'],Y,N,['space'],N,,,,,,,M,22,
20,7,227,4,4,5,['k'],['d'],N,N,['space'],N,,,,,,,M,22,
20,8,228,4,4,5,['k'],['d'],N,Y,['space'],Y,,,,,,,M,22,
20,9,229,10,10,5,['d'],['d'],Y,N,['space'],N,,,,,,,M,22,
20,10,230,10,10,5,['d'],['k'],N,Y,['space'],Y,,,,,,,M,22,
21,0,231,3,3,5,['k'],['d'],N,Y,['space'],Y,,,,,,,M,22,
21,1,232,9,9,5,['d'],['k'],N,Y,['space'],Y,,,,,,,M,22,
21,2,233,1,1,5,['k'],['d'],N,Y,['space'],Y,,,,,,,M,22,
21,3,234,1,1,5,['k'],['d'],N,N,None,Y,,,,,,,M,22,
21,4,235,8,8,5,['k'],['k'],Y,N,['space'],N,,,,,,,M,22,
21,5,236,3,3,5,['d'],['d'],Y,Y,['space'],Y,,,,,,,M,22,
21,6,237,2,2,5,['d'],['d'],Y,Y,['space'],Y,,,,,,,M,22,
21,7,238,9,9,5,['d'],['d'],Y,N,['space'],N,,,,,,,M,22,
21,8,239,10,10,5,['d'],['d'],Y,N,['space'],N,,,,,,,M,22,
21,9,240,7,7,5,['k'],['d'],N,Y,['space'],Y,,,,,,,M,22,
21,10,241,9,9,5,['k'],['d'],N,Y,['space'],Y,,,,,,,M,22,
22,0,242,8,8,5,['d'],['d'],Y,Y,['space'],Y,,,,,,,M,22,
22,1,243,9,9,5,['k'],['k'],Y,Y,None,N,,,,,,,M,22,
22,2,244,5,5,5,['k'],['k'],Y,N,['space'],N,,,,,,,M,22,
22,3,245,3,3,5,['d'],['k'],N,N,['space'],N,,,,,,,M,22,
22,4,246,0,0,5,['k'],['k'],Y,N,['space'],N,,,,,,,M,22,
22,5,247,0,0,5,['d'],['d'],Y,Y,['space'],Y,,,,,,,M,22,
22,6,248,10,10,5,['d'],['k'],N,Y,['space'],Y,,,,,,,M,22,
22,7,249,2,2,5,['d'],['d'],Y,N,['space'],N,23,24,25,,,,M,22,
22,8,250,8,8,6,['d'],['k'],N,,,,,,,,,,M,22,
22,9,251,8,8,6,['d'],['d'],Y,,,,,,,,,,M,22,
22,10,252,1,1,6,['d'],['d'],Y,Y,['space'],Y,,,,,,,M,22,
23,0,253,1,1,6,['d'],['k'],N,N,['space'],N,,,,,,,M,22,
23,1,254,9,9,6,['d'],['d'],Y,Y,['space'],Y,,,,,,,M,22,
23,2,255,5,5,6,['d'],['d'],Y,N,['space'],N,,,,,,,M,22,
23,3,256,1,1,6,['k'],['k'],Y,Y,['space'],Y,,,,,,,M,22,
23,4,257,2,2,6,['k'],['d'],N,Y,['space'],Y,,,,,,,M,22,
23,5,258,7,7,6,['d'],['d'],Y,Y,['space'],Y,,,,,,,M,22,
23,6,259,8,8,6,['d'],['k'],N,Y,['space'],Y,,,,,,,M,22,
23,7,260,6,6,6,['k'],['d'],N,Y,None,N,,,,,,,M,22,
23,8,261,6,6,6,['k'],['k'],Y,N,None,Y,,,,,,,M,22,
23,9,262,0,0,6,None,,Timed out,Y,['space'],Y,,,,,,,M,22,
23,10,263,10,10,6,['d'],['k'],N,N,None,Y,,,,,,,M,22,
24,0,264,3,3,6,['k'],['k'],Y,N,['space'],N,,,,,,,M,22,
24,1,265,2,2,6,['d'],['d'],Y,Y,['k'],N,,,,,,,M,22,
24,2,266,5,5,6,['d'],['d'],Y,Y,['space'],Y,,,,,,,M,22,
24,3,267,5,5,6,['d'],['k'],N,Y,['space'],Y,,,,,,,M,22,
24,4,268,0,0,6,['d'],['k'],N,N,['space'],N,,,,,,,M,22,
24,5,269,1,1,6,['k'],['k'],Y,Y,['space'],Y,,,,,,,M,22,
24,6,270,7,7,6,['k'],['d'],N,Y,['space'],Y,,,,,,,M,22,
24,7,271,6,6,6,['k'],['k'],Y,N,['space'],N,,,,,,,M,22,
24,8,272,7,7,6,['k'],['d'],N,N,['space'],N,,,,,,,M,22,
24,9,273,4,4,6,['d'],['d'],Y,Y,['space'],Y,,,,,,,M,22,
24,10,274,8,8,6,['k'],['d'],N,N,['space'],N,,,,,,,M,22,
25,0,275,7,7,6,['k'],['k'],Y,Y,['space'],Y,,,,,,,M,22,
25,1,276,10,10,6,['k'],['k'],Y,Y,['space'],Y,,,,,,,M,22,
25,2,277,0,0,6,['d'],['k'],N,N,['space'],N,,,,,,,M,22,
25,3,278,6,6,6,['k'],['k'],Y,Y,['space'],Y,,,,,,,M,22,
25,4,279,10,10,6,['k'],['d'],N,Y,['space'],Y,,,,,,,M,22,
25,5,280,6,6,6,['k'],['k'],Y,Y,['space'],Y,,,,,,,M,22,
25,6,281,7,7,6,['d'],['d'],Y,N,None,Y,,,,,,,M,22,
25,7,282,3,3,6,['d'],['d'],Y,Y,None,N,,,,,,,M,22,
25,8,283,4,4,6,['d'],['k'],N,N,['space'],N,,,,,,,M,22,
25,9,284,0,0,6,['k'],['d'],N,Y,['space'],Y,,,,,,,M,22,
25,10,285,9,9,6,['k'],['d'],N,N,['space'],N,,,,,,,M,22,
26,0,286,4,4,6,['k'],['k'],Y,Y,['space'],Y,,,,,,,M,22,
26,1,287,7,7,6,['k'],['k'],Y,N,['space'],N,,,,,,,M,22,
26,2,288,0,0,6,['k'],['d'],N,Y,['space'],Y,,,,,,,M,22,
26,3,289,2,2,6,['k'],['k'],Y,Y,['space'],Y,,,,,,,M,22,
26,4,290,7,7,6,['k'],['k'],Y,N,['space'],N,,,,,,,M,22,
26,5,291,0,0,6,['d'],['k'],N,N,['space'],N,,,,,,,M,22,
26,6,292,0,0,6,['k'],['k'],Y,Y,None,N,,,,,,,M,22,
26,7,293,5,5,6,['k'],['k'],Y,N,None,Y,,,,,,,M,22,
26,8,294,8,8,6,['d'],['d'],Y,N,None,Y,,,,,,,M,22,
26,9,295,8,8,6,['d'],['k'],N,N,['space'],N,,,,,,,M,22,
26,10,296,10,10,6,['d'],['k'],N,N,['space'],N,,,,,,,M,22,
27,0,297,9,9,6,['k'],['d'],N,N,['space'],N,,,,,,,M,22,
27,1,298,2,2,6,['d'],['d'],Y,N,['space'],N,,,,,,,M,22,
27,2,299,3,3,6,['d'],['d'],Y,N,['space'],N,28,26,25,,,,M,22,
27,3,300,1,1,7,['d'],['d'],Y,,,,,,,,,,M,22,
27,4,301,3,3,7,['k'],['d'],N,,,,,,,,,,M,22,
27,5,302,5,5,7,['k'],['d'],N,Y,['d'],N,,,,,,,M,22,
27,6,303,3,3,7,['d'],['d'],Y,N,None,Y,,,,,,,M,22,
27,7,304,3,3,7,['k'],['k'],Y,N,['space'],N,,,,,,,M,22,
27,8,305,3,3,7,['d'],['d'],Y,N,['space'],N,,,,,,,M,22,
27,9,306,5,5,7,['k'],['k'],Y,Y,['space'],Y,,,,,,,M,22,
27,10,307,9,9,7,['k'],['d'],N,N,['space'],N,,,,,,,M,22,
28,0,308,8,8,7,['k'],['d'],N,Y,['space'],Y,,,,,,,M,22,
28,1,309,0,0,7,['k'],['d'],N,Y,['space'],Y,,,,,,,M,22,
28,2,310,3,3,7,['k'],['d'],N,N,['space'],N,,,,,,,M,22,
28,3,311,5,5,7,['k'],['d'],N,N,['space'],N,,,,,,,M,22,
28,4,312,5,5,7,['k'],['d'],N,Y,['space'],Y,,,,,,,M,22,
28,5,313,4,4,7,['k'],['k'],Y,N,['space'],N,,,,,,,M,22,
28,6,314,7,7,7,['k'],['k'],Y,Y,['space'],Y,,,,,,,M,22,
28,7,315,6,6,7,['k'],['k'],Y,N,['k'],N,,,,,,,M,22,
28,8,316,1,1,7,['d'],['d'],Y,Y,['space'],Y,,,,,,,M,22,
28,9,317,2,2,7,['d'],['k'],N,Y,['space'],Y,,,,,,,M,22,
28,10,318,10,10,7,['d'],['d'],Y,Y,None,N,,,,,,,M,22,
29,0,319,5,5,7,['k'],['d'],N,Y,['space'],Y,,,,,,,M,22,
29,1,320,6,6,7,['k'],['d'],N,N,['space'],N,,,,,,,M,22,
29,2,321,8,8,7,['k'],['k'],Y,Y,None,N,,,,,,,M,22,
29,3,322,7,7,7,['k'],['d'],N,Y,['k'],N,,,,,,,M,22,
29,4,323,0,0,7,['k'],['d'],N,Y,['space'],Y,,,,,,,M,22,
29,5,324,10,10,7,['k'],['d'],N,Y,['space'],Y,,,,,,,M,22,
29,6,325,8,8,7,['k'],['d'],N,Y,['space'],Y,,,,,,,M,22,
29,7,326,9,9,7,['k'],['k'],Y,Y,['d'],N,,,,,,,M,22,
29,8,327,5,5,7,['d'],['k'],N,Y,['space'],Y,,,,,,,M,22,
29,9,328,2,2,7,['k'],['d'],N,Y,['space'],Y,,,,,,,M,22,
29,10,329,2,2,7,['d'],['k'],N,N,['space'],N,,,,,,,M,22,
30,0,330,8,8,7,['k'],['k'],Y,Y,['space'],Y,,,,,,,M,22,
30,1,331,1,1,7,['k'],['d'],N,N,None,Y,,,,,,,M,22,
30,2,332,8,8,7,['k'],['d'],N,N,['space'],N,,,,,,,M,22,
30,3,333,4,4,7,['k'],['k'],Y,Y,['space'],Y,,,,,,,M,22,
30,4,334,1,1,7,['d'],['k'],N,N,['space'],N,,,,,,,M,22,
30,5,335,2,2,7,['k'],['d'],N,N,['k'],N,,,,,,,M,22,
30,6,336,6,6,7,['k'],['k'],Y,N,['k'],N,,,,,,,M,22,
30,7,337,2,2,7,['k'],['k'],Y,N,['space'],N,,,,,,,M,22,
30,8,338,1,1,7,['k'],['d'],N,N,['space'],N,,,,,,,M,22,
30,9,339,9,9,7,['k'],['k'],Y,Y,['space'],Y,,,,,,,M,22,
30,10,340,1,1,7,['d'],['d'],Y,N,['space'],N,,,,,,,M,22,
31,0,341,5,5,7,['k'],['k'],Y,Y,['space'],Y,,,,,,,M,22,
31,1,342,4,4,7,['d'],['k'],N,Y,None,N,,,,,,,M,22,
31,2,343,3,3,7,['k'],['k'],Y,Y,['space'],Y,,,,,,,M,22,
31,3,344,8,8,7,['k'],['k'],Y,N,['space'],N,,,,,,,M,22,
31,4,345,9,9,7,['k'],['k'],Y,N,['space'],N,,,,,,,M,22,
31,5,346,10,10,7,['k'],['d'],N,N,['k'],N,,,,,,,M,22,
31,6,347,4,4,7,['k'],['k'],Y,N,['space'],N,,,,,,,M,22,
31,7,348,7,7,7,['k'],['k'],Y,Y,['space'],Y,,,,,,,M,22,
31,8,349,10,10,7,['k'],['k'],Y,N,['space'],N,25,21,25,,,,M,22,
31,9,350,5,5,8,['k'],['d'],N,,,,,,,,,,M,22,
31,10,351,1,1,8,['d'],['d'],Y,,,,,,,,,,M,22,
32,0,352,9,9,8,['d'],['k'],N,Y,['space'],Y,,,,,,,M,22,
32,1,353,9,9,8,['k'],['k'],Y,Y,None,N,,,,,,,M,22,
32,2,354,5,5,8,['k'],['k'],Y,Y,None,N,,,,,,,M,22,
32,3,355,7,7,8,['d'],['d'],Y,N,None,Y,,,,,,,M,22,
32,4,356,7,7,8,['k'],['d'],N,Y,None,N,,,,,,,M,22,
32,5,357,3,3,8,['d'],['k'],N,Y,['space'],Y,,,,,,,M,22,
32,6,358,4,4,8,['d'],['d'],Y,N,['space'],N,,,,,,,M,22,
32,7,359,9,9,8,['k'],['d'],N,Y,None,N,,,,,,,M,22,
32,8,360,6,6,8,['d'],['k'],N,N,None,Y,,,,,,,M,22,
32,9,361,4,4,8,['d'],['k'],N,Y,['k'],N,,,,,,,M,22,
32,10,362,3,3,8,['d'],['k'],N,N,['space'],N,,,,,,,M,22,
33,0,363,4,4,8,['k'],['k'],Y,N,['k'],N,,,,,,,M,22,
33,1,364,10,10,8,['d'],['k'],N,Y,['k'],N,,,,,,,M,22,
33,2,365,9,9,8,['d'],['k'],N,Y,['k'],N,,,,,,,M,22,
33,3,366,0,0,8,['d'],['d'],Y,N,['k'],N,,,,,,,M,22,
33,4,367,9,9,8,['d'],['k'],N,Y,None,N,,,,,,,M,22,
33,5,368,5,5,8,['k'],['d'],N,N,['k'],N,,,,,,,M,22,
33,6,369,7,7,8,['d'],['k'],N,N,['d'],N,,,,,,,M,22,
33,7,370,3,3,8,['d'],['d'],Y,N,['space'],N,,,,,,,M,22,
33,8,371,7,7,8,['d'],['d'],Y,Y,['k'],N,,,,,,,M,22,
33,9,372,6,6,8,['k'],['k'],Y,N,['space'],N,,,,,,,M,22,
33,10,373,9,9,8,['d'],['k'],N,N,['space'],N,,,,,,,M,22,
34,0,374,8,8,8,['k'],['k'],Y,Y,['k'],N,,,,,,,M,22,
34,1,375,8,8,8,['d'],['d'],Y,Y,['k'],N,,,,,,,M,22,
34,2,376,9,9,8,['d'],['k'],N,N,None,Y,,,,,,,M,22,
34,3,377,4,4,8,['d'],['d'],Y,Y,['k'],N,,,,,,,M,22,
34,4,378,6,6,8,['k'],['k'],Y,Y,['space'],Y,,,,,,,M,22,
34,5,379,3,3,8,['k'],['k'],Y,Y,['k'],N,,,,,,,M,22,
34,6,380,8,8,8,['k'],['k'],Y,N,['k'],N,,,,,,,M,22,
34,7,381,8,8,8,['k'],['d'],N,Y,None,N,,,,,,,M,22,
34,8,382,0,0,8,['k'],['k'],Y,Y,None,N,,,,,,,M,22,
34,9,383,1,1,8,['k'],['d'],N,N,['k'],N,,,,,,,M,22,
34,10,384,0,0,8,['d'],['k'],N,Y,['d'],N,,,,,,,M,22,
35,0,385,6,6,8,['d'],['d'],Y,N,['space'],N,,,,,,,M,22,
35,1,386,3,3,8,['k'],['k'],Y,Y,['space'],Y,,,,,,,M,22,
35,2,387,9,9,8,['d'],['k'],N,Y,['d'],N,,,,,,,M,22,
35,3,388,8,8,8,['d'],['k'],N,Y,None,N,,,,,,,M,22,
35,4,389,1,1,8,['d'],['d'],Y,Y,['d'],N,,,,,,,M,22,
35,5,390,0,0,8,['k'],['d'],N,Y,['d'],N,,,,,,,M,22,
35,6,391,8,8,8,['d'],['k'],N,Y,['d'],N,,,,,,,M,22,
35,7,392,9,9,8,['d'],['k'],N,N,['d'],N,,,,,,,M,22,
35,8,393,2,2,8,['d'],['d'],Y,N,['d'],N,,,,,,,M,22,
35,9,394,5,5,8,['k'],['k'],Y,N,['d'],N,,,,,,,M,22,
35,10,395,7,7,8,['d'],['d'],Y,N,['k'],N,,,,,,,M,22,
36,0,396,4,4,8,['k'],['d'],N,N,['space'],N,,,,,,,M,22,
36,1,397,7,7,8,['d'],['k'],N,N,['d'],N,,,,,,,M,22,
36,2,398,5,5,8,['k'],['k'],Y,N,['d'],N,,,,,,,M,22,
36,3,399,0,0,8,['k'],['d'],N,N,['k'],N,24,7,25,,,,M,22,
36,4,400,9,9,9,['d'],['d'],Y,,,,,,,,,,M,22,
36,5,401,3,3,9,['d'],['d'],Y,,,,,,,,,,M,22,
36,6,402,2,2,9,['d'],['d'],Y,N,None,Y,,,,,,,M,22,
36,7,403,7,7,9,['k'],['k'],Y,N,None,Y,,,,,,,M,22,
36,8,404,4,4,9,['k'],['d'],N,Y,None,N,,,,,,,M,22,
36,9,405,0,0,9,['k'],['k'],Y,Y,None,N,,,,,,,M,22,
36,10,406,3,3,9,['k'],['k'],Y,N,None,Y,,,,,,,M,22,
37,0,407,0,0,9,['d'],['k'],N,Y,None,N,,,,,,,M,22,
37,1,408,5,5,9,['d'],['k'],N,N,"['space', 'y']",N,,,,,,,M,22,
37,2,409,5,5,9,['k'],['d'],N,Y,None,N,,,,,,,M,22,
37,3,410,10,10,9,['k'],['d'],N,N,['d'],N,,,,,,,M,22,
37,4,411,8,8,9,['k'],['d'],N,Y,['space'],Y,,,,,,,M,22,
37,5,412,10,10,9,['k'],['d'],N,Y,['k'],N,,,,,,,M,22,
37,6,413,2,2,9,['d'],['d'],Y,Y,['d'],N,,,,,,,M,22,
37,7,414,7,7,9,['k'],['d'],N,N,None,Y,,,,,,,M,22,
37,8,415,5,5,9,['k'],['k'],Y,N,None,Y,,,,,,,M,22,
37,9,416,7,7,9,['d'],['k'],N,Y,['space'],Y,,,,,,,M,22,
37,10,417,4,4,9,['k'],['d'],N,Y,['space'],Y,,,,,,,M,22,
38,0,418,10,10,9,['d'],['d'],Y,N,None,Y,,,,,,,M,22,
38,1,419,8,8,9,['d'],['k'],N,Y,['d'],N,,,,,,,M,22,
38,2,420,8,8,9,['k'],['d'],N,Y,['d'],N,,,,,,,M,22,
38,3,421,9,9,9,['k'],['k'],Y,N,['space'],N,,,,,,,M,22,
38,4,422,3,3,9,['d'],['k'],N,N,None,Y,,,,,,,M,22,
38,5,423,10,10,9,['k'],['d'],N,Y,['space'],Y,,,,,,,M,22,
38,6,424,2,2,9,['d'],['d'],Y,N,['space'],N,,,,,,,M,22,
38,7,425,8,8,9,['d'],['k'],N,Y,['space'],Y,,,,,,,M,22,
38,8,426,6,6,9,['d'],['k'],N,N,['space'],N,,,,,,,M,22,
38,9,427,5,5,9,['k'],['d'],N,Y,['k'],N,,,,,,,M,22,
38,10,428,4,4,9,['d'],['d'],Y,Y,None,N,,,,,,,M,22,
39,0,429,6,6,9,['k'],['k'],Y,N,None,Y,,,,,,,M,22,
39,1,430,0,0,9,['k'],['k'],Y,Y,['space'],Y,,,,,,,M,22,
39,2,431,0,0,9,['k'],['k'],Y,Y,['space'],Y,,,,,,,M,22,
39,3,432,4,4,9,['d'],['d'],Y,N,None,Y,,,,,,,M,22,
39,4,433,0,0,9,['k'],['k'],Y,N,None,Y,,,,,,,M,22,
39,5,434,4,4,9,['d'],['d'],Y,N,None,Y,,,,,,,M,22,
39,6,435,9,9,9,['k'],['k'],Y,N,None,Y,,,,,,,M,22,
39,7,436,0,0,9,['d'],['k'],N,N,None,Y,,,,,,,M,22,
39,8,437,9,9,9,['k'],['d'],N,Y,['space'],Y,,,,,,,M,22,
39,9,438,7,7,9,['d'],['d'],Y,Y,['d'],N,,,,,,,M,22,
39,10,439,3,3,9,['k'],['d'],N,N,None,Y,,,,,,,M,22,
40,0,440,5,5,9,['d'],['d'],Y,Y,['d'],N,,,,,,,M,22,
40,1,441,2,2,9,['k'],['k'],Y,N,None,Y,,,,,,,M,22,
40,2,442,0,0,9,['d'],['d'],Y,Y,['space'],Y,,,,,,,M,22,
40,3,443,7,7,9,['k'],['k'],Y,N,None,Y,,,,,,,M,22,
40,4,444,2,2,9,['k'],['k'],Y,N,['space'],N,,,,,,,M,22,
40,5,445,1,1,9,['k'],['k'],Y,N,None,Y,,,,,,,M,22,
40,6,446,8,8,9,['k'],['d'],N,Y,None,N,,,,,,,M,22,
40,7,447,3,3,9,['k'],['d'],N,Y,['space'],Y,,,,,,,M,22,
40,8,448,7,7,9,['d'],['k'],N,N,None,Y,,,,,,,M,22,
40,9,449,1,1,9,['k'],['d'],N,Y,['space'],Y,26,29,24,,,,M,22,
40,10,450,8,8,10,['k'],['d'],N,,,,,,,,,,M,22,
41,0,451,2,2,10,['k'],['k'],Y,,,,,,,,,,M,22,
41,1,452,8,8,10,['d'],['k'],N,Y,['space'],Y,,,,,,,M,22,
41,2,453,0,0,10,['k'],['k'],Y,N,None,Y,,,,,,,M,22,
41,3,454,10,10,10,['d'],['k'],N,Y,None,N,,,,,,,M,22,
41,4,455,4,4,10,['k'],['k'],Y,Y,None,N,,,,,,,M,22,
41,5,456,7,7,10,['d'],['k'],N,N,['space'],N,,,,,,,M,22,
41,6,457,0,0,10,['k'],['d'],N,Y,None,N,,,,,,,M,22,
41,7,458,9,9,10,['d'],['k'],N,Y,None,N,,,,,,,M,22,
41,8,459,10,10,10,['k'],['d'],N,Y,None,N,,,,,,,M,22,
41,9,460,7,7,10,['k'],['d'],N,Y,None,N,,,,,,,M,22,
41,10,461,3,3,10,['k'],['d'],N,Y,None,N,,,,,,,M,22,
42,0,462,10,10,10,['k'],['k'],Y,Y,['d'],N,,,,,,,M,22,
42,1,463,3,3,10,['d'],['k'],N,N,None,Y,,,,,,,M,22,
42,2,464,9,9,10,['d'],['d'],Y,N,['space'],N,,,,,,,M,22,
42,3,465,1,1,10,['k'],['d'],N,Y,None,N,,,,,,,M,22,
42,4,466,2,2,10,['k'],['k'],Y,N,None,Y,,,,,,,M,22,
42,5,467,1,1,10,['k'],['k'],Y,Y,['space'],Y,,,,,,,M,22,
42,6,468,5,5,10,['d'],['k'],N,N,['space'],N,,,,,,,M,22,
42,7,469,2,2,10,['k'],['d'],N,Y,['space'],Y,,,,,,,M,22,
42,8,470,5,5,10,['k'],['d'],N,N,None,Y,,,,,,,M,22,
42,9,471,2,2,10,['d'],['d'],Y,N,None,Y,,,,,,,M,22,
42,10,472,8,8,10,['d'],['k'],N,N,None,Y,,,,,,,M,22,
43,0,473,5,5,10,['d'],['k'],N,N,None,Y,,,,,,,M,22,
43,1,474,5,5,10,['d'],['d'],Y,Y,None,N,,,,,,,M,22,
43,2,475,2,2,10,['k'],['k'],Y,Y,['space'],Y,,,,,,,M,22,
43,3,476,1,1,10,['d'],['d'],Y,N,None,Y,,,,,,,M,22,
43,4,477,5,5,10,['k'],['k'],Y,N,None,Y,,,,,,,M,22,
43,5,478,8,8,10,['d'],['d'],Y,Y,None,N,,,,,,,M,22,
43,6,479,3,3,10,['k'],['d'],N,N,['space'],N,,,,,,,M,22,
43,7,480,5,5,10,['d'],['d'],Y,Y,['space'],Y,,,,,,,M,22,
43,8,481,10,10,10,['k'],['d'],N,Y,None,N,,,,,,,M,22,
43,9,482,1,1,10,['d'],['k'],N,Y,['d'],N,,,,,,,M,22,
43,10,483,7,7,10,['d'],['d'],Y,Y,['space'],Y,,,,,,,M,22,
44,0,484,2,2,10,['k'],['d'],N,N,None,Y,,,,,,,M,22,
44,1,485,5,5,10,['d'],['d'],Y,N,['space'],N,,,,,,,M,22,
44,2,486,6,6,10,['d'],['d'],Y,N,None,Y,,,,,,,M,22,
44,3,487,1,1,10,['d'],['d'],Y,N,None,Y,,,,,,,M,22,
44,4,488,10,10,10,['k'],['k'],Y,Y,['space'],Y,,,,,,,M,22,
44,5,489,9,9,10,['k'],['k'],Y,N,None,Y,,,,,,,M,22,
44,6,490,10,10,10,['k'],['k'],Y,Y,None,N,,,,,,,M,22,
44,7,491,0,0,10,['d'],['k'],N,N,None,Y,,,,,,,M,22,
44,8,492,0,0,10,['k'],['d'],N,N,None,Y,,,,,,,M,22,
44,9,493,1,1,10,['k'],['d'],N,N,None,Y,,,,,,,M,22,
44,10,494,9,9,10,['d'],['d'],Y,N,None,Y,,,,,,,M,22,
45,0,495,6,6,10,['d'],['k'],N,N,['space'],N,,,,,,,M,22,
45,1,496,4,4,10,['k'],['k'],Y,Y,['k'],N,,,,,,,M,22,
45,2,497,0,0,10,['k'],['k'],Y,N,['space'],N,,,,,,,M,22,
45,3,498,9,9,10,['d'],['k'],N,N,None,Y,,,,,,,M,22,
45,4,499,10,10,10,['k'],['k'],Y,N,None,Y,25,26,22,,,,M,22,
45,5,500,8,8,11,['d'],['d'],N,,,,,,,Y,Y,Y,M,22,
45,6,501,4,4,11,['k'],['k'],N,,,,,,,,Y,Y,M,22,
45,7,502,3,3,11,['d'],['d'],N,Y,None,N,,,,,Y,Y,M,22,
45,8,503,6,6,11,['k'],['k'],N,N,['space'],N,,,,,Y,Y,M,22,
45,9,504,5,5,11,['k'],['k'],N,N,None,Y,,,,,Y,Y,M,22,
45,10,505,3,3,11,['k'],['d'],Y,N,['space'],N,,,,,Y,Y,M,22,
46,0,506,1,1,11,['k'],['d'],Y,Y,None,N,,,,,Y,Y,M,22,
46,1,507,2,2,11,['k'],['d'],Y,N,None,Y,,,,,Y,Y,M,22,
46,2,508,2,2,11,['k'],['d'],Y,Y,None,N,,,,,Y,Y,M,22,
46,3,509,10,10,11,['k'],['d'],Y,Y,None,N,,,,,Y,Y,M,22,
46,4,510,5,5,11,['d'],['k'],Y,N,None,Y,,,,,Y,Y,M,22,
46,5,511,10,10,11,['k'],['d'],Y,N,None,Y,,,,,Y,Y,M,22,
46,6,512,5,5,11,['d'],['k'],Y,N,None,Y,,,,,Y,Y,M,22,
46,7,513,1,1,11,['d'],['k'],Y,Y,None,N,,,,,Y,Y,M,22,
46,8,514,10,10,11,['d'],['k'],Y,Y,None,N,,,,,Y,Y,M,22,
46,9,515,2,2,11,['k'],['d'],Y,Y,None,N,,,,,Y,Y,M,22,
46,10,516,4,4,11,['k'],['k'],N,N,None,Y,,,,,Y,Y,M,22,
47,0,517,4,4,11,['k'],['d'],Y,N,None,Y,,,,,Y,Y,M,22,
47,1,518,0,0,11,['d'],['k'],Y,Y,None,N,,,,,Y,Y,M,22,
47,2,519,4,4,11,['k'],['d'],Y,Y,None,N,,,,,Y,Y,M,22,
47,3,520,9,9,11,['d'],['d'],N,N,None,Y,,,,,Y,Y,M,22,
47,4,521,3,3,11,['d'],['k'],Y,Y,None,N,,,,,Y,Y,M,22,
47,5,522,2,2,11,['k'],['k'],N,N,None,Y,,,,,Y,Y,M,22,
47,6,523,4,4,11,['d'],['k'],Y,Y,None,N,,,,,Y,Y,M,22,
47,7,524,6,6,11,['d'],['k'],Y,Y,None,N,,,,,Y,Y,M,22,
47,8,525,6,6,11,['d'],['k'],Y,Y,None,N,,,,,Y,Y,M,22,
47,9,526,10,10,11,['d'],['d'],N,Y,None,N,,,,,Y,Y,M,22,
47,10,527,4,4,11,['k'],['d'],Y,Y,['space'],Y,,,,,Y,Y,M,22,
48,0,528,9,9,11,['k'],['d'],Y,N,None,Y,,,,,Y,Y,M,22,
48,1,529,2,2,11,['d'],['k'],Y,N,['space'],N,,,,,Y,Y,M,22,
48,2,530,9,9,11,['d'],['k'],Y,N,['space'],N,,,,,Y,Y,M,22,
48,3,531,0,0,11,['d'],['d'],N,N,None,Y,,,,,Y,Y,M,22,
48,4,532,7,7,11,['d'],['k'],Y,N,None,Y,,,,,Y,Y,M,22,
48,5,533,8,8,11,['d'],['k'],Y,Y,None,N,,,,,Y,Y,M,22,
48,6,534,3,3,11,['d'],['d'],N,N,None,Y,,,,,Y,Y,M,22,
48,7,535,1,1,11,['d'],['k'],Y,N,None,Y,,,,,Y,Y,M,22,
48,8,536,4,4,11,['d'],['d'],N,N,None,Y,,,,,Y,Y,M,22,
48,9,537,7,7,11,['k'],['k'],N,Y,None,N,,,,,Y,Y,M,22,
48,10,538,4,4,11,['d'],['d'],N,N,None,Y,,,,,Y,Y,M,22,
49,0,539,3,3,11,['d'],['d'],N,Y,None,N,,,,,Y,Y,M,22,
49,1,540,8,8,11,['k'],['k'],N,Y,['space'],Y,,,,,Y,Y,M,22,
49,2,541,10,10,11,['d'],['k'],Y,N,None,Y,,,,,Y,Y,M,22,
49,3,542,2,2,11,['d'],['d'],N,Y,None,N,,,,,Y,Y,M,22,
49,4,543,8,8,11,['d'],['d'],N,Y,None,N,,,,,Y,Y,M,22,
49,5,544,0,0,11,['k'],['d'],Y,N,None,Y,,,,,Y,Y,M,22,
49,6,545,10,10,11,['d'],['d'],N,N,None,Y,,,,,Y,Y,M,22,
49,7,546,10,10,11,['d'],['d'],N,Y,None,N,,,,,Y,Y,M,22,
49,8,547,6,6,11,['d'],['k'],Y,Y,None,N,,,,,Y,Y,M,22,
49,9,548,9,9,11,['k'],['d'],Y,N,None,Y,,,,,Y,Y,M,22,
49,10,549,6,6,11,['k'],['d'],Y,Y,None,N,30,22,24,,Y,Y,M,22,
50,0,550,7,7,12,['d'],['k'],Y,,,,,,,,Y,Y,M,22,
50,1,551,7,7,12,['k'],['d'],Y,,,,,,,,Y,Y,M,22,
50,2,552,8,8,12,['k'],['k'],N,Y,['space'],Y,,,,,Y,Y,M,22,
50,3,553,7,7,12,['d'],['d'],N,N,None,Y,,,,,Y,Y,M,22,
50,4,554,0,0,12,['d'],['d'],N,Y,['space'],Y,,,,,Y,Y,M,22,
50,5,555,2,2,12,['d'],['d'],N,Y,None,N,,,,,Y,Y,M,22,
50,6,556,1,1,12,['k'],['d'],Y,N,None,Y,,,,,Y,Y,M,22,
50,7,557,5,5,12,['k'],['d'],Y,N,None,Y,,,,,Y,Y,M,22,
50,8,558,3,3,12,['k'],['d'],Y,N,['space'],N,,,,,Y,Y,M,22,
50,9,559,8,8,12,['d'],['d'],N,Y,None,N,,,,,Y,Y,M,22,
50,10,560,6,6,12,['d'],['d'],N,N,None,Y,,,,,Y,Y,M,22,
51,0,561,2,2,12,['k'],['k'],N,Y,None,N,,,,,Y,Y,M,22,
51,1,562,0,0,12,['d'],['d'],N,N,None,Y,,,,,Y,Y,M,22,
51,2,563,6,6,12,['d'],['d'],N,Y,None,N,,,,,Y,Y,M,22,
51,3,564,10,10,12,['k'],['d'],Y,N,None,Y,,,,,Y,Y,M,22,
51,4,565,2,2,12,['d'],['d'],N,Y,None,N,,,,,Y,Y,M,22,
51,5,566,0,0,12,['k'],['d'],Y,Y,['space'],Y,,,,,Y,Y,M,22,
51,6,567,8,8,12,['d'],['k'],Y,Y,['space'],Y,,,,,Y,Y,M,22,
51,7,568,8,8,12,['k'],['k'],N,N,['space'],N,,,,,Y,Y,M,22,
51,8,569,7,7,12,['k'],['d'],Y,Y,['d'],N,,,,,Y,Y,M,22,
51,9,570,1,1,12,['d'],['d'],N,N,None,Y,,,,,Y,Y,M,22,
51,10,571,0,0,12,['k'],['d'],Y,N,['space'],N,,,,,Y,Y,M,22,
52,0,572,8,8,12,['k'],['d'],Y,Y,['space'],Y,,,,,Y,Y,M,22,
52,1,573,5,5,12,['d'],['d'],N,Y,None,N,,,,,Y,Y,M,22,
52,2,574,2,2,12,['d'],['d'],N,N,['space'],N,,,,,Y,Y,M,22,
52,3,575,8,8,12,['d'],['d'],N,N,None,Y,,,,,Y,Y,M,22,
52,4,576,8,8,12,['k'],['k'],N,N,['space'],N,,,,,Y,Y,M,22,
52,5,577,10,10,12,['k'],['k'],N,N,None,Y,,,,,Y,Y,M,22,
52,6,578,1,1,12,['k'],['k'],N,N,['k'],N,,,,,Y,Y,M,22,
52,7,579,1,1,12,['d'],['k'],Y,N,['d'],N,,,,,Y,Y,M,22,
52,8,580,5,5,12,['k'],['d'],Y,Y,None,N,,,,,Y,Y,M,22,
52,9,581,6,6,12,['d'],['k'],Y,N,None,Y,,,,,Y,Y,M,22,
52,10,582,7,7,12,['d'],['k'],Y,Y,None,N,,,,,Y,Y,M,22,
53,0,583,7,7,12,['d'],['d'],N,N,None,Y,,,,,Y,Y,M,22,
53,1,584,10,10,12,['d'],['d'],N,Y,['k'],N,,,,,Y,Y,M,22,
53,2,585,3,3,12,['k'],['d'],Y,Y,['space'],Y,,,,,Y,Y,M,22,
53,3,586,4,4,12,['k'],['d'],Y,Y,['k'],N,,,,,Y,Y,M,22,
53,4,587,6,6,12,['k'],['k'],N,N,['space'],N,,,,,Y,Y,M,22,
53,5,588,8,8,12,['d'],['d'],N,Y,None,N,,,,,Y,Y,M,22,
53,6,589,4,4,12,['k'],['k'],N,Y,None,N,,,,,Y,Y,M,22,
53,7,590,6,6,12,['d'],['k'],Y,N,None,Y,,,,,Y,Y,M,22,
53,8,591,6,6,12,['k'],['d'],Y,N,None,Y,,,,,Y,Y,M,22,
53,9,592,1,1,12,['k'],['k'],N,N,['space'],N,,,,,Y,Y,M,22,
53,10,593,6,6,12,['k'],['k'],N,N,None,Y,,,,,Y,Y,M,22,
54,0,594,0,0,12,['d'],['d'],N,Y,None,N,,,,,Y,Y,M,22,
54,1,595,6,6,12,['k'],['k'],N,N,None,Y,,,,,Y,Y,M,22,
54,2,596,6,6,12,['k'],['k'],N,Y,None,N,,,,,Y,Y,M,22,
54,3,597,8,8,12,['k'],['k'],N,Y,None,N,,,,,Y,Y,M,22,
54,4,598,7,7,12,['k'],['k'],N,Y,['space'],Y,,,,,Y,Y,M,22,
54,5,599,2,2,12,None,,Timed out,N,['space'],N,19,22,23,,Y,Y,M,22,
