.thisRepN,.thisTrialN,.thisN,.thisIndex,.thisTrial,Block Number,Key pressed,Category,Correct?,Int Match?,Int Response,Int Correct?,Line Accuracy,Interference Accuracy,Matching Interferences,New instruction shown?,Buttons switched?,Fast?,gender,age
0,0,0,8,8,1,['d'],['k'],N,,,,,,,,,,F,19
0,1,1,7,7,1,['d'],['k'],N,,,,,,,,,,F,19
0,2,2,0,0,1,['k'],['k'],Y,Y,['space'],Y,,,,,,,F,19
0,3,3,4,4,1,['d'],['k'],N,N,None,Y,,,,,,,F,19
0,4,4,0,0,1,['d'],['d'],Y,N,None,Y,,,,,,,F,19
0,5,5,1,1,1,['k'],['d'],N,N,None,Y,,,,,,,F,19
0,6,6,1,1,1,['d'],['k'],N,N,['space'],N,,,,,,,F,19
0,7,7,4,4,1,['k'],['d'],N,N,['space'],N,,,,,,,F,19
0,8,8,8,8,1,['d'],['d'],Y,N,None,Y,,,,,,,F,19
0,9,9,6,6,1,['d'],['d'],Y,Y,['space'],Y,,,,,,,F,19
0,10,10,8,8,1,['k'],['k'],Y,N,None,Y,,,,,,,F,19
1,0,11,3,3,1,['d'],['d'],Y,Y,['space'],Y,,,,,,,F,19
1,1,12,0,0,1,['d'],['d'],Y,Y,['space'],Y,,,,,,,F,19
1,2,13,10,10,1,['d'],['d'],Y,Y,['space'],Y,,,,,,,F,19
1,3,14,5,5,1,['d'],['d'],Y,N,None,Y,,,,,,,F,19
1,4,15,7,7,1,['k'],['d'],N,N,None,Y,,,,,,,F,19
1,5,16,6,6,1,['d'],['d'],Y,N,None,Y,,,,,,,F,19
1,6,17,7,7,1,['k'],['d'],N,Y,None,N,,,,,,,F,19
1,7,18,6,6,1,['d'],['k'],N,Y,['space'],Y,,,,,,,F,19
1,8,19,7,7,1,['k'],['d'],N,N,['space'],N,,,,,,,F,19
1,9,20,5,5,1,['d'],['k'],N,N,['space'],N,,,,,,,F,19
1,10,21,0,0,1,['d'],['d'],Y,N,None,Y,,,,,,,F,19
2,0,22,4,4,1,['k'],['d'],N,Y,None,N,,,,,,,F,19
2,1,23,9,9,1,['d'],['d'],Y,Y,None,N,,,,,,,F,19
2,2,24,10,10,1,['d'],['d'],Y,Y,['space'],Y,,,,,,,F,19
2,3,25,2,2,1,['k'],['d'],N,N,None,Y,,,,,,,F,19
2,4,26,5,5,1,['k'],['k'],Y,N,None,Y,,,,,,,F,19
2,5,27,0,0,1,['d'],['d'],Y,N,None,Y,,,,,,,F,19
2,6,28,6,6,1,['d'],['k'],N,Y,['space'],Y,,,,,,,F,19
2,7,29,3,3,1,['k'],['d'],N,N,None,Y,,,,,,,F,19
2,8,30,9,9,1,['d'],['k'],N,N,None,Y,,,,,,,F,19
2,9,31,9,9,1,['d'],['d'],Y,Y,['space'],Y,,,,,,,F,19
2,10,32,8,8,1,['d'],['k'],N,N,None,Y,,,,,,,F,19
3,0,33,3,3,1,['d'],['d'],Y,N,None,Y,,,,,,,F,19
3,1,34,0,0,1,['k'],['k'],Y,N,None,Y,,,,,,,F,19
3,2,35,5,5,1,['d'],['d'],Y,Y,['space'],Y,,,,,,,F,19
3,3,36,5,5,1,['k'],['k'],Y,N,None,Y,,,,,,,F,19
3,4,37,2,2,1,['d'],['d'],Y,N,None,Y,,,,,,,F,19
3,5,38,6,6,1,['d'],['d'],Y,Y,['space'],Y,,,,,,,F,19
3,6,39,5,5,1,['k'],['k'],Y,N,None,Y,,,,,,,F,19
3,7,40,5,5,1,['k'],['k'],Y,Y,['space'],Y,,,,,,,F,19
3,8,41,4,4,1,['d'],['d'],Y,N,['space'],N,,,,,,,F,19
3,9,42,8,8,1,['d'],['d'],Y,N,None,Y,,,,,,,F,19
3,10,43,4,4,1,['d'],['d'],Y,Y,['space'],Y,,,,,,,F,19
4,0,44,2,2,1,['k'],['k'],Y,Y,['space'],Y,,,,,,,F,19
4,1,45,5,5,1,['d'],['d'],Y,Y,['space'],Y,,,,,,,F,19
4,2,46,9,9,1,['k'],['k'],Y,N,None,Y,,,,,,,F,19
4,3,47,7,7,1,['k'],['k'],Y,Y,['space'],Y,,,,,,,F,19
4,4,48,9,9,1,['k'],['k'],Y,Y,['space'],Y,,,,,,,F,19
4,5,49,6,6,1,['k'],['k'],Y,N,None,Y,33,40,20,,,,F,19
4,6,50,5,5,2,['k'],['k'],Y,,,,,,,,,,F,19
4,7,51,10,10,2,['k'],['d'],N,,,,,,,,,,F,19
4,8,52,8,8,2,['d'],['d'],Y,N,None,Y,,,,,,,F,19
4,9,53,9,9,2,['k'],['k'],Y,N,None,Y,,,,,,,F,19
4,10,54,7,7,2,['k'],['k'],Y,N,None,Y,,,,,,,F,19
5,0,55,8,8,2,['k'],['k'],Y,N,None,Y,,,,,,,F,19
5,1,56,8,8,2,['d'],['d'],Y,N,None,Y,,,,,,,F,19
5,2,57,0,0,2,['d'],['d'],Y,N,None,Y,,,,,,,F,19
5,3,58,4,4,2,['k'],['k'],Y,Y,['space'],Y,,,,,,,F,19
5,4,59,9,9,2,['d'],['d'],Y,N,None,Y,,,,,,,F,19
5,5,60,9,9,2,['d'],['d'],Y,Y,['space'],Y,,,,,,,F,19
5,6,61,5,5,2,['k'],['k'],Y,N,None,Y,,,,,,,F,19
5,7,62,0,0,2,['k'],['k'],Y,N,None,Y,,,,,,,F,19
5,8,63,2,2,2,['k'],['d'],N,Y,['space'],Y,,,,,,,F,19
5,9,64,1,1,2,['d'],['k'],N,N,None,Y,,,,,,,F,19
5,10,65,9,9,2,['d'],['d'],Y,N,None,Y,,,,,,,F,19
6,0,66,5,5,2,['k'],['k'],Y,Y,['space'],Y,,,,,,,F,19
6,1,67,4,4,2,['k'],['k'],Y,N,None,Y,,,,,,,F,19
6,2,68,6,6,2,['d'],['d'],Y,Y,['space'],Y,,,,,,,F,19
6,3,69,2,2,2,['d'],['d'],Y,N,None,Y,,,,,,,F,19
6,4,70,7,7,2,['d'],['d'],Y,N,None,Y,,,,,,,F,19
6,5,71,10,10,2,['d'],['d'],Y,N,None,Y,,,,,,,F,19
6,6,72,4,4,2,['k'],['k'],Y,Y,['space'],Y,,,,,,,F,19
6,7,73,1,1,2,['d'],['d'],Y,N,None,Y,,,,,,,F,19
6,8,74,1,1,2,['k'],['k'],Y,N,None,Y,,,,,,,F,19
6,9,75,8,8,2,['k'],['k'],Y,N,None,Y,,,,,,,F,19
6,10,76,7,7,2,['k'],['k'],Y,Y,['space'],Y,,,,,,,F,19
7,0,77,7,7,2,['d'],['d'],Y,N,None,Y,,,,,,,F,19
7,1,78,5,5,2,['k'],['k'],Y,N,None,Y,,,,,,,F,19
7,2,79,6,6,2,['k'],['d'],N,N,None,Y,,,,,,,F,19
7,3,80,7,7,2,['d'],['d'],Y,Y,['space'],Y,,,,,,,F,19
7,4,81,4,4,2,['k'],['k'],Y,Y,['space'],Y,,,,,,,F,19
7,5,82,4,4,2,['k'],['k'],Y,Y,['space'],Y,,,,,,,F,19
7,6,83,4,4,2,['d'],['d'],Y,Y,['space'],Y,,,,,,,F,19
7,7,84,4,4,2,['k'],['k'],Y,Y,['space'],Y,,,,,,,F,19
7,8,85,8,8,2,['d'],['k'],N,Y,['space'],Y,,,,,,,F,19
7,9,86,0,0,2,['k'],['k'],Y,Y,['space'],Y,,,,,,,F,19
7,10,87,0,0,2,['d'],['d'],Y,Y,['space'],Y,,,,,,,F,19
8,0,88,2,2,2,['k'],['k'],Y,N,None,Y,,,,,,,F,19
8,1,89,9,9,2,['k'],['d'],N,Y,['space'],Y,,,,,,,F,19
8,2,90,4,4,2,['k'],['k'],Y,N,None,Y,,,,,,,F,19
8,3,91,5,5,2,['d'],['d'],Y,N,None,Y,,,,,,,F,19
8,4,92,1,1,2,['d'],['d'],Y,N,None,Y,,,,,,,F,19
8,5,93,5,5,2,['k'],['k'],Y,N,None,Y,,,,,,,F,19
8,6,94,8,8,2,['k'],['k'],Y,N,None,Y,,,,,,,F,19
8,7,95,0,0,2,['d'],['d'],Y,N,None,Y,,,,,,,F,19
8,8,96,2,2,2,['d'],['d'],Y,N,None,Y,,,,,,,F,19
8,9,97,7,7,2,['k'],['k'],Y,N,None,Y,,,,,,,F,19
8,10,98,1,1,2,['d'],['k'],N,Y,['space'],Y,,,,,,,F,19
9,0,99,0,0,2,['k'],['k'],Y,N,None,Y,43,48,17,,,,F,19
9,1,100,2,2,3,['k'],['k'],Y,,,,,,,,,,F,19
9,2,101,6,6,3,['d'],['d'],Y,,,,,,,,,,F,19
9,3,102,2,2,3,['d'],['d'],Y,Y,['space'],Y,,,,,,,F,19
9,4,103,4,4,3,['k'],['k'],Y,N,None,Y,,,,,,,F,19
9,5,104,10,10,3,['k'],['k'],Y,Y,['space'],Y,,,,,,,F,19
9,6,105,1,1,3,['d'],['d'],Y,Y,['space'],Y,,,,,,,F,19
9,7,106,10,10,3,['d'],['d'],Y,Y,['space'],Y,,,,,,,F,19
9,8,107,2,2,3,['k'],['k'],Y,Y,['space'],Y,,,,,,,F,19
9,9,108,8,8,3,['k'],['k'],Y,Y,['space'],Y,,,,,,,F,19
9,10,109,7,7,3,['d'],['k'],N,N,None,Y,,,,,,,F,19
10,0,110,10,10,3,['k'],['k'],Y,Y,['space'],Y,,,,,,,F,19
10,1,111,0,0,3,['d'],['d'],Y,N,None,Y,,,,,,,F,19
10,2,112,8,8,3,['d'],['d'],Y,Y,['space'],Y,,,,,,,F,19
10,3,113,9,9,3,['d'],['d'],Y,Y,['space'],Y,,,,,,,F,19
10,4,114,3,3,3,['d'],['d'],Y,Y,None,N,,,,,,,F,19
10,5,115,5,5,3,['k'],['k'],Y,N,None,Y,,,,,,,F,19
10,6,116,5,5,3,['k'],['d'],N,N,None,Y,,,,,,,F,19
10,7,117,5,5,3,['k'],['k'],Y,Y,['space'],Y,,,,,,,F,19
10,8,118,5,5,3,['k'],['k'],Y,Y,['space'],Y,,,,,,,F,19
10,9,119,5,5,3,['d'],['d'],Y,Y,['space'],Y,,,,,,,F,19
10,10,120,7,7,3,['d'],['d'],Y,Y,['space'],Y,,,,,,,F,19
11,0,121,9,9,3,['k'],['k'],Y,N,None,Y,,,,,,,F,19
11,1,122,0,0,3,['k'],['k'],Y,Y,['space'],Y,,,,,,,F,19
11,2,123,1,1,3,['d'],['d'],Y,N,None,Y,,,,,,,F,19
11,3,124,1,1,3,['k'],['k'],Y,Y,['space'],Y,,,,,,,F,19
11,4,125,10,10,3,['k'],['k'],Y,N,None,Y,,,,,,,F,19
11,5,126,0,0,3,['k'],['k'],Y,Y,['space'],Y,,,,,,,F,19
11,6,127,5,5,3,['k'],['d'],N,Y,None,N,,,,,,,F,19
11,7,128,9,9,3,['d'],['d'],Y,Y,['space'],Y,,,,,,,F,19
11,8,129,4,4,3,['k'],['k'],Y,N,None,Y,,,,,,,F,19
11,9,130,4,4,3,['k'],['k'],Y,Y,['space'],Y,,,,,,,F,19
11,10,131,6,6,3,['k'],['k'],Y,N,None,Y,,,,,,,F,19
12,0,132,2,2,3,['d'],['d'],Y,N,None,Y,,,,,,,F,19
12,1,133,2,2,3,['k'],['k'],Y,N,None,Y,,,,,,,F,19
12,2,134,5,5,3,['k'],['d'],N,Y,['space'],Y,,,,,,,F,19
12,3,135,1,1,3,['k'],['k'],Y,N,None,Y,,,,,,,F,19
12,4,136,3,3,3,['k'],['k'],Y,N,None,Y,,,,,,,F,19
12,5,137,4,4,3,['d'],['d'],Y,Y,['space'],Y,,,,,,,F,19
12,6,138,4,4,3,['k'],['d'],N,Y,['space'],Y,,,,,,,F,19
12,7,139,2,2,3,['k'],['d'],N,Y,['space'],Y,,,,,,,F,19
12,8,140,3,3,3,['k'],['k'],Y,Y,['space'],Y,,,,,,,F,19
12,9,141,0,0,3,['d'],['d'],Y,N,None,Y,,,,,,,F,19
12,10,142,10,10,3,['d'],['d'],Y,N,None,Y,,,,,,,F,19
13,0,143,6,6,3,['d'],['d'],Y,N,None,Y,,,,,,,F,19
13,1,144,9,9,3,['d'],['d'],Y,N,None,Y,,,,,,,F,19
13,2,145,9,9,3,['k'],['k'],Y,N,None,Y,,,,,,,F,19
13,3,146,7,7,3,['k'],['d'],N,N,None,Y,,,,,,,F,19
13,4,147,7,7,3,['d'],['d'],Y,N,['space'],N,,,,,,,F,19
13,5,148,1,1,3,['k'],['k'],Y,N,None,Y,,,,,,,F,19
13,6,149,4,4,3,['d'],['d'],Y,N,None,Y,43,45,25,,,,F,19
13,7,150,2,2,4,['k'],['d'],N,,,,,,,,,,F,19
13,8,151,9,9,4,['d'],['d'],Y,,,,,,,,,,F,19
13,9,152,1,1,4,['d'],['d'],Y,Y,['space'],Y,,,,,,,F,19
13,10,153,10,10,4,['d'],['d'],Y,Y,['space'],Y,,,,,,,F,19
14,0,154,9,9,4,['d'],['d'],Y,N,None,Y,,,,,,,F,19
14,1,155,10,10,4,['d'],['d'],Y,N,None,Y,,,,,,,F,19
14,2,156,5,5,4,['k'],['k'],Y,N,None,Y,,,,,,,F,19
14,3,157,7,7,4,['k'],['d'],N,Y,['space'],Y,,,,,,,F,19
14,4,158,1,1,4,['d'],['d'],Y,N,None,Y,,,,,,,F,19
14,5,159,4,4,4,['k'],['k'],Y,Y,['space'],Y,,,,,,,F,19
14,6,160,6,6,4,['d'],['d'],Y,Y,['space'],Y,,,,,,,F,19
14,7,161,10,10,4,['d'],['k'],N,N,None,Y,,,,,,,F,19
14,8,162,10,10,4,['k'],['k'],Y,Y,None,N,,,,,,,F,19
14,9,163,10,10,4,['k'],['k'],Y,Y,['d'],N,,,,,,,F,19
14,10,164,9,9,4,['d'],['d'],Y,Y,None,N,,,,,,,F,19
15,0,165,4,4,4,['d'],['k'],N,Y,['space'],Y,,,,,,,F,19
15,1,166,3,3,4,['k'],['k'],Y,Y,['space'],Y,,,,,,,F,19
15,2,167,9,9,4,['k'],['k'],Y,Y,['space'],Y,,,,,,,F,19
15,3,168,0,0,4,['d'],['d'],Y,Y,['space'],Y,,,,,,,F,19
15,4,169,5,5,4,['k'],['k'],Y,N,None,Y,,,,,,,F,19
15,5,170,7,7,4,['d'],['d'],Y,N,None,Y,,,,,,,F,19
15,6,171,0,0,4,['k'],['k'],Y,N,None,Y,,,,,,,F,19
15,7,172,5,5,4,['k'],['k'],Y,Y,None,N,,,,,,,F,19
15,8,173,3,3,4,['d'],['d'],Y,Y,['space'],Y,,,,,,,F,19
15,9,174,10,10,4,['k'],['k'],Y,N,None,Y,,,,,,,F,19
15,10,175,9,9,4,['d'],['d'],Y,Y,['space'],Y,,,,,,,F,19
16,0,176,8,8,4,['d'],['d'],Y,Y,['space'],Y,,,,,,,F,19
16,1,177,7,7,4,['k'],['k'],Y,Y,['space'],Y,,,,,,,F,19
16,2,178,3,3,4,['k'],['k'],Y,N,None,Y,,,,,,,F,19
16,3,179,9,9,4,['d'],['d'],Y,Y,['space'],Y,,,,,,,F,19
16,4,180,8,8,4,['k'],['k'],Y,Y,['space'],Y,,,,,,,F,19
16,5,181,1,1,4,['k'],['k'],Y,Y,['space'],Y,,,,,,,F,19
16,6,182,0,0,4,['d'],['d'],Y,Y,['space'],Y,,,,,,,F,19
16,7,183,8,8,4,['k'],['k'],Y,N,None,Y,,,,,,,F,19
16,8,184,7,7,4,['d'],['d'],Y,N,None,Y,,,,,,,F,19
16,9,185,7,7,4,['k'],['k'],Y,Y,['space'],Y,,,,,,,F,19
16,10,186,10,10,4,['k'],['k'],Y,N,None,Y,,,,,,,F,19
17,0,187,5,5,4,['k'],['k'],Y,N,None,Y,,,,,,,F,19
17,1,188,7,7,4,['d'],['d'],Y,N,None,Y,,,,,,,F,19
17,2,189,10,10,4,['d'],['d'],Y,N,None,Y,,,,,,,F,19
17,3,190,3,3,4,['k'],['k'],Y,Y,['space'],Y,,,,,,,F,19
17,4,191,1,1,4,['d'],['d'],Y,Y,['space'],Y,,,,,,,F,19
17,5,192,0,0,4,['k'],['k'],Y,N,['space'],N,,,,,,,F,19
17,6,193,6,6,4,['d'],['d'],Y,N,None,Y,,,,,,,F,19
17,7,194,7,7,4,['d'],['d'],Y,N,None,Y,,,,,,,F,19
17,8,195,2,2,4,['d'],['d'],Y,N,None,Y,,,,,,,F,19
17,9,196,0,0,4,['k'],['k'],Y,N,None,Y,,,,,,,F,19
17,10,197,2,2,4,['k'],['d'],N,Y,['space'],Y,,,,,,,F,19
18,0,198,8,8,4,['d'],['d'],Y,N,None,Y,,,,,,,F,19
18,1,199,8,8,4,['k'],['k'],Y,N,None,Y,45,43,25,,,,F,19
18,2,200,9,9,5,['k'],['k'],Y,,,,,,,,,,F,19
18,3,201,0,0,5,['k'],['k'],Y,,,,,,,,,,F,19
18,4,202,2,2,5,['k'],['k'],Y,N,None,Y,,,,,,,F,19
18,5,203,0,0,5,['k'],['k'],Y,N,None,Y,,,,,,,F,19
18,6,204,6,6,5,['k'],['k'],Y,N,None,Y,,,,,,,F,19
18,7,205,7,7,5,['k'],['k'],Y,Y,['space'],Y,,,,,,,F,19
18,8,206,2,2,5,['k'],['k'],Y,Y,['space'],Y,,,,,,,F,19
18,9,207,6,6,5,['d'],['d'],Y,N,None,Y,,,,,,,F,19
18,10,208,6,6,5,['k'],['k'],Y,Y,['space'],Y,,,,,,,F,19
19,0,209,1,1,5,['d'],['d'],Y,N,None,Y,,,,,,,F,19
19,1,210,7,7,5,['k'],['k'],Y,Y,['space'],Y,,,,,,,F,19
19,2,211,3,3,5,['d'],['d'],Y,Y,['space'],Y,,,,,,,F,19
19,3,212,3,3,5,['d'],['d'],Y,N,None,Y,,,,,,,F,19
19,4,213,0,0,5,['k'],['k'],Y,Y,['space'],Y,,,,,,,F,19
19,5,214,5,5,5,['k'],['k'],Y,Y,['space'],Y,,,,,,,F,19
19,6,215,4,4,5,['d'],['d'],Y,N,None,Y,,,,,,,F,19
19,7,216,8,8,5,['d'],['d'],Y,N,None,Y,,,,,,,F,19
19,8,217,9,9,5,['d'],['d'],Y,N,None,Y,,,,,,,F,19
19,9,218,10,10,5,['d'],['d'],Y,N,None,Y,,,,,,,F,19
19,10,219,3,3,5,['k'],['k'],Y,N,None,Y,,,,,,,F,19
20,0,220,0,0,5,['k'],['k'],Y,Y,['space'],Y,,,,,,,F,19
20,1,221,2,2,5,['k'],['k'],Y,Y,['space'],Y,,,,,,,F,19
20,2,222,7,7,5,['k'],['d'],N,Y,['space'],Y,,,,,,,F,19
20,3,223,5,5,5,['k'],['k'],Y,N,None,Y,,,,,,,F,19
20,4,224,9,9,5,['d'],['d'],Y,N,None,Y,,,,,,,F,19
20,5,225,10,10,5,['d'],['d'],Y,Y,['space'],Y,,,,,,,F,19
20,6,226,8,8,5,['k'],['k'],Y,Y,['space'],Y,,,,,,,F,19
20,7,227,1,1,5,['k'],['k'],Y,Y,['space'],Y,,,,,,,F,19
20,8,228,4,4,5,['d'],['d'],Y,N,None,Y,,,,,,,F,19
20,9,229,9,9,5,['k'],['k'],Y,N,None,Y,,,,,,,F,19
20,10,230,4,4,5,['k'],['k'],Y,Y,['space'],Y,,,,,,,F,19
21,0,231,8,8,5,['d'],['d'],Y,N,None,Y,,,,,,,F,19
21,1,232,4,4,5,['k'],['k'],Y,N,None,Y,,,,,,,F,19
21,2,233,1,1,5,['k'],['k'],Y,N,None,Y,,,,,,,F,19
21,3,234,5,5,5,['k'],['k'],Y,Y,['space'],Y,,,,,,,F,19
21,4,235,2,2,5,['d'],['d'],Y,Y,['space'],Y,,,,,,,F,19
21,5,236,4,4,5,['k'],['k'],Y,Y,['space'],Y,,,,,,,F,19
21,6,237,4,4,5,['d'],['d'],Y,N,None,Y,,,,,,,F,19
21,7,238,0,0,5,['d'],['d'],Y,N,None,Y,,,,,,,F,19
21,8,239,10,10,5,['k'],['k'],Y,Y,['space'],Y,,,,,,,F,19
21,9,240,3,3,5,['d'],['d'],Y,N,None,Y,,,,,,,F,19
21,10,241,6,6,5,['k'],['k'],Y,N,None,Y,,,,,,,F,19
22,0,242,6,6,5,['k'],['k'],Y,Y,['space'],Y,,,,,,,F,19
22,1,243,2,2,5,['k'],['d'],N,Y,['space'],Y,,,,,,,F,19
22,2,244,9,9,5,['d'],['k'],N,N,None,Y,,,,,,,F,19
22,3,245,8,8,5,['k'],['k'],Y,N,None,Y,,,,,,,F,19
22,4,246,2,2,5,['d'],['d'],Y,N,None,Y,,,,,,,F,19
22,5,247,1,1,5,['k'],['k'],Y,Y,['space'],Y,,,,,,,F,19
22,6,248,2,2,5,['d'],['d'],Y,Y,['space'],Y,,,,,,,F,19
22,7,249,7,7,5,['k'],['d'],N,N,None,Y,46,48,22,,,,F,19
22,8,250,8,8,6,['k'],['k'],Y,,,,,,,,,,F,19
22,9,251,2,2,6,['d'],['d'],Y,,,,,,,,,,F,19
22,10,252,3,3,6,['k'],['k'],Y,N,None,Y,,,,,,,F,19
23,0,253,6,6,6,['d'],['k'],N,Y,None,N,,,,,,,F,19
23,1,254,4,4,6,['k'],['k'],Y,N,None,Y,,,,,,,F,19
23,2,255,0,0,6,['d'],['d'],Y,N,None,Y,,,,,,,F,19
23,3,256,3,3,6,['k'],['k'],Y,N,None,Y,,,,,,,F,19
23,4,257,3,3,6,['d'],['d'],Y,N,None,Y,,,,,,,F,19
23,5,258,3,3,6,['k'],['k'],Y,N,None,Y,,,,,,,F,19
23,6,259,5,5,6,['d'],['k'],N,Y,['space'],Y,,,,,,,F,19
23,7,260,6,6,6,['d'],['d'],Y,Y,['space'],Y,,,,,,,F,19
23,8,261,0,0,6,['d'],['d'],Y,Y,None,N,,,,,,,F,19
23,9,262,2,2,6,['d'],['d'],Y,Y,['space'],Y,,,,,,,F,19
23,10,263,6,6,6,['d'],['d'],Y,Y,['space'],Y,,,,,,,F,19
24,0,264,5,5,6,['d'],['d'],Y,Y,['space'],Y,,,,,,,F,19
24,1,265,3,3,6,['d'],['d'],Y,Y,['space'],Y,,,,,,,F,19
24,2,266,6,6,6,['d'],['d'],Y,N,None,Y,,,,,,,F,19
24,3,267,3,3,6,['k'],['k'],Y,N,None,Y,,,,,,,F,19
24,4,268,5,5,6,['d'],['d'],Y,Y,None,N,,,,,,,F,19
24,5,269,10,10,6,['k'],['k'],Y,N,None,Y,,,,,,,F,19
24,6,270,3,3,6,['d'],['d'],Y,Y,['space'],Y,,,,,,,F,19
24,7,271,3,3,6,['k'],['k'],Y,Y,['space'],Y,,,,,,,F,19
24,8,272,1,1,6,['k'],['k'],Y,N,None,Y,,,,,,,F,19
24,9,273,9,9,6,['d'],['d'],Y,N,None,Y,,,,,,,F,19
24,10,274,1,1,6,['k'],['k'],Y,N,None,Y,,,,,,,F,19
25,0,275,9,9,6,['d'],['d'],Y,N,None,Y,,,,,,,F,19
25,1,276,5,5,6,['k'],['k'],Y,N,None,Y,,,,,,,F,19
25,2,277,0,0,6,['d'],['d'],Y,N,None,Y,,,,,,,F,19
25,3,278,1,1,6,['d'],['d'],Y,N,None,Y,,,,,,,F,19
25,4,279,2,2,6,['k'],['k'],Y,N,None,Y,,,,,,,F,19
25,5,280,5,5,6,['d'],['d'],Y,Y,None,N,,,,,,,F,19
25,6,281,6,6,6,['k'],['k'],Y,Y,None,N,,,,,,,F,19
25,7,282,9,9,6,['k'],['d'],N,N,None,Y,,,,,,,F,19
25,8,283,10,10,6,['d'],['d'],Y,N,None,Y,,,,,,,F,19
25,9,284,3,3,6,['k'],['k'],Y,Y,['space'],Y,,,,,,,F,19
25,10,285,9,9,6,['d'],['d'],Y,N,None,Y,,,,,,,F,19
26,0,286,7,7,6,['d'],['d'],Y,Y,['space'],Y,,,,,,,F,19
26,1,287,6,6,6,['k'],['k'],Y,N,None,Y,,,,,,,F,19
26,2,288,3,3,6,['k'],['k'],Y,N,None,Y,,,,,,,F,19
26,3,289,3,3,6,['d'],['k'],N,Y,['space'],Y,,,,,,,F,19
26,4,290,10,10,6,['k'],['k'],Y,N,None,Y,,,,,,,F,19
26,5,291,8,8,6,['k'],['k'],Y,Y,['space'],Y,,,,,,,F,19
26,6,292,3,3,6,['d'],['d'],Y,N,None,Y,,,,,,,F,19
26,7,293,1,1,6,['k'],['k'],Y,N,None,Y,,,,,,,F,19
26,8,294,2,2,6,['d'],['d'],Y,Y,['space'],Y,,,,,,,F,19
26,9,295,10,10,6,['d'],['k'],N,Y,['space'],Y,,,,,,,F,19
26,10,296,10,10,6,['d'],['d'],Y,N,None,Y,,,,,,,F,19
27,0,297,9,9,6,['d'],['d'],Y,N,None,Y,,,,,,,F,19
27,1,298,10,10,6,['d'],['d'],Y,N,None,Y,,,,,,,F,19
27,2,299,4,4,6,['d'],['d'],Y,N,None,Y,45,43,19,,,,F,19
27,3,300,0,0,7,['d'],['d'],Y,,,,,,,,,,F,19
27,4,301,10,10,7,['d'],['d'],Y,,,,,,,,,,F,19
27,5,302,7,7,7,['d'],['d'],Y,Y,['space'],Y,,,,,,,F,19
27,6,303,4,4,7,['k'],['k'],Y,N,None,Y,,,,,,,F,19
27,7,304,4,4,7,['k'],['k'],Y,N,['space'],N,,,,,,,F,19
27,8,305,8,8,7,['k'],['k'],Y,Y,['space'],Y,,,,,,,F,19
27,9,306,7,7,7,['d'],['d'],Y,N,None,Y,,,,,,,F,19
27,10,307,1,1,7,['d'],['d'],Y,Y,['space'],Y,,,,,,,F,19
28,0,308,8,8,7,['d'],['d'],Y,Y,['space'],Y,,,,,,,F,19
28,1,309,5,5,7,['k'],['k'],Y,Y,['space'],Y,,,,,,,F,19
28,2,310,8,8,7,['d'],['d'],Y,N,None,Y,,,,,,,F,19
28,3,311,3,3,7,['d'],['d'],Y,Y,['space'],Y,,,,,,,F,19
28,4,312,10,10,7,['d'],['d'],Y,N,None,Y,,,,,,,F,19
28,5,313,9,9,7,['d'],['d'],Y,N,None,Y,,,,,,,F,19
28,6,314,4,4,7,['k'],['k'],Y,N,None,Y,,,,,,,F,19
28,7,315,0,0,7,['k'],['k'],Y,Y,['space'],Y,,,,,,,F,19
28,8,316,0,0,7,['d'],['d'],Y,N,None,Y,,,,,,,F,19
28,9,317,3,3,7,['k'],['k'],Y,Y,None,N,,,,,,,F,19
28,10,318,8,8,7,['d'],['d'],Y,Y,['space'],Y,,,,,,,F,19
29,0,319,1,1,7,['d'],['d'],Y,Y,['space'],Y,,,,,,,F,19
29,1,320,7,7,7,['d'],['d'],Y,Y,['space'],Y,,,,,,,F,19
29,2,321,3,3,7,['k'],['k'],Y,N,None,Y,,,,,,,F,19
29,3,322,3,3,7,['k'],['k'],Y,N,None,Y,,,,,,,F,19
29,4,323,1,1,7,['k'],['d'],N,Y,['space'],Y,,,,,,,F,19
29,5,324,7,7,7,['k'],['k'],Y,N,None,Y,,,,,,,F,19
29,6,325,7,7,7,['k'],['k'],Y,Y,['space'],Y,,,,,,,F,19
29,7,326,7,7,7,['k'],['k'],Y,N,None,Y,,,,,,,F,19
29,8,327,1,1,7,['d'],['k'],N,Y,['space'],Y,,,,,,,F,19
29,9,328,1,1,7,['d'],['d'],Y,Y,['space'],Y,,,,,,,F,19
29,10,329,2,2,7,['d'],['d'],Y,N,None,Y,,,,,,,F,19
30,0,330,2,2,7,['k'],['k'],Y,Y,None,N,,,,,,,F,19
30,1,331,3,3,7,['d'],['d'],Y,Y,['space'],Y,,,,,,,F,19
30,2,332,8,8,7,['d'],['d'],Y,Y,['space'],Y,,,,,,,F,19
30,3,333,6,6,7,['d'],['d'],Y,N,None,Y,,,,,,,F,19
30,4,334,1,1,7,['k'],['k'],Y,Y,None,N,,,,,,,F,19
30,5,335,3,3,7,['d'],['d'],Y,N,None,Y,,,,,,,F,19
30,6,336,3,3,7,['d'],['d'],Y,Y,['space'],Y,,,,,,,F,19
30,7,337,6,6,7,['d'],['d'],Y,Y,['space'],Y,,,,,,,F,19
30,8,338,0,0,7,['d'],['d'],Y,Y,['space'],Y,,,,,,,F,19
30,9,339,8,8,7,['d'],['k'],N,N,['space'],N,,,,,,,F,19
30,10,340,5,5,7,['k'],['k'],Y,Y,None,N,,,,,,,F,19
31,0,341,8,8,7,['k'],['k'],Y,Y,['space'],Y,,,,,,,F,19
31,1,342,6,6,7,['k'],['k'],Y,Y,['space'],Y,,,,,,,F,19
31,2,343,10,10,7,['k'],['d'],N,N,None,Y,,,,,,,F,19
31,3,344,8,8,7,['k'],['k'],Y,N,None,Y,,,,,,,F,19
31,4,345,7,7,7,['d'],['d'],Y,N,None,Y,,,,,,,F,19
31,5,346,0,0,7,['k'],['k'],Y,N,None,Y,,,,,,,F,19
31,6,347,8,8,7,['d'],['d'],Y,N,None,Y,,,,,,,F,19
31,7,348,2,2,7,['d'],['d'],Y,N,None,Y,,,,,,,F,19
31,8,349,10,10,7,['d'],['d'],Y,N,None,Y,46,42,25,,,,F,19
31,9,350,1,1,8,['k'],['d'],N,,,,,,,,,,F,19
31,10,351,4,4,8,['d'],['d'],Y,,,,,,,,,,F,19
32,0,352,5,5,8,['k'],['k'],Y,N,None,Y,,,,,,,F,19
32,1,353,1,1,8,['k'],['d'],N,N,None,Y,,,,,,,F,19
32,2,354,6,6,8,['d'],['d'],Y,Y,['space'],Y,,,,,,,F,19
32,3,355,8,8,8,['d'],['k'],N,Y,['space'],Y,,,,,,,F,19
32,4,356,1,1,8,['k'],['k'],Y,N,None,Y,,,,,,,F,19
32,5,357,5,5,8,['k'],['k'],Y,Y,['space'],Y,,,,,,,F,19
32,6,358,2,2,8,['d'],['d'],Y,N,None,Y,,,,,,,F,19
32,7,359,2,2,8,['k'],['k'],Y,Y,['space'],Y,,,,,,,F,19
32,8,360,0,0,8,['d'],['d'],Y,Y,['space'],Y,,,,,,,F,19
32,9,361,10,10,8,['d'],['d'],Y,N,None,Y,,,,,,,F,19
32,10,362,2,2,8,['d'],['d'],Y,Y,None,N,,,,,,,F,19
33,0,363,8,8,8,['d'],['d'],Y,Y,['space'],Y,,,,,,,F,19
33,1,364,3,3,8,['d'],['d'],Y,Y,['space'],Y,,,,,,,F,19
33,2,365,4,4,8,['k'],['k'],Y,N,None,Y,,,,,,,F,19
33,3,366,6,6,8,['d'],['d'],Y,Y,['space'],Y,,,,,,,F,19
33,4,367,5,5,8,['d'],['d'],Y,Y,None,N,,,,,,,F,19
33,5,368,1,1,8,['d'],['d'],Y,Y,None,N,,,,,,,F,19
33,6,369,3,3,8,['k'],['d'],N,Y,['space'],Y,,,,,,,F,19
33,7,370,5,5,8,['d'],['d'],Y,Y,['space'],Y,,,,,,,F,19
33,8,371,4,4,8,['k'],['k'],Y,Y,['space'],Y,,,,,,,F,19
33,9,372,3,3,8,['k'],['k'],Y,Y,['space'],Y,,,,,,,F,19
33,10,373,6,6,8,['k'],['d'],N,Y,['space'],Y,,,,,,,F,19
34,0,374,7,7,8,['k'],['k'],Y,Y,['space'],Y,,,,,,,F,19
34,1,375,2,2,8,['d'],['d'],Y,N,None,Y,,,,,,,F,19
34,2,376,1,1,8,['d'],['d'],Y,N,None,Y,,,,,,,F,19
34,3,377,10,10,8,['d'],['d'],Y,Y,['space'],Y,,,,,,,F,19
34,4,378,10,10,8,['k'],['k'],Y,N,None,Y,,,,,,,F,19
34,5,379,7,7,8,['k'],['k'],Y,N,None,Y,,,,,,,F,19
34,6,380,1,1,8,['k'],['k'],Y,Y,['space'],Y,,,,,,,F,19
34,7,381,0,0,8,['d'],['d'],Y,Y,['space'],Y,,,,,,,F,19
34,8,382,0,0,8,['d'],['d'],Y,Y,['space'],Y,,,,,,,F,19
34,9,383,0,0,8,['d'],['d'],Y,Y,['space'],Y,,,,,,,F,19
34,10,384,5,5,8,['k'],['k'],Y,N,None,Y,,,,,,,F,19
35,0,385,4,4,8,['k'],['d'],N,N,None,Y,,,,,,,F,19
35,1,386,6,6,8,['k'],['k'],Y,Y,['space'],Y,,,,,,,F,19
35,2,387,10,10,8,['k'],['k'],Y,N,None,Y,,,,,,,F,19
35,3,388,7,7,8,['k'],['k'],Y,N,None,Y,,,,,,,F,19
35,4,389,2,2,8,['k'],['k'],Y,Y,None,N,,,,,,,F,19
35,5,390,4,4,8,['d'],['d'],Y,Y,['space'],Y,,,,,,,F,19
35,6,391,10,10,8,['k'],['k'],Y,N,None,Y,,,,,,,F,19
35,7,392,1,1,8,['k'],['k'],Y,N,None,Y,,,,,,,F,19
35,8,393,9,9,8,['d'],['d'],Y,N,None,Y,,,,,,,F,19
35,9,394,5,5,8,['k'],['k'],Y,N,None,Y,,,,,,,F,19
35,10,395,10,10,8,['k'],['k'],Y,N,None,Y,,,,,,,F,19
36,0,396,2,2,8,['d'],['k'],N,N,None,Y,,,,,,,F,19
36,1,397,1,1,8,['k'],['k'],Y,N,None,Y,,,,,,,F,19
36,2,398,9,9,8,['d'],['d'],Y,N,None,Y,,,,,,,F,19
36,3,399,5,5,8,['d'],['d'],Y,N,None,Y,43,44,25,,,,F,19
36,4,400,1,1,9,['d'],['d'],Y,,,,,,,,,,F,19
36,5,401,2,2,9,['k'],['k'],Y,,,,,,,,,,F,19
36,6,402,4,4,9,['k'],['k'],Y,Y,['space'],Y,,,,,,,F,19
36,7,403,9,9,9,['k'],['k'],Y,Y,['space'],Y,,,,,,,F,19
36,8,404,6,6,9,['d'],['d'],Y,N,None,Y,,,,,,,F,19
36,9,405,6,6,9,['d'],['d'],Y,Y,['space'],Y,,,,,,,F,19
36,10,406,2,2,9,['d'],['d'],Y,N,None,Y,,,,,,,F,19
37,0,407,2,2,9,['k'],['k'],Y,N,None,Y,,,,,,,F,19
37,1,408,7,7,9,['d'],['d'],Y,Y,['space'],Y,,,,,,,F,19
37,2,409,6,6,9,['k'],['k'],Y,Y,['space'],Y,,,,,,,F,19
37,3,410,10,10,9,['k'],['d'],N,Y,['space'],Y,,,,,,,F,19
37,4,411,2,2,9,['k'],['k'],Y,Y,['space'],Y,,,,,,,F,19
37,5,412,4,4,9,['k'],['k'],Y,N,None,Y,,,,,,,F,19
37,6,413,4,4,9,['d'],['d'],Y,Y,['space'],Y,,,,,,,F,19
37,7,414,0,0,9,['k'],['k'],Y,N,None,Y,,,,,,,F,19
37,8,415,6,6,9,['k'],['k'],Y,N,None,Y,,,,,,,F,19
37,9,416,3,3,9,['d'],['d'],Y,N,None,Y,,,,,,,F,19
37,10,417,7,7,9,['k'],['k'],Y,N,None,Y,,,,,,,F,19
38,0,418,0,0,9,['d'],['d'],Y,Y,['space'],Y,,,,,,,F,19
38,1,419,3,3,9,['k'],['k'],Y,N,None,Y,,,,,,,F,19
38,2,420,9,9,9,['d'],['d'],Y,Y,['space'],Y,,,,,,,F,19
38,3,421,6,6,9,['k'],['k'],Y,Y,['space'],Y,,,,,,,F,19
38,4,422,3,3,9,['k'],['k'],Y,N,None,Y,,,,,,,F,19
38,5,423,9,9,9,['d'],['d'],Y,N,None,Y,,,,,,,F,19
38,6,424,2,2,9,['d'],['d'],Y,N,None,Y,,,,,,,F,19
38,7,425,3,3,9,['d'],['d'],Y,N,None,Y,,,,,,,F,19
38,8,426,1,1,9,['d'],['d'],Y,Y,['space'],Y,,,,,,,F,19
38,9,427,10,10,9,['k'],['k'],Y,Y,['space'],Y,,,,,,,F,19
38,10,428,8,8,9,['d'],['d'],Y,Y,['space'],Y,,,,,,,F,19
39,0,429,8,8,9,['k'],['k'],Y,N,None,Y,,,,,,,F,19
39,1,430,9,9,9,['d'],['d'],Y,Y,['space'],Y,,,,,,,F,19
39,2,431,0,0,9,['d'],['d'],Y,N,None,Y,,,,,,,F,19
39,3,432,9,9,9,['k'],['k'],Y,Y,['space'],Y,,,,,,,F,19
39,4,433,9,9,9,['k'],['k'],Y,N,None,Y,,,,,,,F,19
39,5,434,2,2,9,['k'],['k'],Y,N,None,Y,,,,,,,F,19
39,6,435,1,1,9,['d'],['d'],Y,Y,['space'],Y,,,,,,,F,19
39,7,436,6,6,9,['k'],['k'],Y,Y,['space'],Y,,,,,,,F,19
39,8,437,8,8,9,['k'],['k'],Y,Y,['space'],Y,,,,,,,F,19
39,9,438,5,5,9,['k'],['k'],Y,Y,['space'],Y,,,,,,,F,19
39,10,439,7,7,9,['d'],['d'],Y,Y,None,N,,,,,,,F,19
40,0,440,7,7,9,['d'],['d'],Y,Y,None,N,,,,,,,F,19
40,1,441,7,7,9,['d'],['d'],Y,Y,['space'],Y,,,,,,,F,19
40,2,442,10,10,9,['d'],['d'],Y,Y,['space'],Y,,,,,,,F,19
40,3,443,4,4,9,['k'],['k'],Y,Y,['space'],Y,,,,,,,F,19
40,4,444,5,5,9,['k'],['k'],Y,N,None,Y,,,,,,,F,19
40,5,445,9,9,9,['d'],['d'],Y,N,None,Y,,,,,,,F,19
40,6,446,2,2,9,['d'],['d'],Y,N,None,Y,,,,,,,F,19
40,7,447,6,6,9,['k'],['k'],Y,N,None,Y,,,,,,,F,19
40,8,448,2,2,9,['d'],['d'],Y,N,None,Y,,,,,,,F,19
40,9,449,4,4,9,['k'],['d'],N,N,None,Y,48,46,25,,,,F,19
40,10,450,10,10,10,['d'],['d'],Y,,,,,,,,,,F,19
41,0,451,0,0,10,['k'],['k'],Y,,,,,,,,,,F,19
41,1,452,2,2,10,['k'],['k'],Y,Y,['space'],Y,,,,,,,F,19
41,2,453,1,1,10,['d'],['d'],Y,N,None,Y,,,,,,,F,19
41,3,454,9,9,10,['k'],['k'],Y,Y,['space'],Y,,,,,,,F,19
41,4,455,2,2,10,['d'],['k'],N,N,None,Y,,,,,,,F,19
41,5,456,3,3,10,['k'],['k'],Y,N,None,Y,,,,,,,F,19
41,6,457,3,3,10,['k'],['k'],Y,N,['space'],N,,,,,,,F,19
41,7,458,0,0,10,['k'],['k'],Y,Y,['space'],Y,,,,,,,F,19
41,8,459,10,10,10,['k'],['k'],Y,Y,['space'],Y,,,,,,,F,19
41,9,460,7,7,10,['k'],['k'],Y,N,None,Y,,,,,,,F,19
41,10,461,0,0,10,['k'],['k'],Y,Y,['space'],Y,,,,,,,F,19
42,0,462,4,4,10,['d'],['k'],N,Y,['space'],Y,,,,,,,F,19
42,1,463,4,4,10,['k'],['k'],Y,N,None,Y,,,,,,,F,19
42,2,464,10,10,10,['k'],['d'],N,N,None,Y,,,,,,,F,19
42,3,465,5,5,10,['d'],['d'],Y,N,None,Y,,,,,,,F,19
42,4,466,7,7,10,['k'],['k'],Y,Y,['space'],Y,,,,,,,F,19
42,5,467,10,10,10,['d'],['d'],Y,N,None,Y,,,,,,,F,19
42,6,468,4,4,10,['k'],['k'],Y,Y,['space'],Y,,,,,,,F,19
42,7,469,10,10,10,['d'],['k'],N,Y,['space'],Y,,,,,,,F,19
42,8,470,0,0,10,['k'],['k'],Y,Y,['space'],Y,,,,,,,F,19
42,9,471,7,7,10,['k'],['k'],Y,Y,['space'],Y,,,,,,,F,19
42,10,472,1,1,10,['k'],['k'],Y,N,None,Y,,,,,,,F,19
43,0,473,9,9,10,['d'],['d'],Y,Y,['space'],Y,,,,,,,F,19
43,1,474,5,5,10,['k'],['k'],Y,N,None,Y,,,,,,,F,19
43,2,475,0,0,10,['k'],['k'],Y,Y,['space'],Y,,,,,,,F,19
43,3,476,6,6,10,['d'],['d'],Y,Y,None,N,,,,,,,F,19
43,4,477,5,5,10,['k'],['k'],Y,Y,None,N,,,,,,,F,19
43,5,478,6,6,10,['k'],['k'],Y,Y,['space'],Y,,,,,,,F,19
43,6,479,8,8,10,['k'],['k'],Y,N,None,Y,,,,,,,F,19
43,7,480,9,9,10,['k'],['k'],Y,N,None,Y,,,,,,,F,19
43,8,481,4,4,10,['k'],['k'],Y,N,None,Y,,,,,,,F,19
43,9,482,7,7,10,['d'],['d'],Y,N,None,Y,,,,,,,F,19
43,10,483,1,1,10,['d'],['d'],Y,Y,['space'],Y,,,,,,,F,19
44,0,484,7,7,10,['d'],['d'],Y,Y,['space'],Y,,,,,,,F,19
44,1,485,6,6,10,['k'],['k'],Y,N,None,Y,,,,,,,F,19
44,2,486,3,3,10,['k'],['k'],Y,N,None,Y,,,,,,,F,19
44,3,487,10,10,10,['d'],['d'],Y,N,None,Y,,,,,,,F,19
44,4,488,8,8,10,['d'],['d'],Y,N,None,Y,,,,,,,F,19
44,5,489,3,3,10,['d'],['d'],Y,Y,['space'],Y,,,,,,,F,19
44,6,490,10,10,10,['d'],['d'],Y,Y,['space'],Y,,,,,,,F,19
44,7,491,9,9,10,['k'],['k'],Y,N,None,Y,,,,,,,F,19
44,8,492,3,3,10,['k'],['k'],Y,N,None,Y,,,,,,,F,19
44,9,493,9,9,10,['d'],['d'],Y,N,None,Y,,,,,,,F,19
44,10,494,3,3,10,['k'],['k'],Y,Y,['space'],Y,,,,,,,F,19
45,0,495,9,9,10,['d'],['d'],Y,N,None,Y,,,,,,,F,19
45,1,496,1,1,10,['k'],['k'],Y,Y,['space'],Y,,,,,,,F,19
45,2,497,1,1,10,['k'],['k'],Y,Y,None,N,,,,,,,F,19
45,3,498,10,10,10,['k'],['k'],Y,N,None,Y,,,,,,,F,19
45,4,499,6,6,10,['d'],['d'],Y,N,None,Y,46,44,23,,,,F,19
45,5,500,4,4,11,None,,Timed out,,,,,,,Y,Y,Y,F,19
45,6,501,7,7,11,['k'],['d'],Y,,,,,,,,Y,Y,F,19
45,7,502,1,1,11,['k'],['k'],N,N,None,Y,,,,,Y,Y,F,19
45,8,503,7,7,11,['k'],['d'],Y,N,None,Y,,,,,Y,Y,F,19
45,9,504,3,3,11,['k'],['d'],Y,Y,['space'],Y,,,,,Y,Y,F,19
45,10,505,7,7,11,['k'],['d'],Y,N,None,Y,,,,,Y,Y,F,19
46,0,506,9,9,11,['d'],['d'],N,N,None,Y,,,,,Y,Y,F,19
46,1,507,4,4,11,['d'],['k'],Y,Y,['space'],Y,,,,,Y,Y,F,19
46,2,508,8,8,11,['k'],['d'],Y,N,None,Y,,,,,Y,Y,F,19
46,3,509,9,9,11,['d'],['k'],Y,N,None,Y,,,,,Y,Y,F,19
46,4,510,8,8,11,['k'],['d'],Y,Y,['space'],Y,,,,,Y,Y,F,19
46,5,511,6,6,11,['d'],['k'],Y,Y,['space'],Y,,,,,Y,Y,F,19
46,6,512,8,8,11,['k'],['d'],Y,N,None,Y,,,,,Y,Y,F,19
46,7,513,2,2,11,['d'],['k'],Y,N,None,Y,,,,,Y,Y,F,19
46,8,514,0,0,11,['d'],['k'],Y,N,None,Y,,,,,Y,Y,F,19
46,9,515,2,2,11,['d'],['k'],Y,Y,['space'],Y,,,,,Y,Y,F,19
46,10,516,5,5,11,['d'],['k'],Y,N,None,Y,,,,,Y,Y,F,19
47,0,517,5,5,11,['d'],['k'],Y,N,None,Y,,,,,Y,Y,F,19
47,1,518,8,8,11,['d'],['k'],Y,Y,['space'],Y,,,,,Y,Y,F,19
47,2,519,3,3,11,['d'],['k'],Y,N,None,Y,,,,,Y,Y,F,19
47,3,520,3,3,11,['d'],['d'],N,Y,['space'],Y,,,,,Y,Y,F,19
47,4,521,7,7,11,['d'],['k'],Y,N,None,Y,,,,,Y,Y,F,19
47,5,522,0,0,11,['d'],['k'],Y,N,None,Y,,,,,Y,Y,F,19
47,6,523,5,5,11,['d'],['k'],Y,N,None,Y,,,,,Y,Y,F,19
47,7,524,2,2,11,['d'],['d'],N,N,None,Y,,,,,Y,Y,F,19
47,8,525,0,0,11,None,,Timed out,N,None,Y,,,,,Y,Y,F,19
47,9,526,10,10,11,['d'],['k'],Y,Y,['space'],Y,,,,,Y,Y,F,19
47,10,527,5,5,11,['k'],['d'],Y,Y,['space'],Y,,,,,Y,Y,F,19
48,0,528,10,10,11,['d'],['d'],N,N,None,Y,,,,,Y,Y,F,19
48,1,529,2,2,11,['d'],['k'],Y,N,None,Y,,,,,Y,Y,F,19
48,2,530,3,3,11,['k'],['d'],Y,Y,['space'],Y,,,,,Y,Y,F,19
48,3,531,2,2,11,['k'],['d'],Y,N,None,Y,,,,,Y,Y,F,19
48,4,532,3,3,11,['k'],['d'],Y,N,None,Y,,,,,Y,Y,F,19
48,5,533,1,1,11,['d'],['k'],Y,Y,['space'],Y,,,,,Y,Y,F,19
48,6,534,1,1,11,['k'],['d'],Y,Y,['space'],Y,,,,,Y,Y,F,19
48,7,535,4,4,11,None,,Timed out,Y,['space'],Y,,,,,Y,Y,F,19
48,8,536,6,6,11,None,,Timed out,N,['space'],N,,,,,Y,Y,F,19
48,9,537,0,0,11,['d'],['k'],Y,N,None,Y,,,,,Y,Y,F,19
48,10,538,3,3,11,['k'],['d'],Y,N,['space'],N,,,,,Y,Y,F,19
49,0,539,8,8,11,['k'],['d'],Y,N,None,Y,,,,,Y,Y,F,19
49,1,540,2,2,11,['d'],['d'],N,N,None,Y,,,,,Y,Y,F,19
49,2,541,3,3,11,['d'],['k'],Y,N,None,Y,,,,,Y,Y,F,19
49,3,542,4,4,11,['d'],['k'],Y,N,None,Y,,,,,Y,Y,F,19
49,4,543,4,4,11,['d'],['k'],Y,Y,['space'],Y,,,,,Y,Y,F,19
49,5,544,6,6,11,['k'],['d'],Y,Y,['space'],Y,,,,,Y,Y,F,19
49,6,545,7,7,11,['d'],['k'],Y,Y,['space'],Y,,,,,Y,Y,F,19
49,7,546,1,1,11,['k'],['d'],Y,Y,['space'],Y,,,,,Y,Y,F,19
49,8,547,6,6,11,['k'],['d'],Y,Y,['space'],Y,,,,,Y,Y,F,19
49,9,548,6,6,11,['k'],['d'],Y,N,None,Y,,,,,Y,Y,F,19
49,10,549,8,8,11,['k'],['k'],N,N,None,Y,39,46,18,,Y,Y,F,19
50,0,550,6,6,12,['k'],['d'],Y,,,,,,,,Y,Y,F,19
50,1,551,8,8,12,['d'],['k'],Y,,,,,,,,Y,Y,F,19
50,2,552,10,10,12,['d'],['k'],Y,N,None,Y,,,,,Y,Y,F,19
50,3,553,1,1,12,['d'],['k'],Y,N,None,Y,,,,,Y,Y,F,19
50,4,554,8,8,12,['k'],['d'],Y,Y,['space'],Y,,,,,Y,Y,F,19
50,5,555,6,6,12,['d'],['k'],Y,N,None,Y,,,,,Y,Y,F,19
50,6,556,0,0,12,['k'],['d'],Y,Y,['space'],Y,,,,,Y,Y,F,19
50,7,557,4,4,12,['d'],['d'],N,Y,['space'],Y,,,,,Y,Y,F,19
50,8,558,1,1,12,['d'],['k'],Y,N,None,Y,,,,,Y,Y,F,19
50,9,559,4,4,12,['d'],['k'],Y,Y,['space'],Y,,,,,Y,Y,F,19
50,10,560,8,8,12,['d'],['d'],N,N,None,Y,,,,,Y,Y,F,19
51,0,561,6,6,12,['k'],['d'],Y,N,None,Y,,,,,Y,Y,F,19
51,1,562,1,1,12,['d'],['k'],Y,Y,['space'],Y,,,,,Y,Y,F,19
51,2,563,0,0,12,['d'],['k'],Y,Y,['space'],Y,,,,,Y,Y,F,19
51,3,564,9,9,12,['k'],['d'],Y,N,None,Y,,,,,Y,Y,F,19
51,4,565,5,5,12,['d'],['k'],Y,Y,['space'],Y,,,,,Y,Y,F,19
51,5,566,2,2,12,['d'],['d'],N,Y,['space'],Y,,,,,Y,Y,F,19
51,6,567,10,10,12,None,,Timed out,Y,['space'],Y,,,,,Y,Y,F,19
51,7,568,5,5,12,['k'],['d'],Y,N,None,Y,,,,,Y,Y,F,19
51,8,569,8,8,12,['d'],['k'],Y,Y,['space'],Y,,,,,Y,Y,F,19
51,9,570,7,7,12,['k'],['k'],N,Y,None,N,,,,,Y,Y,F,19
51,10,571,8,8,12,['k'],['d'],Y,N,None,Y,,,,,Y,Y,F,19
52,0,572,0,0,12,['d'],['k'],Y,Y,['space'],Y,,,,,Y,Y,F,19
52,1,573,6,6,12,['d'],['d'],N,N,None,Y,,,,,Y,Y,F,19
52,2,574,2,2,12,['k'],['d'],Y,N,None,Y,,,,,Y,Y,F,19
52,3,575,8,8,12,['d'],['k'],Y,N,None,Y,,,,,Y,Y,F,19
52,4,576,0,0,12,['d'],['k'],Y,Y,['space'],Y,,,,,Y,Y,F,19
52,5,577,1,1,12,['k'],['k'],N,Y,['space'],Y,,,,,Y,Y,F,19
52,6,578,10,10,12,['d'],['k'],Y,Y,['space'],Y,,,,,Y,Y,F,19
52,7,579,2,2,12,['k'],['d'],Y,Y,['space'],Y,,,,,Y,Y,F,19
52,8,580,9,9,12,['k'],['d'],Y,Y,['space'],Y,,,,,Y,Y,F,19
52,9,581,6,6,12,['d'],['k'],Y,Y,['space'],Y,,,,,Y,Y,F,19
52,10,582,5,5,12,['k'],['d'],Y,N,None,Y,,,,,Y,Y,F,19
53,0,583,8,8,12,['d'],['d'],N,Y,['space'],Y,,,,,Y,Y,F,19
53,1,584,7,7,12,['d'],['k'],Y,N,None,Y,,,,,Y,Y,F,19
53,2,585,0,0,12,['k'],['d'],Y,N,None,Y,,,,,Y,Y,F,19
53,3,586,8,8,12,['k'],['d'],Y,N,None,Y,,,,,Y,Y,F,19
53,4,587,9,9,12,['k'],['k'],N,N,None,Y,,,,,Y,Y,F,19
53,5,588,10,10,12,['k'],['d'],Y,N,None,Y,,,,,Y,Y,F,19
53,6,589,9,9,12,['d'],['k'],Y,N,None,Y,,,,,Y,Y,F,19
53,7,590,9,9,12,['d'],['k'],Y,N,None,Y,,,,,Y,Y,F,19
53,8,591,5,5,12,['d'],['k'],Y,N,None,Y,,,,,Y,Y,F,19
53,9,592,6,6,12,['d'],['d'],N,Y,['space'],Y,,,,,Y,Y,F,19
53,10,593,4,4,12,['d'],['k'],Y,Y,['space'],Y,,,,,Y,Y,F,19
54,0,594,1,1,12,['k'],['d'],Y,N,None,Y,,,,,Y,Y,F,19
54,1,595,6,6,12,['d'],['k'],Y,Y,['space'],Y,,,,,Y,Y,F,19
54,2,596,6,6,12,['d'],['k'],Y,N,None,Y,,,,,Y,Y,F,19
54,3,597,10,10,12,['d'],['k'],Y,N,None,Y,,,,,Y,Y,F,19
54,4,598,7,7,12,['k'],['d'],Y,Y,['space'],Y,,,,,Y,Y,F,19
54,5,599,8,8,12,['d'],['d'],N,Y,['space'],Y,39,47,24,,Y,Y,F,19