.thisRepN,.thisTrialN,.thisN,.thisIndex,.thisTrial,Block Number,Key pressed,Category,Correct?,Int Match?,Int Response,Int Correct?,Line Accuracy,Interference Accuracy,Matching Interferences,New instruction shown?,Buttons switched?,Fast?,gender,age,
0,0,0,10,10,1,['d'],['k'],N,,,,,,,,,,male,19,
0,1,1,8,8,1,['d'],['d'],Y,,,,,,,,,,male,19,
0,2,2,2,2,1,None,,Timed out,Y,None,N,,,,,,,male,19,
0,3,3,8,8,1,None,,Timed out,N,None,Y,,,,,,,male,19,
0,4,4,6,6,1,['d'],['d'],Y,Y,None,N,,,,,,,male,19,
0,5,5,5,5,1,['d'],['k'],N,Y,['space'],Y,,,,,,,male,19,
0,6,6,3,3,1,['k'],['d'],N,N,None,Y,,,,,,,male,19,
0,7,7,9,9,1,['k'],['d'],N,Y,None,N,,,,,,,male,19,
0,8,8,3,3,1,['k'],['d'],N,N,None,Y,,,,,,,male,19,
0,9,9,1,1,1,['d'],['k'],N,N,None,Y,,,,,,,male,19,
0,10,10,1,1,1,['d'],['k'],N,N,None,Y,,,,,,,male,19,
1,0,11,5,5,1,['d'],['d'],Y,Y,None,N,,,,,,,male,19,
1,1,12,5,5,1,['d'],['d'],Y,Y,['space'],Y,,,,,,,male,19,
1,2,13,7,7,1,['k'],['k'],Y,Y,['space'],Y,,,,,,,male,19,
1,3,14,0,0,1,['k'],['d'],N,Y,['space'],Y,,,,,,,male,19,
1,4,15,5,5,1,['k'],['k'],Y,Y,['space'],Y,,,,,,,male,19,
1,5,16,5,5,1,['k'],['d'],N,Y,['space'],Y,,,,,,,male,19,
1,6,17,9,9,1,['d'],['k'],N,Y,['space'],Y,,,,,,,male,19,
1,7,18,8,8,1,['k'],['k'],Y,N,['space'],N,,,,,,,male,19,
1,8,19,3,3,1,['d'],['d'],Y,N,None,Y,,,,,,,male,19,
1,9,20,3,3,1,['d'],['k'],N,N,None,Y,,,,,,,male,19,
1,10,21,3,3,1,['k'],['k'],Y,Y,['space'],Y,,,,,,,male,19,
2,0,22,9,9,1,['k'],['k'],Y,N,None,Y,,,,,,,male,19,
2,1,23,4,4,1,['k'],['d'],N,Y,['space'],Y,,,,,,,male,19,
2,2,24,9,9,1,['d'],['d'],Y,Y,None,N,,,,,,,male,19,
2,3,25,9,9,1,['d'],['d'],Y,N,None,Y,,,,,,,male,19,
2,4,26,6,6,1,['d'],['d'],Y,Y,None,N,,,,,,,male,19,
2,5,27,10,10,1,['k'],['k'],Y,N,None,Y,,,,,,,male,19,
2,6,28,1,1,1,['d'],['k'],N,N,None,Y,,,,,,,male,19,
2,7,29,9,9,1,['d'],['d'],Y,Y,None,N,,,,,,,male,19,
2,8,30,1,1,1,['d'],['d'],Y,Y,['space'],Y,,,,,,,male,19,
2,9,31,8,8,1,['d'],['k'],N,Y,None,N,,,,,,,male,19,
2,10,32,6,6,1,['k'],['d'],N,Y,None,N,,,,,,,male,19,
3,0,33,5,5,1,['d'],['d'],Y,N,None,Y,,,,,,,male,19,
3,1,34,6,6,1,['k'],['k'],Y,N,None,Y,,,,,,,male,19,
3,2,35,4,4,1,['d'],['k'],N,Y,None,N,,,,,,,male,19,
3,3,36,4,4,1,['d'],['d'],Y,Y,None,N,,,,,,,male,19,
3,4,37,8,8,1,['d'],['k'],N,Y,None,N,,,,,,,male,19,
3,5,38,9,9,1,['d'],['k'],N,N,None,Y,,,,,,,male,19,
3,6,39,6,6,1,['k'],['k'],Y,N,None,Y,,,,,,,male,19,
3,7,40,4,4,1,['d'],['k'],N,Y,None,N,,,,,,,male,19,
3,8,41,2,2,1,['d'],['k'],N,N,None,Y,,,,,,,male,19,
3,9,42,0,0,1,['k'],['d'],N,Y,None,N,,,,,,,male,19,
3,10,43,2,2,1,['k'],['k'],Y,N,None,Y,,,,,,,male,19,
4,0,44,6,6,1,['d'],['d'],Y,Y,None,N,,,,,,,male,19,
4,1,45,5,5,1,['k'],['d'],N,N,None,Y,,,,,,,male,19,
4,2,46,10,10,1,['k'],['d'],N,N,None,Y,,,,,,,male,19,
4,3,47,3,3,1,['d'],['d'],Y,N,None,Y,,,,,,,male,19,
4,4,48,4,4,1,['d'],['d'],Y,N,None,Y,,,,,,,male,19,
4,5,49,7,7,1,['k'],['d'],N,N,None,Y,24,32,25,,,,male,19,
4,6,50,2,2,2,['d'],['k'],N,,,,,,,,,,male,19,
4,7,51,4,4,2,['d'],['d'],Y,,,,,,,,,,male,19,
4,8,52,8,8,2,['k'],['d'],N,Y,None,N,,,,,,,male,19,
4,9,53,5,5,2,['d'],['d'],Y,Y,None,N,,,,,,,male,19,
4,10,54,1,1,2,['k'],['k'],Y,N,None,Y,,,,,,,male,19,
5,0,55,7,7,2,['k'],['d'],N,N,None,Y,,,,,,,male,19,
5,1,56,9,9,2,['d'],['k'],N,Y,None,N,,,,,,,male,19,
5,2,57,4,4,2,['d'],['k'],N,Y,None,N,,,,,,,male,19,
5,3,58,1,1,2,['k'],['d'],N,Y,None,N,,,,,,,male,19,
5,4,59,10,10,2,['k'],['k'],Y,Y,None,N,,,,,,,male,19,
5,5,60,9,9,2,['k'],['d'],N,Y,None,N,,,,,,,male,19,
5,6,61,6,6,2,['k'],['k'],Y,N,None,Y,,,,,,,male,19,
5,7,62,3,3,2,['d'],['d'],Y,N,None,Y,,,,,,,male,19,
5,8,63,7,7,2,['d'],['d'],Y,Y,None,N,,,,,,,male,19,
5,9,64,7,7,2,['d'],['k'],N,N,None,Y,,,,,,,male,19,
5,10,65,8,8,2,['k'],['d'],N,N,None,Y,,,,,,,male,19,
6,0,66,9,9,2,['d'],['d'],Y,Y,['space'],Y,,,,,,,male,19,
6,1,67,6,6,2,['k'],['k'],Y,Y,None,N,,,,,,,male,19,
6,2,68,8,8,2,['k'],['k'],Y,Y,None,N,,,,,,,male,19,
6,3,69,5,5,2,['d'],['k'],N,N,None,Y,,,,,,,male,19,
6,4,70,6,6,2,['k'],['d'],N,Y,None,N,,,,,,,male,19,
6,5,71,1,1,2,['k'],['k'],Y,Y,None,N,,,,,,,male,19,
6,6,72,9,9,2,['d'],['d'],Y,Y,None,N,,,,,,,male,19,
6,7,73,9,9,2,['d'],['d'],Y,Y,None,N,,,,,,,male,19,
6,8,74,7,7,2,['k'],['k'],Y,Y,None,N,,,,,,,male,19,
6,9,75,9,9,2,['k'],['k'],Y,N,None,Y,,,,,,,male,19,
6,10,76,7,7,2,['k'],['d'],N,Y,None,N,,,,,,,male,19,
7,0,77,3,3,2,['k'],['k'],Y,Y,None,N,,,,,,,male,19,
7,1,78,9,9,2,['d'],['d'],Y,N,None,Y,,,,,,,male,19,
7,2,79,5,5,2,['d'],['d'],Y,Y,None,N,,,,,,,male,19,
7,3,80,0,0,2,['k'],['d'],N,Y,None,N,,,,,,,male,19,
7,4,81,4,4,2,['d'],['d'],Y,N,None,Y,,,,,,,male,19,
7,5,82,9,9,2,['k'],['k'],Y,Y,['space'],Y,,,,,,,male,19,
7,6,83,7,7,2,['d'],['k'],N,Y,None,N,,,,,,,male,19,
7,7,84,3,3,2,['k'],['k'],Y,Y,None,N,,,,,,,male,19,
7,8,85,4,4,2,['k'],['d'],N,N,None,Y,,,,,,,male,19,
7,9,86,10,10,2,['k'],['d'],N,Y,None,N,,,,,,,male,19,
7,10,87,1,1,2,['d'],['k'],N,N,None,Y,,,,,,,male,19,
8,0,88,7,7,2,['k'],['d'],N,Y,None,N,,,,,,,male,19,
8,1,89,9,9,2,['d'],['k'],N,N,None,Y,,,,,,,male,19,
8,2,90,7,7,2,['k'],['k'],Y,N,None,Y,,,,,,,male,19,
8,3,91,7,7,2,['d'],['d'],Y,N,None,Y,,,,,,,male,19,
8,4,92,8,8,2,['d'],['d'],Y,N,None,Y,,,,,,,male,19,
8,5,93,1,1,2,['d'],['k'],N,N,None,Y,,,,,,,male,19,
8,6,94,2,2,2,['k'],['k'],Y,N,None,Y,,,,,,,male,19,
8,7,95,10,10,2,['d'],['d'],Y,N,None,Y,,,,,,,male,19,
8,8,96,0,0,2,['k'],['d'],N,N,None,Y,,,,,,,male,19,
8,9,97,10,10,2,['k'],['k'],Y,N,None,Y,,,,,,,male,19,
8,10,98,10,10,2,['d'],['k'],N,N,None,Y,,,,,,,male,19,
9,0,99,7,7,2,['k'],['d'],N,N,None,Y,27,25,25,,,,male,19,
9,1,100,8,8,3,['k'],['d'],N,,,,,,,,,,male,19,
9,2,101,4,4,3,['d'],['d'],Y,,,,,,,,,,male,19,
9,3,102,6,6,3,['k'],['k'],Y,Y,None,N,,,,,,,male,19,
9,4,103,6,6,3,['k'],['k'],Y,Y,None,N,,,,,,,male,19,
9,5,104,1,1,3,None,,Timed out,N,None,Y,,,,,,,male,19,
9,6,105,1,1,3,['d'],['d'],Y,N,None,Y,,,,,,,male,19,
9,7,106,4,4,3,['k'],['k'],Y,N,None,Y,,,,,,,male,19,
9,8,107,0,0,3,['d'],['k'],N,Y,None,N,,,,,,,male,19,
9,9,108,2,2,3,None,,Timed out,Y,None,N,,,,,,,male,19,
9,10,109,4,4,3,['k'],['d'],N,N,None,Y,,,,,,,male,19,
10,0,110,2,2,3,None,,Timed out,Y,None,N,,,,,,,male,19,
10,1,111,5,5,3,['d'],['k'],N,Y,None,N,,,,,,,male,19,
10,2,112,5,5,3,['k'],['d'],N,N,None,Y,,,,,,,male,19,
10,3,113,3,3,3,['d'],['d'],Y,Y,None,N,,,,,,,male,19,
10,4,114,1,1,3,['k'],['d'],N,N,None,Y,,,,,,,male,19,
10,5,115,7,7,3,['d'],['k'],N,Y,None,N,,,,,,,male,19,
10,6,116,9,9,3,['k'],['d'],N,N,None,Y,,,,,,,male,19,
10,7,117,8,8,3,['d'],['d'],Y,Y,None,N,,,,,,,male,19,
10,8,118,3,3,3,['k'],['k'],Y,N,None,Y,,,,,,,male,19,
10,9,119,1,1,3,['k'],['d'],N,N,None,Y,,,,,,,male,19,
10,10,120,2,2,3,['d'],['k'],N,Y,None,N,,,,,,,male,19,
11,0,121,10,10,3,['d'],['k'],N,Y,None,N,,,,,,,male,19,
11,1,122,0,0,3,['k'],['d'],N,N,None,Y,,,,,,,male,19,
11,2,123,1,1,3,['k'],['d'],N,Y,None,N,,,,,,,male,19,
11,3,124,10,10,3,['d'],['d'],Y,N,None,Y,,,,,,,male,19,
11,4,125,10,10,3,['k'],['k'],Y,N,None,Y,,,,,,,male,19,
11,5,126,9,9,3,None,,Timed out,N,None,Y,,,,,,,male,19,
11,6,127,2,2,3,None,,Timed out,Y,None,N,,,,,,,male,19,
11,7,128,2,2,3,['d'],['k'],N,N,None,Y,,,,,,,male,19,
11,8,129,7,7,3,['d'],['k'],N,Y,None,N,,,,,,,male,19,
11,9,130,4,4,3,['k'],['d'],N,N,None,Y,,,,,,,male,19,
11,10,131,6,6,3,['k'],['d'],N,N,None,Y,,,,,,,male,19,
12,0,132,2,2,3,['d'],['d'],Y,Y,None,N,,,,,,,male,19,
12,1,133,9,9,3,['d'],['k'],N,N,None,Y,,,,,,,male,19,
12,2,134,2,2,3,['d'],['k'],N,N,None,Y,,,,,,,male,19,
12,3,135,6,6,3,['d'],['d'],Y,N,None,Y,,,,,,,male,19,
12,4,136,9,9,3,['k'],['k'],Y,N,None,Y,,,,,,,male,19,
12,5,137,2,2,3,['d'],['d'],Y,Y,None,N,,,,,,,male,19,
12,6,138,3,3,3,['d'],['k'],N,Y,None,N,,,,,,,male,19,
12,7,139,1,1,3,None,,Timed out,Y,None,N,,,,,,,male,19,
12,8,140,9,9,3,['d'],['k'],N,N,None,Y,,,,,,,male,19,
12,9,141,3,3,3,['d'],['d'],Y,Y,None,N,,,,,,,male,19,
12,10,142,9,9,3,None,,Timed out,N,None,Y,,,,,,,male,19,
13,0,143,1,1,3,['d'],['k'],N,N,None,Y,,,,,,,male,19,
13,1,144,6,6,3,['k'],['k'],Y,N,None,Y,,,,,,,male,19,
13,2,145,0,0,3,['k'],['k'],Y,N,None,Y,,,,,,,male,19,
13,3,146,1,1,3,['d'],['d'],Y,Y,None,N,,,,,,,male,19,
13,4,147,7,7,3,['k'],['k'],Y,N,None,Y,,,,,,,male,19,
13,5,148,1,1,3,['k'],['k'],Y,Y,None,N,,,,,,,male,19,
13,6,149,7,7,3,['d'],['k'],N,N,None,Y,20,27,21,,,,male,19,
13,7,150,3,3,4,['k'],['d'],N,,,,,,,,,,male,19,
13,8,151,5,5,4,['k'],['d'],N,,,,,,,,,,male,19,
13,9,152,10,10,4,['k'],['d'],N,Y,None,N,,,,,,,male,19,
13,10,153,6,6,4,['k'],['d'],N,Y,None,N,,,,,,,male,19,
14,0,154,1,1,4,['d'],['d'],Y,Y,None,N,,,,,,,male,19,
14,1,155,1,1,4,['d'],['k'],N,N,None,Y,,,,,,,male,19,
14,2,156,3,3,4,None,,Timed out,Y,None,N,,,,,,,male,19,
14,3,157,8,8,4,['d'],['k'],N,N,None,Y,,,,,,,male,19,
14,4,158,10,10,4,['d'],['d'],Y,Y,None,N,,,,,,,male,19,
14,5,159,5,5,4,['d'],['d'],Y,Y,None,N,,,,,,,male,19,
14,6,160,2,2,4,['k'],['k'],Y,Y,None,N,,,,,,,male,19,
14,7,161,6,6,4,None,,Timed out,N,None,Y,,,,,,,male,19,
14,8,162,1,1,4,['d'],['k'],N,N,None,Y,,,,,,,male,19,
14,9,163,1,1,4,['d'],['d'],Y,N,None,Y,,,,,,,male,19,
14,10,164,4,4,4,['k'],['d'],N,N,None,Y,,,,,,,male,19,
15,0,165,3,3,4,['k'],['k'],Y,Y,None,N,,,,,,,male,19,
15,1,166,10,10,4,None,,Timed out,Y,None,N,,,,,,,male,19,
15,2,167,8,8,4,['d'],['d'],Y,Y,None,N,,,,,,,male,19,
15,3,168,7,7,4,['k'],['k'],Y,Y,None,N,,,,,,,male,19,
15,4,169,5,5,4,['d'],['k'],N,Y,None,N,,,,,,,male,19,
15,5,170,0,0,4,['d'],['d'],Y,Y,None,N,,,,,,,male,19,
15,6,171,0,0,4,None,,Timed out,Y,None,N,,,,,,,male,19,
15,7,172,1,1,4,['d'],['k'],N,N,None,Y,,,,,,,male,19,
15,8,173,10,10,4,['k'],['k'],Y,N,None,Y,,,,,,,male,19,
15,9,174,4,4,4,['d'],['d'],Y,N,None,Y,,,,,,,male,19,
15,10,175,0,0,4,['d'],['k'],N,N,None,Y,,,,,,,male,19,
16,0,176,2,2,4,['d'],['d'],Y,Y,None,N,,,,,,,male,19,
16,1,177,2,2,4,['d'],['d'],Y,N,None,Y,,,,,,,male,19,
16,2,178,1,1,4,['k'],['d'],N,N,None,Y,,,,,,,male,19,
16,3,179,1,1,4,['d'],['k'],N,N,None,Y,,,,,,,male,19,
16,4,180,7,7,4,['k'],['k'],Y,N,None,Y,,,,,,,male,19,
16,5,181,8,8,4,['d'],['k'],N,Y,None,N,,,,,,,male,19,
16,6,182,3,3,4,['k'],['d'],N,N,None,Y,,,,,,,male,19,
16,7,183,5,5,4,['d'],['d'],Y,N,None,Y,,,,,,,male,19,
16,8,184,8,8,4,['k'],['d'],N,N,None,Y,,,,,,,male,19,
16,9,185,6,6,4,['d'],['d'],Y,Y,None,N,,,,,,,male,19,
16,10,186,10,10,4,['d'],['d'],Y,N,None,Y,,,,,,,male,19,
17,0,187,1,1,4,['k'],['d'],N,Y,None,N,,,,,,,male,19,
17,1,188,3,3,4,['k'],['k'],Y,N,None,Y,,,,,,,male,19,
17,2,189,3,3,4,['d'],['k'],N,Y,None,N,,,,,,,male,19,
17,3,190,0,0,4,['d'],['k'],N,Y,None,N,,,,,,,male,19,
17,4,191,0,0,4,['d'],['d'],Y,N,None,Y,,,,,,,male,19,
17,5,192,8,8,4,['d'],['d'],Y,Y,None,N,,,,,,,male,19,
17,6,193,4,4,4,['d'],['k'],N,Y,None,N,,,,,,,male,19,
17,7,194,3,3,4,['d'],['k'],N,N,None,Y,,,,,,,male,19,
17,8,195,6,6,4,['k'],['k'],Y,Y,None,N,,,,,,,male,19,
17,9,196,7,7,4,['d'],['k'],N,Y,None,N,,,,,,,male,19,
17,10,197,1,1,4,['d'],['d'],Y,Y,None,N,,,,,,,male,19,
18,0,198,0,0,4,['d'],['k'],N,N,None,Y,,,,,,,male,19,
18,1,199,5,5,4,['d'],['k'],N,N,None,Y,22,23,25,,,,male,19,
18,2,200,4,4,5,['d'],['k'],N,,,,,,,,,,male,19,
18,3,201,1,1,5,['k'],['k'],Y,,,,,,,,,,male,19,
18,4,202,10,10,5,['d'],['d'],Y,Y,None,N,,,,,,,male,19,
18,5,203,10,10,5,['d'],['k'],N,Y,None,N,,,,,,,male,19,
18,6,204,4,4,5,['d'],['d'],Y,N,None,Y,,,,,,,male,19,
18,7,205,2,2,5,['d'],['d'],Y,N,None,Y,,,,,,,male,19,
18,8,206,8,8,5,['k'],['k'],Y,N,None,Y,,,,,,,male,19,
18,9,207,9,9,5,['d'],['k'],N,N,None,Y,,,,,,,male,19,
18,10,208,1,1,5,['k'],['d'],N,N,None,Y,,,,,,,male,19,
19,0,209,1,1,5,['k'],['k'],Y,N,None,Y,,,,,,,male,19,
19,1,210,5,5,5,['d'],['k'],N,N,None,Y,,,,,,,male,19,
19,2,211,1,1,5,['k'],['k'],Y,Y,None,N,,,,,,,male,19,
19,3,212,2,2,5,['k'],['k'],Y,Y,None,N,,,,,,,male,19,
19,4,213,10,10,5,['d'],['k'],N,N,None,Y,,,,,,,male,19,
19,5,214,7,7,5,['k'],['d'],N,Y,None,N,,,,,,,male,19,
19,6,215,2,2,5,['d'],['k'],N,N,None,Y,,,,,,,male,19,
19,7,216,5,5,5,['k'],['k'],Y,Y,None,N,,,,,,,male,19,
19,8,217,9,9,5,['k'],['k'],Y,N,None,Y,,,,,,,male,19,
19,9,218,6,6,5,['k'],['d'],N,N,None,Y,,,,,,,male,19,
19,10,219,3,3,5,['d'],['k'],N,N,None,Y,,,,,,,male,19,
20,0,220,10,10,5,['d'],['d'],Y,N,None,Y,,,,,,,male,19,
20,1,221,6,6,5,['d'],['d'],Y,Y,None,N,,,,,,,male,19,
20,2,222,5,5,5,['k'],['k'],Y,Y,None,N,,,,,,,male,19,
20,3,223,3,3,5,['d'],['d'],Y,Y,None,N,,,,,,,male,19,
20,4,224,7,7,5,['k'],['k'],Y,Y,None,N,,,,,,,male,19,
20,5,225,10,10,5,['d'],['k'],N,Y,None,N,,,,,,,male,19,
20,6,226,6,6,5,['d'],['d'],Y,Y,None,N,,,,,,,male,19,
20,7,227,2,2,5,['k'],['d'],N,N,None,Y,,,,,,,male,19,
20,8,228,10,10,5,['k'],['k'],Y,Y,None,N,,,,,,,male,19,
20,9,229,8,8,5,['k'],['d'],N,N,None,Y,,,,,,,male,19,
20,10,230,2,2,5,['d'],['d'],Y,N,None,Y,,,,,,,male,19,
21,0,231,2,2,5,['d'],['k'],N,N,None,Y,,,,,,,male,19,
21,1,232,0,0,5,['k'],['d'],N,Y,None,N,,,,,,,male,19,
21,2,233,0,0,5,None,,Timed out,Y,None,N,,,,,,,male,19,
21,3,234,5,5,5,['d'],['k'],N,N,None,Y,,,,,,,male,19,
21,4,235,6,6,5,['k'],['d'],N,N,None,Y,,,,,,,male,19,
21,5,236,5,5,5,['d'],['d'],Y,N,None,Y,,,,,,,male,19,
21,6,237,0,0,5,['k'],['k'],Y,Y,None,N,,,,,,,male,19,
21,7,238,7,7,5,['k'],['d'],N,N,None,Y,,,,,,,male,19,
21,8,239,9,9,5,['k'],['k'],Y,N,None,Y,,,,,,,male,19,
21,9,240,2,2,5,['d'],['d'],Y,Y,None,N,,,,,,,male,19,
21,10,241,2,2,5,['d'],['k'],N,N,None,Y,,,,,,,male,19,
22,0,242,1,1,5,['k'],['k'],Y,Y,None,N,,,,,,,male,19,
22,1,243,8,8,5,['k'],['k'],Y,N,None,Y,,,,,,,male,19,
22,2,244,9,9,5,['k'],['d'],N,N,None,Y,,,,,,,male,19,
22,3,245,1,1,5,['d'],['d'],Y,Y,None,N,,,,,,,male,19,
22,4,246,7,7,5,['d'],['k'],N,Y,None,N,,,,,,,male,19,
22,5,247,3,3,5,['k'],['d'],N,N,None,Y,,,,,,,male,19,
22,6,248,8,8,5,['d'],['d'],Y,Y,None,N,,,,,,,male,19,
22,7,249,10,10,5,['d'],['k'],N,Y,None,N,26,26,22,,,,male,19,
22,8,250,5,5,6,['d'],['k'],N,,,,,,,,,,male,19,
22,9,251,3,3,6,['k'],['k'],Y,,,,,,,,,,male,19,
22,10,252,4,4,6,['d'],['d'],Y,Y,None,N,,,,,,,male,19,
23,0,253,6,6,6,['k'],['k'],Y,N,None,Y,,,,,,,male,19,
23,1,254,10,10,6,['d'],['k'],N,Y,None,N,,,,,,,male,19,
23,2,255,4,4,6,['d'],['d'],Y,N,None,Y,,,,,,,male,19,
23,3,256,4,4,6,['d'],['k'],N,N,None,Y,,,,,,,male,19,
23,4,257,9,9,6,['k'],['d'],N,N,None,Y,,,,,,,male,19,
23,5,258,3,3,6,['d'],['d'],Y,Y,None,N,,,,,,,male,19,
23,6,259,6,6,6,['d'],['k'],N,Y,None,N,,,,,,,male,19,
23,7,260,5,5,6,['d'],['d'],Y,Y,None,N,,,,,,,male,19,
23,8,261,8,8,6,['k'],['d'],N,Y,None,N,,,,,,,male,19,
23,9,262,4,4,6,['d'],['k'],N,Y,None,N,,,,,,,male,19,
23,10,263,4,4,6,['k'],['k'],Y,Y,None,N,,,,,,,male,19,
24,0,264,2,2,6,['d'],['k'],N,Y,None,N,,,,,,,male,19,
24,1,265,7,7,6,['d'],['d'],Y,Y,None,N,,,,,,,male,19,
24,2,266,1,1,6,['k'],['d'],N,N,None,Y,,,,,,,male,19,
24,3,267,2,2,6,['k'],['d'],N,N,None,Y,,,,,,,male,19,
24,4,268,4,4,6,['d'],['d'],Y,N,None,Y,,,,,,,male,19,
24,5,269,7,7,6,['d'],['d'],Y,N,None,Y,,,,,,,male,19,
24,6,270,1,1,6,['k'],['d'],N,Y,None,N,,,,,,,male,19,
24,7,271,0,0,6,['d'],['k'],N,N,None,Y,,,,,,,male,19,
24,8,272,8,8,6,['d'],['d'],Y,Y,None,N,,,,,,,male,19,
24,9,273,8,8,6,['d'],['d'],Y,Y,None,N,,,,,,,male,19,
24,10,274,5,5,6,['d'],['k'],N,Y,None,N,,,,,,,male,19,
25,0,275,3,3,6,['d'],['k'],N,Y,None,N,,,,,,,male,19,
25,1,276,0,0,6,['d'],['k'],N,N,None,Y,,,,,,,male,19,
25,2,277,6,6,6,['k'],['k'],Y,Y,None,N,,,,,,,male,19,
25,3,278,10,10,6,['d'],['k'],N,N,None,Y,,,,,,,male,19,
25,4,279,3,3,6,['d'],['d'],Y,Y,None,N,,,,,,,male,19,
25,5,280,6,6,6,['k'],['k'],Y,N,None,Y,,,,,,,male,19,
25,6,281,2,2,6,['d'],['k'],N,N,None,Y,,,,,,,male,19,
25,7,282,6,6,6,['k'],['d'],N,N,None,Y,,,,,,,male,19,
25,8,283,7,7,6,['k'],['d'],N,Y,None,N,,,,,,,male,19,
25,9,284,5,5,6,['d'],['k'],N,Y,None,N,,,,,,,male,19,
25,10,285,6,6,6,['d'],['k'],N,N,None,Y,,,,,,,male,19,
26,0,286,10,10,6,['k'],['k'],Y,Y,None,N,,,,,,,male,19,
26,1,287,6,6,6,['k'],['d'],N,N,None,Y,,,,,,,male,19,
26,2,288,10,10,6,['d'],['d'],Y,Y,None,N,,,,,,,male,19,
26,3,289,9,9,6,['d'],['d'],Y,N,None,Y,,,,,,,male,19,
26,4,290,0,0,6,['k'],['k'],Y,Y,None,N,,,,,,,male,19,
26,5,291,1,1,6,['d'],['d'],Y,Y,None,N,,,,,,,male,19,
26,6,292,5,5,6,['d'],['k'],N,N,None,Y,,,,,,,male,19,
26,7,293,1,1,6,['d'],['k'],N,N,None,Y,,,,,,,male,19,
26,8,294,1,1,6,['d'],['k'],N,Y,None,N,,,,,,,male,19,
26,9,295,10,10,6,['k'],['d'],N,N,None,Y,,,,,,,male,19,
26,10,296,6,6,6,['k'],['d'],N,Y,None,N,,,,,,,male,19,
27,0,297,5,5,6,['k'],['k'],Y,N,None,Y,,,,,,,male,19,
27,1,298,1,1,6,['d'],['k'],N,N,None,Y,,,,,,,male,19,
27,2,299,0,0,6,['d'],['d'],Y,N,None,Y,22,23,25,,,,male,19,
27,3,300,9,9,7,['k'],['k'],Y,,,,,,,,,,male,19,
27,4,301,10,10,7,['k'],['k'],Y,,,,,,,,,,male,19,
27,5,302,8,8,7,['d'],['d'],Y,Y,None,N,,,,,,,male,19,
27,6,303,10,10,7,['k'],['k'],Y,N,None,Y,,,,,,,male,19,
27,7,304,2,2,7,['k'],['k'],Y,Y,None,N,,,,,,,male,19,
27,8,305,5,5,7,['k'],['d'],N,N,None,Y,,,,,,,male,19,
27,9,306,7,7,7,['k'],['d'],N,N,None,Y,,,,,,,male,19,
27,10,307,5,5,7,['k'],['k'],Y,N,None,Y,,,,,,,male,19,
28,0,308,5,5,7,['k'],['k'],Y,Y,None,N,,,,,,,male,19,
28,1,309,4,4,7,['d'],['k'],N,Y,None,N,,,,,,,male,19,
28,2,310,7,7,7,['d'],['d'],Y,Y,None,N,,,,,,,male,19,
28,3,311,5,5,7,['d'],['k'],N,N,None,Y,,,,,,,male,19,
28,4,312,0,0,7,['d'],['k'],N,Y,None,N,,,,,,,male,19,
28,5,313,9,9,7,['k'],['d'],N,Y,None,N,,,,,,,male,19,
28,6,314,9,9,7,['d'],['d'],Y,Y,None,N,,,,,,,male,19,
28,7,315,10,10,7,['d'],['d'],Y,N,None,Y,,,,,,,male,19,
28,8,316,3,3,7,['d'],['k'],N,Y,None,N,,,,,,,male,19,
28,9,317,0,0,7,['d'],['d'],Y,Y,None,N,,,,,,,male,19,
28,10,318,3,3,7,['d'],['k'],N,Y,None,N,,,,,,,male,19,
29,0,319,4,4,7,['d'],['d'],Y,Y,None,N,,,,,,,male,19,
29,1,320,10,10,7,['k'],['k'],Y,Y,None,N,,,,,,,male,19,
29,2,321,7,7,7,['d'],['k'],N,Y,None,N,,,,,,,male,19,
29,3,322,3,3,7,['k'],['k'],Y,N,None,Y,,,,,,,male,19,
29,4,323,0,0,7,['d'],['d'],Y,N,None,Y,,,,,,,male,19,
29,5,324,6,6,7,['k'],['k'],Y,Y,None,N,,,,,,,male,19,
29,6,325,10,10,7,['d'],['d'],Y,Y,None,N,,,,,,,male,19,
29,7,326,2,2,7,['k'],['d'],N,Y,None,N,,,,,,,male,19,
29,8,327,8,8,7,['k'],['k'],Y,N,None,Y,,,,,,,male,19,
29,9,328,9,9,7,['k'],['k'],Y,N,None,Y,,,,,,,male,19,
29,10,329,4,4,7,['d'],['d'],Y,N,None,Y,,,,,,,male,19,
30,0,330,2,2,7,['k'],['k'],Y,N,None,Y,,,,,,,male,19,
30,1,331,4,4,7,['d'],['d'],Y,N,None,Y,,,,,,,male,19,
30,2,332,5,5,7,['d'],['d'],Y,Y,None,N,,,,,,,male,19,
30,3,333,9,9,7,['d'],['d'],Y,N,None,Y,,,,,,,male,19,
30,4,334,0,0,7,['k'],['d'],N,N,None,Y,,,,,,,male,19,
30,5,335,0,0,7,['k'],['k'],Y,Y,None,N,,,,,,,male,19,
30,6,336,3,3,7,['d'],['d'],Y,Y,None,N,,,,,,,male,19,
30,7,337,2,2,7,['d'],['d'],Y,Y,None,N,,,,,,,male,19,
30,8,338,1,1,7,['d'],['d'],Y,N,None,Y,,,,,,,male,19,
30,9,339,6,6,7,['k'],['d'],N,N,None,Y,,,,,,,male,19,
30,10,340,6,6,7,['k'],['d'],N,Y,None,N,,,,,,,male,19,
31,0,341,0,0,7,['d'],['d'],Y,N,None,Y,,,,,,,male,19,
31,1,342,8,8,7,['k'],['d'],N,Y,None,N,,,,,,,male,19,
31,2,343,4,4,7,['k'],['k'],Y,N,None,Y,,,,,,,male,19,
31,3,344,8,8,7,['d'],['d'],Y,Y,None,N,,,,,,,male,19,
31,4,345,9,9,7,['k'],['k'],Y,Y,None,N,,,,,,,male,19,
31,5,346,4,4,7,['d'],['k'],N,N,None,Y,,,,,,,male,19,
31,6,347,0,0,7,['d'],['d'],Y,N,None,Y,,,,,,,male,19,
31,7,348,3,3,7,['k'],['k'],Y,N,None,Y,,,,,,,male,19,
31,8,349,4,4,7,['k'],['k'],Y,N,None,Y,35,23,25,,,,male,19,
31,9,350,5,5,8,['k'],['k'],Y,,,,,,,,,,male,19,
31,10,351,0,0,8,['d'],['d'],Y,,,,,,,,,,male,19,
32,0,352,6,6,8,['k'],['d'],N,N,None,Y,,,,,,,male,19,
32,1,353,6,6,8,['d'],['k'],N,N,None,Y,,,,,,,male,19,
32,2,354,6,6,8,['d'],['d'],Y,N,None,Y,,,,,,,male,19,
32,3,355,7,7,8,['d'],['k'],N,N,None,Y,,,,,,,male,19,
32,4,356,9,9,8,['k'],['d'],N,N,None,Y,,,,,,,male,19,
32,5,357,9,9,8,['k'],['k'],Y,N,None,Y,,,,,,,male,19,
32,6,358,2,2,8,['k'],['d'],N,N,None,Y,,,,,,,male,19,
32,7,359,0,0,8,['k'],['k'],Y,Y,None,N,,,,,,,male,19,
32,8,360,5,5,8,['d'],['d'],Y,Y,None,N,,,,,,,male,19,
32,9,361,8,8,8,['d'],['d'],Y,N,None,Y,,,,,,,male,19,
32,10,362,8,8,8,['d'],['k'],N,Y,None,N,,,,,,,male,19,
33,0,363,8,8,8,['k'],['d'],N,Y,None,N,,,,,,,male,19,
33,1,364,6,6,8,['d'],['k'],N,N,None,Y,,,,,,,male,19,
33,2,365,6,6,8,['k'],['k'],Y,N,None,Y,,,,,,,male,19,
33,3,366,8,8,8,['k'],['k'],Y,N,None,Y,,,,,,,male,19,
33,4,367,1,1,8,['k'],['k'],Y,Y,None,N,,,,,,,male,19,
33,5,368,0,0,8,['d'],['d'],Y,Y,None,N,,,,,,,male,19,
33,6,369,10,10,8,['d'],['k'],N,Y,None,N,,,,,,,male,19,
33,7,370,9,9,8,['d'],['d'],Y,N,None,Y,,,,,,,male,19,
33,8,371,7,7,8,['k'],['k'],Y,N,None,Y,,,,,,,male,19,
33,9,372,5,5,8,['k'],['d'],N,Y,None,N,,,,,,,male,19,
33,10,373,0,0,8,['k'],['d'],N,Y,None,N,,,,,,,male,19,
34,0,374,0,0,8,['d'],['d'],Y,N,None,Y,,,,,,,male,19,
34,1,375,2,2,8,['k'],['d'],N,Y,None,N,,,,,,,male,19,
34,2,376,10,10,8,['d'],['k'],N,Y,None,N,,,,,,,male,19,
34,3,377,1,1,8,['k'],['d'],N,N,None,Y,,,,,,,male,19,
34,4,378,7,7,8,['k'],['d'],N,N,None,Y,,,,,,,male,19,
34,5,379,7,7,8,['k'],['d'],N,N,None,Y,,,,,,,male,19,
34,6,380,3,3,8,['d'],['k'],N,Y,None,N,,,,,,,male,19,
34,7,381,7,7,8,['k'],['d'],N,Y,None,N,,,,,,,male,19,
34,8,382,8,8,8,['k'],['d'],N,Y,None,N,,,,,,,male,19,
34,9,383,5,5,8,['k'],['d'],N,N,None,Y,,,,,,,male,19,
34,10,384,10,10,8,['k'],['d'],N,Y,None,N,,,,,,,male,19,
35,0,385,0,0,8,['d'],['d'],Y,N,None,Y,,,,,,,male,19,
35,1,386,9,9,8,['k'],['k'],Y,N,None,Y,,,,,,,male,19,
35,2,387,8,8,8,['k'],['d'],N,N,None,Y,,,,,,,male,19,
35,3,388,5,5,8,['d'],['k'],N,N,None,Y,,,,,,,male,19,
35,4,389,4,4,8,['k'],['k'],Y,N,None,Y,,,,,,,male,19,
35,5,390,10,10,8,['d'],['d'],Y,Y,None,N,,,,,,,male,19,
35,6,391,1,1,8,['k'],['d'],N,Y,None,N,,,,,,,male,19,
35,7,392,2,2,8,['k'],['d'],N,Y,None,N,,,,,,,male,19,
35,8,393,10,10,8,['k'],['k'],Y,Y,None,N,,,,,,,male,19,
35,9,394,0,0,8,['k'],['d'],N,Y,None,N,,,,,,,male,19,
35,10,395,6,6,8,['d'],['k'],N,Y,None,N,,,,,,,male,19,
36,0,396,3,3,8,['d'],['k'],N,Y,None,N,,,,,,,male,19,
36,1,397,3,3,8,['d'],['d'],Y,Y,None,N,,,,,,,male,19,
36,2,398,1,1,8,['k'],['d'],N,Y,None,N,,,,,,,male,19,
36,3,399,4,4,8,['k'],['d'],N,N,None,Y,20,24,24,,,,male,19,
36,4,400,2,2,9,['k'],['k'],Y,,,,,,,,,,male,19,
36,5,401,8,8,9,['k'],['d'],N,,,,,,,,,,male,19,
36,6,402,3,3,9,['d'],['k'],N,Y,None,N,,,,,,,male,19,
36,7,403,0,0,9,['k'],['d'],N,Y,None,N,,,,,,,male,19,
36,8,404,4,4,9,['d'],['k'],N,Y,None,N,,,,,,,male,19,
36,9,405,10,10,9,['d'],['k'],N,N,None,Y,,,,,,,male,19,
36,10,406,9,9,9,['k'],['d'],N,N,None,Y,,,,,,,male,19,
37,0,407,8,8,9,['d'],['d'],Y,N,None,Y,,,,,,,male,19,
37,1,408,4,4,9,['d'],['d'],Y,N,None,Y,,,,,,,male,19,
37,2,409,2,2,9,['k'],['d'],N,Y,None,N,,,,,,,male,19,
37,3,410,4,4,9,['k'],['k'],Y,Y,None,N,,,,,,,male,19,
37,4,411,8,8,9,['k'],['k'],Y,Y,None,N,,,,,,,male,19,
37,5,412,7,7,9,['d'],['d'],Y,Y,None,N,,,,,,,male,19,
37,6,413,8,8,9,['k'],['k'],Y,N,None,Y,,,,,,,male,19,
37,7,414,10,10,9,['k'],['d'],N,N,None,Y,,,,,,,male,19,
37,8,415,10,10,9,['k'],['d'],N,Y,None,N,,,,,,,male,19,
37,9,416,0,0,9,['d'],['d'],Y,N,None,Y,,,,,,,male,19,
37,10,417,10,10,9,['k'],['k'],Y,N,None,Y,,,,,,,male,19,
38,0,418,2,2,9,['d'],['d'],Y,Y,None,N,,,,,,,male,19,
38,1,419,8,8,9,['d'],['k'],N,Y,None,N,,,,,,,male,19,
38,2,420,0,0,9,['k'],['k'],Y,Y,None,N,,,,,,,male,19,
38,3,421,8,8,9,['d'],['k'],N,N,None,Y,,,,,,,male,19,
38,4,422,10,10,9,['k'],['d'],N,Y,None,N,,,,,,,male,19,
38,5,423,5,5,9,['d'],['k'],N,Y,None,N,,,,,,,male,19,
38,6,424,3,3,9,['k'],['k'],Y,N,None,Y,,,,,,,male,19,
38,7,425,10,10,9,['d'],['k'],N,Y,None,N,,,,,,,male,19,
38,8,426,7,7,9,['d'],['k'],N,Y,None,N,,,,,,,male,19,
38,9,427,5,5,9,['d'],['d'],Y,Y,None,N,,,,,,,male,19,
38,10,428,7,7,9,['d'],['k'],N,Y,None,N,,,,,,,male,19,
39,0,429,0,0,9,['d'],['k'],N,Y,None,N,,,,,,,male,19,
39,1,430,4,4,9,['k'],['d'],N,Y,None,N,,,,,,,male,19,
39,2,431,3,3,9,['k'],['d'],N,N,None,Y,,,,,,,male,19,
39,3,432,7,7,9,['k'],['d'],N,N,None,Y,,,,,,,male,19,
39,4,433,7,7,9,['d'],['k'],N,N,None,Y,,,,,,,male,19,
39,5,434,4,4,9,['d'],['k'],N,Y,None,N,,,,,,,male,19,
39,6,435,8,8,9,['d'],['d'],Y,Y,None,N,,,,,,,male,19,
39,7,436,9,9,9,['k'],['d'],N,N,None,Y,,,,,,,male,19,
39,8,437,2,2,9,['k'],['d'],N,Y,None,N,,,,,,,male,19,
39,9,438,7,7,9,['k'],['k'],Y,Y,None,N,,,,,,,male,19,
39,10,439,3,3,9,['d'],['k'],N,N,None,Y,,,,,,,male,19,
40,0,440,6,6,9,['d'],['d'],Y,N,None,Y,,,,,,,male,19,
40,1,441,2,2,9,['k'],['k'],Y,Y,None,N,,,,,,,male,19,
40,2,442,5,5,9,['k'],['k'],Y,Y,None,N,,,,,,,male,19,
40,3,443,5,5,9,['d'],['k'],N,N,None,Y,,,,,,,male,19,
40,4,444,1,1,9,['d'],['d'],Y,N,None,Y,,,,,,,male,19,
40,5,445,6,6,9,['k'],['k'],Y,N,None,Y,,,,,,,male,19,
40,6,446,7,7,9,['d'],['k'],N,N,None,Y,,,,,,,male,19,
40,7,447,6,6,9,['d'],['k'],N,N,None,Y,,,,,,,male,19,
40,8,448,2,2,9,['k'],['d'],N,N,None,Y,,,,,,,male,19,
40,9,449,0,0,9,['k'],['d'],N,N,None,Y,20,23,25,,,,male,19,
40,10,450,7,7,10,['k'],['k'],Y,,,,,,,,,,male,19,
41,0,451,9,9,10,['k'],['d'],N,,,,,,,,,,male,19,
41,1,452,6,6,10,['k'],['k'],Y,N,None,Y,,,,,,,male,19,
41,2,453,7,7,10,['k'],['d'],N,Y,None,N,,,,,,,male,19,
41,3,454,2,2,10,['k'],['d'],N,N,None,Y,,,,,,,male,19,
41,4,455,2,2,10,['d'],['d'],Y,Y,None,N,,,,,,,male,19,
41,5,456,10,10,10,['d'],['d'],Y,N,None,Y,,,,,,,male,19,
41,6,457,7,7,10,['d'],['k'],N,Y,None,N,,,,,,,male,19,
41,7,458,6,6,10,['k'],['d'],N,Y,None,N,,,,,,,male,19,
41,8,459,3,3,10,['d'],['k'],N,N,None,Y,,,,,,,male,19,
41,9,460,5,5,10,['d'],['d'],Y,N,None,Y,,,,,,,male,19,
41,10,461,0,0,10,['k'],['d'],N,N,None,Y,,,,,,,male,19,
42,0,462,9,9,10,['d'],['d'],Y,Y,None,N,,,,,,,male,19,
42,1,463,9,9,10,['d'],['k'],N,N,None,Y,,,,,,,male,19,
42,2,464,5,5,10,['k'],['d'],N,Y,None,N,,,,,,,male,19,
42,3,465,4,4,10,['d'],['d'],Y,N,None,Y,,,,,,,male,19,
42,4,466,1,1,10,['d'],['d'],Y,N,None,Y,,,,,,,male,19,
42,5,467,1,1,10,['k'],['d'],N,Y,None,N,,,,,,,male,19,
42,6,468,8,8,10,['k'],['k'],Y,Y,None,N,,,,,,,male,19,
42,7,469,4,4,10,['d'],['k'],N,Y,None,N,,,,,,,male,19,
42,8,470,3,3,10,['d'],['k'],N,Y,None,N,,,,,,,male,19,
42,9,471,4,4,10,['k'],['k'],Y,N,None,Y,,,,,,,male,19,
42,10,472,4,4,10,['d'],['d'],Y,N,None,Y,,,,,,,male,19,
43,0,473,5,5,10,['d'],['d'],Y,Y,None,N,,,,,,,male,19,
43,1,474,4,4,10,['d'],['k'],N,N,None,Y,,,,,,,male,19,
43,2,475,2,2,10,['k'],['d'],N,Y,None,N,,,,,,,male,19,
43,3,476,9,9,10,['k'],['k'],Y,Y,None,N,,,,,,,male,19,
43,4,477,10,10,10,['d'],['d'],Y,N,None,Y,,,,,,,male,19,
43,5,478,5,5,10,['d'],['k'],N,N,None,Y,,,,,,,male,19,
43,6,479,4,4,10,['k'],['d'],N,Y,None,N,,,,,,,male,19,
43,7,480,2,2,10,['d'],['k'],N,N,None,Y,,,,,,,male,19,
43,8,481,9,9,10,['k'],['k'],Y,N,None,Y,,,,,,,male,19,
43,9,482,7,7,10,['d'],['d'],Y,Y,None,N,,,,,,,male,19,
43,10,483,6,6,10,['k'],['d'],N,Y,None,N,,,,,,,male,19,
44,0,484,4,4,10,['d'],['k'],N,N,None,Y,,,,,,,male,19,
44,1,485,5,5,10,['k'],['k'],Y,Y,None,N,,,,,,,male,19,
44,2,486,8,8,10,['d'],['k'],N,N,None,Y,,,,,,,male,19,
44,3,487,7,7,10,['k'],['k'],Y,N,None,Y,,,,,,,male,19,
44,4,488,2,2,10,['d'],['k'],N,Y,None,N,,,,,,,male,19,
44,5,489,1,1,10,['d'],['k'],N,N,None,Y,,,,,,,male,19,
44,6,490,8,8,10,['d'],['k'],N,N,None,Y,,,,,,,male,19,
44,7,491,5,5,10,['k'],['d'],N,Y,None,N,,,,,,,male,19,
44,8,492,5,5,10,['d'],['d'],Y,N,None,Y,,,,,,,male,19,
44,9,493,8,8,10,['k'],['d'],N,N,None,Y,,,,,,,male,19,
44,10,494,3,3,10,['d'],['k'],N,Y,None,N,,,,,,,male,19,
45,0,495,7,7,10,['k'],['k'],Y,Y,None,N,,,,,,,male,19,
45,1,496,4,4,10,['d'],['d'],Y,Y,None,N,,,,,,,male,19,
45,2,497,4,4,10,['k'],['d'],N,N,None,Y,,,,,,,male,19,
45,3,498,7,7,10,['k'],['d'],N,Y,None,N,,,,,,,male,19,
45,4,499,0,0,10,['k'],['d'],N,N,None,Y,21,25,23,,,,male,19,
45,5,500,7,7,11,['k'],['d'],Y,,,,,,,Y,Y,Y,male,19,
45,6,501,10,10,11,None,,Timed out,,,,,,,,Y,Y,male,19,
45,7,502,0,0,11,['k'],['k'],N,Y,None,N,,,,,Y,Y,male,19,
45,8,503,8,8,11,['k'],['k'],N,Y,None,N,,,,,Y,Y,male,19,
45,9,504,3,3,11,['k'],['k'],N,N,None,Y,,,,,Y,Y,male,19,
45,10,505,8,8,11,['k'],['d'],Y,N,None,Y,,,,,Y,Y,male,19,
46,0,506,2,2,11,['k'],['k'],N,N,None,Y,,,,,Y,Y,male,19,
46,1,507,9,9,11,['d'],['d'],N,Y,None,N,,,,,Y,Y,male,19,
46,2,508,10,10,11,['d'],['d'],N,Y,None,N,,,,,Y,Y,male,19,
46,3,509,5,5,11,['d'],['d'],N,Y,None,N,,,,,Y,Y,male,19,
46,4,510,10,10,11,['k'],['d'],Y,Y,None,N,,,,,Y,Y,male,19,
46,5,511,6,6,11,['k'],['k'],N,Y,None,N,,,,,Y,Y,male,19,
46,6,512,7,7,11,['d'],['d'],N,N,None,Y,,,,,Y,Y,male,19,
46,7,513,2,2,11,['k'],['k'],N,Y,None,N,,,,,Y,Y,male,19,
46,8,514,0,0,11,['d'],['d'],N,Y,None,N,,,,,Y,Y,male,19,
46,9,515,8,8,11,['d'],['d'],N,Y,None,N,,,,,Y,Y,male,19,
46,10,516,6,6,11,['k'],['d'],Y,N,None,Y,,,,,Y,Y,male,19,
47,0,517,9,9,11,None,,Timed out,N,None,Y,,,,,Y,Y,male,19,
47,1,518,3,3,11,['d'],['k'],Y,Y,None,N,,,,,Y,Y,male,19,
47,2,519,6,6,11,['d'],['d'],N,N,None,Y,,,,,Y,Y,male,19,
47,3,520,4,4,11,['k'],['d'],Y,Y,None,N,,,,,Y,Y,male,19,
47,4,521,7,7,11,['k'],['k'],N,N,None,Y,,,,,Y,Y,male,19,
47,5,522,4,4,11,['k'],['d'],Y,Y,None,N,,,,,Y,Y,male,19,
47,6,523,9,9,11,['d'],['k'],Y,N,None,Y,,,,,Y,Y,male,19,
47,7,524,0,0,11,None,,Timed out,N,None,Y,,,,,Y,Y,male,19,
47,8,525,10,10,11,['d'],['k'],Y,Y,None,N,,,,,Y,Y,male,19,
47,9,526,10,10,11,['k'],['k'],N,Y,None,N,,,,,Y,Y,male,19,
47,10,527,0,0,11,['d'],['k'],Y,Y,None,N,,,,,Y,Y,male,19,
48,0,528,9,9,11,['k'],['d'],Y,Y,None,N,,,,,Y,Y,male,19,
48,1,529,2,2,11,['d'],['k'],Y,N,None,Y,,,,,Y,Y,male,19,
48,2,530,5,5,11,['d'],['k'],Y,N,None,Y,,,,,Y,Y,male,19,
48,3,531,9,9,11,['d'],['d'],N,Y,None,N,,,,,Y,Y,male,19,
48,4,532,2,2,11,['d'],['d'],N,Y,None,N,,,,,Y,Y,male,19,
48,5,533,0,0,11,['d'],['k'],Y,N,None,Y,,,,,Y,Y,male,19,
48,6,534,1,1,11,['k'],['d'],Y,Y,None,N,,,,,Y,Y,male,19,
48,7,535,3,3,11,['d'],['k'],Y,N,None,Y,,,,,Y,Y,male,19,
48,8,536,1,1,11,['k'],['k'],N,Y,None,N,,,,,Y,Y,male,19,
48,9,537,7,7,11,['d'],['d'],N,Y,None,N,,,,,Y,Y,male,19,
48,10,538,0,0,11,None,,Timed out,Y,None,N,,,,,Y,Y,male,19,
49,0,539,3,3,11,['k'],['d'],Y,N,None,Y,,,,,Y,Y,male,19,
49,1,540,7,7,11,['k'],['d'],Y,N,None,Y,,,,,Y,Y,male,19,
49,2,541,2,2,11,['d'],['k'],Y,Y,None,N,,,,,Y,Y,male,19,
49,3,542,10,10,11,['d'],['d'],N,Y,None,N,,,,,Y,Y,male,19,
49,4,543,0,0,11,['d'],['k'],Y,N,None,Y,,,,,Y,Y,male,19,
49,5,544,1,1,11,['d'],['d'],N,N,None,Y,,,,,Y,Y,male,19,
49,6,545,3,3,11,None,,Timed out,N,None,Y,,,,,Y,Y,male,19,
49,7,546,4,4,11,['k'],['k'],N,N,None,Y,,,,,Y,Y,male,19,
49,8,547,0,0,11,['k'],['k'],N,N,None,Y,,,,,Y,Y,male,19,
49,9,548,5,5,11,['k'],['d'],Y,N,None,Y,,,,,Y,Y,male,19,
49,10,549,10,10,11,None,,Timed out,N,None,Y,21,23,25,,Y,Y,male,19,
50,0,550,2,2,12,['d'],['k'],Y,,,,,,,,Y,Y,male,19,
50,1,551,10,10,12,['k'],['d'],Y,,,,,,,,Y,Y,male,19,
50,2,552,8,8,12,['d'],['d'],N,N,None,Y,,,,,Y,Y,male,19,
50,3,553,1,1,12,['d'],['d'],N,N,None,Y,,,,,Y,Y,male,19,
50,4,554,6,6,12,['k'],['d'],Y,Y,None,N,,,,,Y,Y,male,19,
50,5,555,1,1,12,['k'],['d'],Y,Y,None,N,,,,,Y,Y,male,19,
50,6,556,3,3,12,['d'],['k'],Y,N,None,Y,,,,,Y,Y,male,19,
50,7,557,8,8,12,['k'],['k'],N,Y,None,N,,,,,Y,Y,male,19,
50,8,558,0,0,12,['k'],['k'],N,N,None,Y,,,,,Y,Y,male,19,
50,9,559,7,7,12,['k'],['k'],N,Y,None,N,,,,,Y,Y,male,19,
50,10,560,9,9,12,['k'],['k'],N,N,None,Y,,,,,Y,Y,male,19,
51,0,561,4,4,12,None,,Timed out,N,None,Y,,,,,Y,Y,male,19,
51,1,562,0,0,12,['d'],['d'],N,Y,None,N,,,,,Y,Y,male,19,
51,2,563,8,8,12,['d'],['k'],Y,N,None,Y,,,,,Y,Y,male,19,
51,3,564,2,2,12,['d'],['d'],N,N,None,Y,,,,,Y,Y,male,19,
51,4,565,10,10,12,['k'],['d'],Y,N,None,Y,,,,,Y,Y,male,19,
51,5,566,4,4,12,['d'],['k'],Y,Y,None,N,,,,,Y,Y,male,19,
51,6,567,6,6,12,['d'],['d'],N,N,None,Y,,,,,Y,Y,male,19,
51,7,568,8,8,12,['k'],['k'],N,Y,None,N,,,,,Y,Y,male,19,
51,8,569,2,2,12,['k'],['d'],Y,N,None,Y,,,,,Y,Y,male,19,
51,9,570,2,2,12,['d'],['k'],Y,Y,['space'],Y,,,,,Y,Y,male,19,
51,10,571,3,3,12,['k'],['k'],N,N,None,Y,,,,,Y,Y,male,19,
52,0,572,3,3,12,['k'],['k'],N,Y,None,N,,,,,Y,Y,male,19,
52,1,573,8,8,12,['d'],['k'],Y,Y,['space'],Y,,,,,Y,Y,male,19,
52,2,574,0,0,12,['k'],['d'],Y,N,None,Y,,,,,Y,Y,male,19,
52,3,575,5,5,12,['d'],['k'],Y,N,None,Y,,,,,Y,Y,male,19,
52,4,576,2,2,12,None,,Timed out,Y,None,N,,,,,Y,Y,male,19,
52,5,577,7,7,12,['d'],['d'],N,Y,None,N,,,,,Y,Y,male,19,
52,6,578,4,4,12,['d'],['d'],N,N,None,Y,,,,,Y,Y,male,19,
52,7,579,4,4,12,['d'],['d'],N,N,None,Y,,,,,Y,Y,male,19,
52,8,580,9,9,12,['k'],['k'],N,Y,None,N,,,,,Y,Y,male,19,
52,9,581,6,6,12,['d'],['k'],Y,Y,None,N,,,,,Y,Y,male,19,
52,10,582,8,8,12,['k'],['k'],N,Y,None,N,,,,,Y,Y,male,19,
53,0,583,8,8,12,['d'],['k'],Y,Y,None,N,,,,,Y,Y,male,19,
53,1,584,1,1,12,['k'],['d'],Y,Y,None,N,,,,,Y,Y,male,19,
53,2,585,3,3,12,['k'],['d'],Y,N,None,Y,,,,,Y,Y,male,19,
53,3,586,1,1,12,None,,Timed out,Y,None,N,,,,,Y,Y,male,19,
53,4,587,0,0,12,['d'],['k'],Y,N,None,Y,,,,,Y,Y,male,19,
53,5,588,3,3,12,['d'],['d'],N,Y,None,N,,,,,Y,Y,male,19,
53,6,589,9,9,12,['k'],['k'],N,Y,None,N,,,,,Y,Y,male,19,
53,7,590,9,9,12,['k'],['d'],Y,Y,None,N,,,,,Y,Y,male,19,
53,8,591,6,6,12,['k'],['k'],N,N,None,Y,,,,,Y,Y,male,19,
53,9,592,5,5,12,['d'],['k'],Y,N,None,Y,,,,,Y,Y,male,19,
53,10,593,6,6,12,['d'],['d'],N,N,None,Y,,,,,Y,Y,male,19,
54,0,594,6,6,12,None,,Timed out,Y,None,N,,,,,Y,Y,male,19,
54,1,595,0,0,12,['k'],['d'],Y,N,None,Y,,,,,Y,Y,male,19,
54,2,596,5,5,12,['k'],['d'],Y,N,None,Y,,,,,Y,Y,male,19,
54,3,597,9,9,12,['d'],['d'],N,Y,None,N,,,,,Y,Y,male,19,
54,4,598,6,6,12,['k'],['k'],N,N,None,Y,,,,,Y,Y,male,19,
54,5,599,4,4,12,['k'],['k'],N,N,None,Y,22,27,23,,Y,Y,male,19,
