.thisRepN,.thisTrialN,.thisN,.thisIndex,.thisTrial,Block Number,Key pressed,Correct?,Int Match?,Int Response,Int Correct?,Category,Line Accuracy,Interference Accuracy,Matching Interferences,New instruction shown?,Buttons switched?,Fast?,gender,age,
0,0,0,2,2,1,None,Timed out,,,,,,,,,,,F,21,
0,1,1,2,2,1,None,Timed out,,,,,,,,,,,F,21,
0,2,2,1,1,1,['k'],Y,Y,['space'],Y,['k'],,,,,,,F,21,
0,3,3,1,1,1,['d'],N,N,None,Y,['k'],,,,,,,F,21,
0,4,4,5,5,1,['k'],Y,Y,['space'],Y,['k'],,,,,,,F,21,
0,5,5,7,7,1,['d'],N,Y,['space'],Y,['k'],,,,,,,F,21,
0,6,6,8,8,1,['k'],N,N,None,Y,['d'],,,,,,,F,21,
0,7,7,2,2,1,['d'],N,N,['space'],N,['k'],,,,,,,F,21,
0,8,8,0,0,1,['k'],Y,N,None,Y,['k'],,,,,,,F,21,
0,9,9,5,5,1,['d'],Y,N,None,Y,['d'],,,,,,,F,21,
0,10,10,8,8,1,['k'],N,Y,['space'],Y,['d'],,,,,,,F,21,
1,0,11,7,7,1,['k'],N,Y,['space'],Y,['d'],,,,,,,F,21,
1,1,12,7,7,1,['d'],Y,Y,['space'],Y,['d'],,,,,,,F,21,
1,2,13,9,9,1,['k'],N,N,None,Y,['d'],,,,,,,F,21,
1,3,14,8,8,1,['d'],Y,N,['space'],N,['d'],,,,,,,F,21,
1,4,15,1,1,1,['k'],N,Y,['space'],Y,['d'],,,,,,,F,21,
1,5,16,4,4,1,['k'],Y,N,None,Y,['k'],,,,,,,F,21,
1,6,17,7,7,1,['k'],Y,N,None,Y,['k'],,,,,,,F,21,
1,7,18,8,8,1,['k'],Y,Y,['space'],Y,['k'],,,,,,,F,21,
1,8,19,6,6,1,['d'],Y,Y,['space'],Y,['d'],,,,,,,F,21,
1,9,20,2,2,1,['k'],Y,Y,None,N,['k'],,,,,,,F,21,
1,10,21,0,0,1,['k'],Y,Y,['space'],Y,['k'],,,,,,,F,21,
2,0,22,9,9,1,['k'],Y,N,['space'],N,['k'],,,,,,,F,21,
2,1,23,6,6,1,['d'],N,Y,None,N,['k'],,,,,,,F,21,
2,2,24,10,10,1,['k'],Y,N,None,Y,['k'],,,,,,,F,21,
2,3,25,0,0,1,['k'],N,N,None,Y,['d'],,,,,,,F,21,
2,4,26,0,0,1,['d'],Y,Y,['space'],Y,['d'],,,,,,,F,21,
2,5,27,1,1,1,['d'],Y,Y,['space'],Y,['d'],,,,,,,F,21,
2,6,28,2,2,1,['d'],Y,Y,['space'],Y,['d'],,,,,,,F,21,
2,7,29,0,0,1,['d'],N,N,None,Y,['k'],,,,,,,F,21,
2,8,30,3,3,1,['d'],N,Y,['space'],Y,['k'],,,,,,,F,21,
2,9,31,9,9,1,['d'],Y,N,None,Y,['d'],,,,,,,F,21,
2,10,32,4,4,1,['d'],N,Y,['space'],Y,['k'],,,,,,,F,21,
3,0,33,2,2,1,['k'],Y,Y,['space'],Y,['k'],,,,,,,F,21,
3,1,34,8,8,1,['k'],Y,N,None,Y,['k'],,,,,,,F,21,
3,2,35,0,0,1,['d'],N,N,None,Y,['k'],,,,,,,F,21,
3,3,36,4,4,1,['d'],Y,N,None,Y,['d'],,,,,,,F,21,
3,4,37,3,3,1,['k'],Y,N,None,Y,['k'],,,,,,,F,21,
3,5,38,2,2,1,['k'],Y,Y,['space'],Y,['k'],,,,,,,F,21,
3,6,39,10,10,1,['k'],N,N,None,Y,['d'],,,,,,,F,21,
3,7,40,3,3,1,['k'],Y,N,None,Y,['k'],,,,,,,F,21,
3,8,41,9,9,1,['d'],N,N,None,Y,['k'],,,,,,,F,21,
3,9,42,9,9,1,['d'],Y,Y,['space'],Y,['d'],,,,,,,F,21,
3,10,43,7,7,1,['k'],Y,Y,['space'],Y,['k'],,,,,,,F,21,
4,0,44,3,3,1,['d'],N,Y,['space'],Y,['k'],,,,,,,F,21,
4,1,45,2,2,1,['k'],N,N,None,Y,['d'],,,,,,,F,21,
4,2,46,2,2,1,['d'],Y,Y,['space'],Y,['d'],,,,,,,F,21,
4,3,47,1,1,1,['d'],Y,Y,['space'],Y,['d'],,,,,,,F,21,
4,4,48,0,0,1,['k'],Y,Y,['space'],Y,['k'],,,,,,,F,21,
4,5,49,5,5,1,['k'],N,N,None,Y,['d'],29,43,25,,,,F,21,
4,6,50,8,8,2,['k'],Y,,,,['k'],,,,,,,F,21,
4,7,51,1,1,2,['k'],N,,,,['d'],,,,,,,F,21,
4,8,52,3,3,2,['d'],N,Y,['space'],Y,['k'],,,,,,,F,21,
4,9,53,4,4,2,['k'],Y,Y,['space'],Y,['k'],,,,,,,F,21,
4,10,54,9,9,2,['d'],Y,Y,['space'],Y,['d'],,,,,,,F,21,
5,0,55,7,7,2,['k'],N,Y,['space'],Y,['d'],,,,,,,F,21,
5,1,56,7,7,2,['k'],Y,N,None,Y,['k'],,,,,,,F,21,
5,2,57,9,9,2,['d'],N,N,None,Y,['k'],,,,,,,F,21,
5,3,58,4,4,2,['k'],Y,N,None,Y,['k'],,,,,,,F,21,
5,4,59,0,0,2,['d'],Y,N,None,Y,['d'],,,,,,,F,21,
5,5,60,1,1,2,['k'],N,N,None,Y,['d'],,,,,,,F,21,
5,6,61,8,8,2,['k'],N,Y,['space'],Y,['d'],,,,,,,F,21,
5,7,62,2,2,2,['k'],N,N,None,Y,['d'],,,,,,,F,21,
5,8,63,4,4,2,['k'],N,N,['space'],N,['d'],,,,,,,F,21,
5,9,64,2,2,2,['d'],Y,N,None,Y,['d'],,,,,,,F,21,
5,10,65,4,4,2,['d'],N,N,None,Y,['k'],,,,,,,F,21,
6,0,66,2,2,2,['k'],Y,Y,['space'],Y,['k'],,,,,,,F,21,
6,1,67,5,5,2,['d'],Y,N,None,Y,['d'],,,,,,,F,21,
6,2,68,1,1,2,['d'],Y,N,None,Y,['d'],,,,,,,F,21,
6,3,69,5,5,2,['k'],N,Y,['space'],Y,['d'],,,,,,,F,21,
6,4,70,7,7,2,['d'],Y,N,None,Y,['d'],,,,,,,F,21,
6,5,71,2,2,2,['k'],Y,Y,None,N,['k'],,,,,,,F,21,
6,6,72,8,8,2,['k'],Y,Y,['space'],Y,['k'],,,,,,,F,21,
6,7,73,8,8,2,['k'],Y,N,None,Y,['k'],,,,,,,F,21,
6,8,74,8,8,2,['d'],N,Y,['space'],Y,['k'],,,,,,,F,21,
6,9,75,1,1,2,['k'],N,Y,['space'],Y,['d'],,,,,,,F,21,
6,10,76,2,2,2,['k'],Y,N,None,Y,['k'],,,,,,,F,21,
7,0,77,3,3,2,['d'],N,Y,['space'],Y,['k'],,,,,,,F,21,
7,1,78,4,4,2,['k'],Y,Y,['space'],Y,['k'],,,,,,,F,21,
7,2,79,7,7,2,['k'],Y,N,None,Y,['k'],,,,,,,F,21,
7,3,80,6,6,2,['k'],N,Y,['space'],Y,['d'],,,,,,,F,21,
7,4,81,6,6,2,['k'],Y,Y,['space'],Y,['k'],,,,,,,F,21,
7,5,82,6,6,2,['d'],Y,N,None,Y,['d'],,,,,,,F,21,
7,6,83,2,2,2,['k'],Y,N,None,Y,['k'],,,,,,,F,21,
7,7,84,5,5,2,['k'],N,Y,['space'],Y,['d'],,,,,,,F,21,
7,8,85,4,4,2,['k'],N,Y,['space'],Y,['d'],,,,,,,F,21,
7,9,86,7,7,2,['k'],Y,Y,['space'],Y,['k'],,,,,,,F,21,
7,10,87,7,7,2,['k'],N,Y,['space'],Y,['d'],,,,,,,F,21,
8,0,88,10,10,2,['d'],Y,Y,['space'],Y,['d'],,,,,,,F,21,
8,1,89,1,1,2,['d'],Y,Y,None,N,['d'],,,,,,,F,21,
8,2,90,4,4,2,['d'],N,Y,['space'],Y,['k'],,,,,,,F,21,
8,3,91,6,6,2,['k'],Y,Y,['space'],Y,['k'],,,,,,,F,21,
8,4,92,8,8,2,['k'],N,N,None,Y,['d'],,,,,,,F,21,
8,5,93,6,6,2,['k'],N,Y,['space'],Y,['d'],,,,,,,F,21,
8,6,94,8,8,2,['d'],Y,Y,['space'],Y,['d'],,,,,,,F,21,
8,7,95,4,4,2,['k'],N,N,None,Y,['d'],,,,,,,F,21,
8,8,96,5,5,2,['d'],Y,N,None,Y,['d'],,,,,,,F,21,
8,9,97,3,3,2,['d'],Y,N,None,Y,['d'],,,,,,,F,21,
8,10,98,3,3,2,['d'],Y,N,None,Y,['d'],,,,,,,F,21,
9,0,99,9,9,2,['d'],Y,N,None,Y,['d'],29,45,25,,,,F,21,
9,1,100,3,3,3,['d'],N,,,,['k'],,,,,,,F,21,
9,2,101,0,0,3,['k'],N,,,,['d'],,,,,,,F,21,
9,3,102,1,1,3,['d'],Y,N,None,Y,['d'],,,,,,,F,21,
9,4,103,5,5,3,['d'],Y,Y,None,N,['d'],,,,,,,F,21,
9,5,104,3,3,3,['d'],N,Y,['space'],Y,['k'],,,,,,,F,21,
9,6,105,6,6,3,['k'],N,Y,None,N,['d'],,,,,,,F,21,
9,7,106,2,2,3,['k'],N,Y,['space'],Y,['d'],,,,,,,F,21,
9,8,107,6,6,3,['d'],N,N,['d'],N,['k'],,,,,,,F,21,
9,9,108,1,1,3,['k'],Y,Y,['space'],Y,['k'],,,,,,,F,21,
9,10,109,8,8,3,['d'],Y,Y,['space'],Y,['d'],,,,,,,F,21,
10,0,110,9,9,3,['k'],Y,Y,['space'],Y,['k'],,,,,,,F,21,
10,1,111,8,8,3,['k'],Y,N,None,Y,['k'],,,,,,,F,21,
10,2,112,2,2,3,['d'],Y,N,None,Y,['d'],,,,,,,F,21,
10,3,113,3,3,3,['d'],N,Y,None,N,['k'],,,,,,,F,21,
10,4,114,5,5,3,['d'],Y,Y,['space'],Y,['d'],,,,,,,F,21,
10,5,115,6,6,3,['k'],Y,Y,['space'],Y,['k'],,,,,,,F,21,
10,6,116,2,2,3,['d'],Y,N,None,Y,['d'],,,,,,,F,21,
10,7,117,10,10,3,['k'],N,N,None,Y,['d'],,,,,,,F,21,
10,8,118,6,6,3,['d'],N,N,None,Y,['k'],,,,,,,F,21,
10,9,119,2,2,3,['k'],N,N,None,Y,['d'],,,,,,,F,21,
10,10,120,4,4,3,['d'],Y,N,None,Y,['d'],,,,,,,F,21,
11,0,121,3,3,3,['k'],N,Y,None,N,['d'],,,,,,,F,21,
11,1,122,8,8,3,['k'],N,Y,None,N,['d'],,,,,,,F,21,
11,2,123,4,4,3,['k'],N,Y,['space'],Y,['d'],,,,,,,F,21,
11,3,124,9,9,3,['d'],Y,N,None,Y,['d'],,,,,,,F,21,
11,4,125,7,7,3,['k'],Y,N,None,Y,['k'],,,,,,,F,21,
11,5,126,2,2,3,['d'],N,Y,['space'],Y,['k'],,,,,,,F,21,
11,6,127,3,3,3,['d'],Y,Y,['space'],Y,['d'],,,,,,,F,21,
11,7,128,3,3,3,['k'],N,N,None,Y,['d'],,,,,,,F,21,
11,8,129,4,4,3,['d'],N,Y,['space'],Y,['k'],,,,,,,F,21,
11,9,130,8,8,3,['k'],Y,N,None,Y,['k'],,,,,,,F,21,
11,10,131,9,9,3,['k'],Y,N,None,Y,['k'],,,,,,,F,21,
12,0,132,4,4,3,['k'],Y,N,None,Y,['k'],,,,,,,F,21,
12,1,133,2,2,3,['k'],N,N,None,Y,['d'],,,,,,,F,21,
12,2,134,5,5,3,['k'],N,N,None,Y,['d'],,,,,,,F,21,
12,3,135,6,6,3,['d'],N,N,None,Y,['k'],,,,,,,F,21,
12,4,136,7,7,3,['k'],N,Y,['space'],Y,['d'],,,,,,,F,21,
12,5,137,1,1,3,['k'],N,N,None,Y,['d'],,,,,,,F,21,
12,6,138,6,6,3,['k'],Y,Y,['space'],Y,['k'],,,,,,,F,21,
12,7,139,8,8,3,['d'],N,N,None,Y,['k'],,,,,,,F,21,
12,8,140,0,0,3,['k'],Y,Y,['space'],Y,['k'],,,,,,,F,21,
12,9,141,3,3,3,['d'],N,N,None,Y,['k'],,,,,,,F,21,
12,10,142,5,5,3,['k'],Y,Y,['space'],Y,['k'],,,,,,,F,21,
13,0,143,5,5,3,['k'],Y,N,None,Y,['k'],,,,,,,F,21,
13,1,144,6,6,3,['k'],N,Y,['space'],Y,['d'],,,,,,,F,21,
13,2,145,3,3,3,['k'],Y,Y,['space'],Y,['k'],,,,,,,F,21,
13,3,146,7,7,3,['k'],N,N,None,Y,['d'],,,,,,,F,21,
13,4,147,10,10,3,['d'],N,Y,['space'],Y,['k'],,,,,,,F,21,
13,5,148,1,1,3,['k'],N,N,None,Y,['d'],,,,,,,F,21,
13,6,149,1,1,3,['d'],N,Y,['space'],Y,['k'],22,42,24,,,,F,21,
13,7,150,3,3,4,['k'],N,,,,['d'],,,,,,,F,21,
13,8,151,7,7,4,['d'],N,,,,['k'],,,,,,,F,21,
13,9,152,7,7,4,['k'],Y,N,None,Y,['k'],,,,,,,F,21,
13,10,153,4,4,4,['d'],N,Y,['space'],Y,['k'],,,,,,,F,21,
14,0,154,8,8,4,['d'],Y,Y,['space'],Y,['d'],,,,,,,F,21,
14,1,155,4,4,4,['k'],N,N,None,Y,['d'],,,,,,,F,21,
14,2,156,9,9,4,['d'],N,N,None,Y,['k'],,,,,,,F,21,
14,3,157,2,2,4,['k'],Y,Y,None,N,['k'],,,,,,,F,21,
14,4,158,4,4,4,['d'],N,Y,['space'],Y,['k'],,,,,,,F,21,
14,5,159,4,4,4,['d'],N,N,None,Y,['k'],,,,,,,F,21,
14,6,160,7,7,4,['k'],N,N,None,Y,['d'],,,,,,,F,21,
14,7,161,6,6,4,['d'],N,Y,['space'],Y,['k'],,,,,,,F,21,
14,8,162,3,3,4,['k'],N,Y,None,N,['d'],,,,,,,F,21,
14,9,163,9,9,4,['d'],N,Y,['space'],Y,['k'],,,,,,,F,21,
14,10,164,9,9,4,['k'],N,Y,['space'],Y,['d'],,,,,,,F,21,
15,0,165,6,6,4,['k'],N,Y,None,N,['d'],,,,,,,F,21,
15,1,166,8,8,4,['k'],N,N,['space'],N,['d'],,,,,,,F,21,
15,2,167,1,1,4,['d'],Y,Y,None,N,['d'],,,,,,,F,21,
15,3,168,0,0,4,['k'],N,N,None,Y,['d'],,,,,,,F,21,
15,4,169,5,5,4,['d'],N,Y,None,N,['k'],,,,,,,F,21,
15,5,170,3,3,4,['d'],N,Y,['space'],Y,['k'],,,,,,,F,21,
15,6,171,10,10,4,['d'],N,N,None,Y,['k'],,,,,,,F,21,
15,7,172,4,4,4,['k'],N,Y,None,N,['d'],,,,,,,F,21,
15,8,173,0,0,4,['d'],Y,Y,None,N,['d'],,,,,,,F,21,
15,9,174,9,9,4,['k'],Y,Y,None,N,['k'],,,,,,,F,21,
15,10,175,4,4,4,['k'],N,N,None,Y,['d'],,,,,,,F,21,
16,0,176,6,6,4,['d'],Y,Y,['space'],Y,['d'],,,,,,,F,21,
16,1,177,1,1,4,['k'],N,Y,['space'],Y,['d'],,,,,,,F,21,
16,2,178,1,1,4,['d'],Y,N,None,Y,['d'],,,,,,,F,21,
16,3,179,4,4,4,['k'],Y,N,None,Y,['k'],,,,,,,F,21,
16,4,180,1,1,4,['d'],Y,N,['space'],N,['d'],,,,,,,F,21,
16,5,181,1,1,4,['k'],N,N,None,Y,['d'],,,,,,,F,21,
16,6,182,7,7,4,['k'],N,Y,None,N,['d'],,,,,,,F,21,
16,7,183,6,6,4,['k'],Y,Y,['space'],Y,['k'],,,,,,,F,21,
16,8,184,2,2,4,['k'],N,Y,['space'],Y,['d'],,,,,,,F,21,
16,9,185,6,6,4,['d'],Y,Y,['space'],Y,['d'],,,,,,,F,21,
16,10,186,5,5,4,['d'],N,Y,['space'],Y,['k'],,,,,,,F,21,
17,0,187,2,2,4,['k'],Y,N,None,Y,['k'],,,,,,,F,21,
17,1,188,0,0,4,['d'],N,Y,['space'],Y,['k'],,,,,,,F,21,
17,2,189,9,9,4,['d'],N,Y,['space'],Y,['k'],,,,,,,F,21,
17,3,190,2,2,4,['d'],N,N,None,Y,['k'],,,,,,,F,21,
17,4,191,0,0,4,['k'],Y,Y,None,N,['k'],,,,,,,F,21,
17,5,192,4,4,4,['d'],N,N,None,Y,['k'],,,,,,,F,21,
17,6,193,9,9,4,['d'],Y,N,None,Y,['d'],,,,,,,F,21,
17,7,194,3,3,4,['k'],N,N,['space'],N,['d'],,,,,,,F,21,
17,8,195,6,6,4,['d'],Y,N,None,Y,['d'],,,,,,,F,21,
17,9,196,6,6,4,['k'],N,N,None,Y,['d'],,,,,,,F,21,
17,10,197,10,10,4,['d'],N,N,None,Y,['k'],,,,,,,F,21,
18,0,198,4,4,4,['k'],N,N,None,Y,['d'],,,,,,,F,21,
18,1,199,4,4,4,['k'],Y,N,['space'],N,['k'],17,34,25,,,,F,21,
18,2,200,1,1,5,['k'],Y,,,,['k'],,,,,,,F,21,
18,3,201,5,5,5,['d'],Y,,,,['d'],,,,,,,F,21,
18,4,202,10,10,5,['d'],N,Y,['space'],Y,['k'],,,,,,,F,21,
18,5,203,6,6,5,['k'],Y,Y,['space'],Y,['k'],,,,,,,F,21,
18,6,204,2,2,5,['k'],Y,N,None,Y,['k'],,,,,,,F,21,
18,7,205,1,1,5,['d'],N,Y,['space'],Y,['k'],,,,,,,F,21,
18,8,206,5,5,5,['d'],N,Y,['space'],Y,['k'],,,,,,,F,21,
18,9,207,8,8,5,['k'],Y,N,None,Y,['k'],,,,,,,F,21,
18,10,208,7,7,5,['k'],N,Y,None,N,['d'],,,,,,,F,21,
19,0,209,8,8,5,['k'],N,Y,None,N,['d'],,,,,,,F,21,
19,1,210,1,1,5,['d'],Y,N,None,Y,['d'],,,,,,,F,21,
19,2,211,5,5,5,['k'],N,Y,None,N,['d'],,,,,,,F,21,
19,3,212,9,9,5,['k'],Y,N,None,Y,['k'],,,,,,,F,21,
19,4,213,7,7,5,['d'],N,Y,['space'],Y,['k'],,,,,,,F,21,
19,5,214,3,3,5,['d'],Y,Y,None,N,['d'],,,,,,,F,21,
19,6,215,0,0,5,['k'],Y,N,None,Y,['k'],,,,,,,F,21,
19,7,216,3,3,5,['k'],N,Y,['space'],Y,['d'],,,,,,,F,21,
19,8,217,10,10,5,['k'],Y,Y,['space'],Y,['k'],,,,,,,F,21,
19,9,218,6,6,5,['d'],N,N,None,Y,['k'],,,,,,,F,21,
19,10,219,5,5,5,['d'],N,Y,None,N,['k'],,,,,,,F,21,
20,0,220,6,6,5,['d'],Y,Y,['space'],Y,['d'],,,,,,,F,21,
20,1,221,0,0,5,['d'],Y,Y,None,N,['d'],,,,,,,F,21,
20,2,222,8,8,5,['k'],Y,Y,['space'],Y,['k'],,,,,,,F,21,
20,3,223,0,0,5,['k'],N,Y,['space'],Y,['d'],,,,,,,F,21,
20,4,224,5,5,5,['d'],Y,Y,['space'],Y,['d'],,,,,,,F,21,
20,5,225,0,0,5,['d'],Y,Y,['space'],Y,['d'],,,,,,,F,21,
20,6,226,8,8,5,['k'],Y,Y,['space'],Y,['k'],,,,,,,F,21,
20,7,227,5,5,5,['k'],Y,Y,['space'],Y,['k'],,,,,,,F,21,
20,8,228,4,4,5,['d'],N,N,None,Y,['k'],,,,,,,F,21,
20,9,229,9,9,5,['k'],N,Y,None,N,['d'],,,,,,,F,21,
20,10,230,3,3,5,['k'],Y,Y,None,N,['k'],,,,,,,F,21,
21,0,231,4,4,5,['d'],Y,Y,['space'],Y,['d'],,,,,,,F,21,
21,1,232,4,4,5,['k'],N,N,None,Y,['d'],,,,,,,F,21,
21,2,233,1,1,5,['d'],N,N,['space'],N,['k'],,,,,,,F,21,
21,3,234,9,9,5,['d'],N,N,None,Y,['k'],,,,,,,F,21,
21,4,235,2,2,5,['d'],N,N,['space'],N,['k'],,,,,,,F,21,
21,5,236,2,2,5,['d'],N,Y,None,N,['k'],,,,,,,F,21,
21,6,237,9,9,5,['k'],Y,Y,None,N,['k'],,,,,,,F,21,
21,7,238,2,2,5,['k'],N,N,None,Y,['d'],,,,,,,F,21,
21,8,239,10,10,5,['k'],Y,N,None,Y,['k'],,,,,,,F,21,
21,9,240,0,0,5,['k'],N,N,None,Y,['d'],,,,,,,F,21,
21,10,241,0,0,5,['d'],N,N,['space'],N,['k'],,,,,,,F,21,
22,0,242,9,9,5,['k'],N,N,None,Y,['d'],,,,,,,F,21,
22,1,243,4,4,5,['k'],Y,N,None,Y,['k'],,,,,,,F,21,
22,2,244,10,10,5,['k'],N,N,None,Y,['d'],,,,,,,F,21,
22,3,245,8,8,5,['k'],Y,N,None,Y,['k'],,,,,,,F,21,
22,4,246,2,2,5,['d'],Y,N,None,Y,['d'],,,,,,,F,21,
22,5,247,9,9,5,['k'],N,N,None,Y,['d'],,,,,,,F,21,
22,6,248,5,5,5,['k'],N,N,None,Y,['d'],,,,,,,F,21,
22,7,249,9,9,5,['k'],N,N,None,Y,['d'],24,35,25,,,,F,21,
22,8,250,3,3,6,['k'],Y,,,,['k'],,,,,,,F,21,
22,9,251,5,5,6,['k'],N,,,,['d'],,,,,,,F,21,
22,10,252,4,4,6,['k'],N,N,None,Y,['d'],,,,,,,F,21,
23,0,253,3,3,6,['d'],N,Y,['space'],Y,['k'],,,,,,,F,21,
23,1,254,0,0,6,['d'],Y,N,None,Y,['d'],,,,,,,F,21,
23,2,255,0,0,6,['k'],Y,Y,['space'],Y,['k'],,,,,,,F,21,
23,3,256,2,2,6,['d'],Y,N,None,Y,['d'],,,,,,,F,21,
23,4,257,7,7,6,['k'],N,Y,['space'],Y,['d'],,,,,,,F,21,
23,5,258,6,6,6,['d'],Y,Y,None,N,['d'],,,,,,,F,21,
23,6,259,3,3,6,['d'],N,Y,['space'],Y,['k'],,,,,,,F,21,
23,7,260,10,10,6,['d'],Y,Y,['space'],Y,['d'],,,,,,,F,21,
23,8,261,9,9,6,['k'],N,N,None,Y,['d'],,,,,,,F,21,
23,9,262,0,0,6,['d'],Y,N,None,Y,['d'],,,,,,,F,21,
23,10,263,0,0,6,['k'],N,N,None,Y,['d'],,,,,,,F,21,
24,0,264,2,2,6,['k'],Y,N,None,Y,['k'],,,,,,,F,21,
24,1,265,9,9,6,['d'],N,Y,['space'],Y,['k'],,,,,,,F,21,
24,2,266,7,7,6,['d'],Y,N,None,Y,['d'],,,,,,,F,21,
24,3,267,1,1,6,['d'],N,N,None,Y,['k'],,,,,,,F,21,
24,4,268,3,3,6,['d'],N,N,None,Y,['k'],,,,,,,F,21,
24,5,269,0,0,6,['d'],N,N,None,Y,['k'],,,,,,,F,21,
24,6,270,1,1,6,['k'],N,Y,['space'],Y,['d'],,,,,,,F,21,
24,7,271,4,4,6,['d'],Y,N,None,Y,['d'],,,,,,,F,21,
24,8,272,2,2,6,['k'],N,N,None,Y,['d'],,,,,,,F,21,
24,9,273,10,10,6,['d'],N,N,None,Y,['k'],,,,,,,F,21,
24,10,274,9,9,6,['k'],N,N,None,Y,['d'],,,,,,,F,21,
25,0,275,10,10,6,['d'],N,N,['d'],N,['k'],,,,,,,F,21,
25,1,276,9,9,6,['d'],Y,Y,['space'],Y,['d'],,,,,,,F,21,
25,2,277,0,0,6,['k'],Y,Y,['space'],Y,['k'],,,,,,,F,21,
25,3,278,8,8,6,['d'],Y,Y,['space'],Y,['d'],,,,,,,F,21,
25,4,279,0,0,6,['d'],Y,N,None,Y,['d'],,,,,,,F,21,
25,5,280,2,2,6,['k'],N,N,None,Y,['d'],,,,,,,F,21,
25,6,281,0,0,6,['d'],N,Y,None,N,['k'],,,,,,,F,21,
25,7,282,10,10,6,['k'],N,N,None,Y,['d'],,,,,,,F,21,
25,8,283,4,4,6,['d'],Y,N,None,Y,['d'],,,,,,,F,21,
25,9,284,7,7,6,['k'],N,Y,None,N,['d'],,,,,,,F,21,
25,10,285,8,8,6,['d'],Y,N,None,Y,['d'],,,,,,,F,21,
26,0,286,9,9,6,['k'],N,N,None,Y,['d'],,,,,,,F,21,
26,1,287,4,4,6,['k'],Y,Y,['d'],N,['k'],,,,,,,F,21,
26,2,288,0,0,6,['d'],N,Y,None,N,['k'],,,,,,,F,21,
26,3,289,6,6,6,['d'],N,N,None,Y,['k'],,,,,,,F,21,
26,4,290,9,9,6,['k'],N,N,None,Y,['d'],,,,,,,F,21,
26,5,291,5,5,6,['k'],N,Y,['space'],Y,['d'],,,,,,,F,21,
26,6,292,0,0,6,['k'],Y,N,None,Y,['k'],,,,,,,F,21,
26,7,293,10,10,6,['d'],N,Y,None,N,['k'],,,,,,,F,21,
26,8,294,8,8,6,['k'],Y,Y,None,N,['k'],,,,,,,F,21,
26,9,295,5,5,6,['k'],N,Y,None,N,['d'],,,,,,,F,21,
26,10,296,9,9,6,['d'],Y,Y,['space'],Y,['d'],,,,,,,F,21,
27,0,297,6,6,6,['d'],Y,Y,['space'],Y,['d'],,,,,,,F,21,
27,1,298,7,7,6,['k'],Y,N,None,Y,['k'],,,,,,,F,21,
27,2,299,10,10,6,['d'],N,Y,['space'],Y,['k'],22,39,22,,,,F,21,
27,3,300,9,9,7,['d'],N,,,,['k'],,,,,,,F,21,
27,4,301,7,7,7,['k'],Y,,,,['k'],,,,,,,F,21,
27,5,302,7,7,7,['d'],N,N,None,Y,['k'],,,,,,,F,21,
27,6,303,2,2,7,['k'],Y,N,None,Y,['k'],,,,,,,F,21,
27,7,304,9,9,7,['d'],N,Y,['space'],Y,['k'],,,,,,,F,21,
27,8,305,10,10,7,['k'],N,N,None,Y,['d'],,,,,,,F,21,
27,9,306,7,7,7,['d'],Y,Y,['space'],Y,['d'],,,,,,,F,21,
27,10,307,10,10,7,['d'],Y,N,None,Y,['d'],,,,,,,F,21,
28,0,308,3,3,7,['k'],N,Y,['space'],Y,['d'],,,,,,,F,21,
28,1,309,5,5,7,['k'],N,N,None,Y,['d'],,,,,,,F,21,
28,2,310,8,8,7,['d'],N,Y,['space'],Y,['k'],,,,,,,F,21,
28,3,311,10,10,7,['d'],N,N,None,Y,['k'],,,,,,,F,21,
28,4,312,3,3,7,['d'],Y,N,None,Y,['d'],,,,,,,F,21,
28,5,313,3,3,7,['d'],Y,Y,['space'],Y,['d'],,,,,,,F,21,
28,6,314,8,8,7,['d'],Y,Y,['space'],Y,['d'],,,,,,,F,21,
28,7,315,4,4,7,['d'],Y,Y,['space'],Y,['d'],,,,,,,F,21,
28,8,316,10,10,7,['k'],N,N,None,Y,['d'],,,,,,,F,21,
28,9,317,2,2,7,['d'],Y,N,None,Y,['d'],,,,,,,F,21,
28,10,318,10,10,7,['d'],Y,N,None,Y,['d'],,,,,,,F,21,
29,0,319,7,7,7,['d'],N,N,None,Y,['k'],,,,,,,F,21,
29,1,320,9,9,7,['d'],Y,N,None,Y,['d'],,,,,,,F,21,
29,2,321,2,2,7,['k'],Y,Y,None,N,['k'],,,,,,,F,21,
29,3,322,4,4,7,['d'],N,Y,['space'],Y,['k'],,,,,,,F,21,
29,4,323,9,9,7,['d'],N,N,None,Y,['k'],,,,,,,F,21,
29,5,324,6,6,7,['k'],Y,Y,['space'],Y,['k'],,,,,,,F,21,
29,6,325,9,9,7,['k'],Y,N,None,Y,['k'],,,,,,,F,21,
29,7,326,7,7,7,['k'],Y,N,None,Y,['k'],,,,,,,F,21,
29,8,327,10,10,7,['k'],Y,Y,['space'],Y,['k'],,,,,,,F,21,
29,9,328,9,9,7,['d'],N,N,None,Y,['k'],,,,,,,F,21,
29,10,329,6,6,7,['k'],Y,N,None,Y,['k'],,,,,,,F,21,
30,0,330,10,10,7,['d'],N,Y,['space'],Y,['k'],,,,,,,F,21,
30,1,331,3,3,7,['d'],N,Y,['space'],Y,['k'],,,,,,,F,21,
30,2,332,7,7,7,['d'],N,Y,None,N,['k'],,,,,,,F,21,
30,3,333,4,4,7,['d'],Y,N,None,Y,['d'],,,,,,,F,21,
30,4,334,0,0,7,['d'],Y,N,None,Y,['d'],,,,,,,F,21,
30,5,335,5,5,7,['d'],Y,N,None,Y,['d'],,,,,,,F,21,
30,6,336,10,10,7,['d'],N,Y,['space'],Y,['k'],,,,,,,F,21,
30,7,337,8,8,7,['d'],Y,Y,None,N,['d'],,,,,,,F,21,
30,8,338,6,6,7,['k'],Y,N,None,Y,['k'],,,,,,,F,21,
30,9,339,10,10,7,['d'],N,Y,['space'],Y,['k'],,,,,,,F,21,
30,10,340,10,10,7,['k'],N,Y,['k'],N,['d'],,,,,,,F,21,
31,0,341,3,3,7,['d'],Y,N,None,Y,['d'],,,,,,,F,21,
31,1,342,0,0,7,['k'],Y,N,None,Y,['k'],,,,,,,F,21,
31,2,343,3,3,7,['d'],Y,Y,['space'],Y,['d'],,,,,,,F,21,
31,3,344,0,0,7,['d'],N,N,None,Y,['k'],,,,,,,F,21,
31,4,345,5,5,7,['d'],N,N,None,Y,['k'],,,,,,,F,21,
31,5,346,5,5,7,['k'],Y,Y,['space'],Y,['k'],,,,,,,F,21,
31,6,347,7,7,7,['k'],Y,N,None,Y,['k'],,,,,,,F,21,
31,7,348,10,10,7,['d'],Y,N,None,Y,['d'],,,,,,,F,21,
31,8,349,9,9,7,['k'],N,N,None,Y,['d'],28,44,20,,,,F,21,
31,9,350,6,6,8,['d'],N,,,,['k'],,,,,,,F,21,
31,10,351,3,3,8,['k'],N,,,,['d'],,,,,,,F,21,
32,0,352,7,7,8,['d'],Y,Y,['space'],Y,['d'],,,,,,,F,21,
32,1,353,4,4,8,['d'],Y,N,None,Y,['d'],,,,,,,F,21,
32,2,354,8,8,8,['d'],N,N,None,Y,['k'],,,,,,,F,21,
32,3,355,8,8,8,['k'],Y,Y,None,N,['k'],,,,,,,F,21,
32,4,356,10,10,8,['d'],Y,N,None,Y,['d'],,,,,,,F,21,
32,5,357,5,5,8,['k'],Y,Y,['space'],Y,['k'],,,,,,,F,21,
32,6,358,3,3,8,['k'],Y,N,None,Y,['k'],,,,,,,F,21,
32,7,359,5,5,8,['d'],N,Y,['space'],Y,['k'],,,,,,,F,21,
32,8,360,4,4,8,['d'],N,N,None,Y,['k'],,,,,,,F,21,
32,9,361,0,0,8,['d'],Y,N,None,Y,['d'],,,,,,,F,21,
32,10,362,3,3,8,['k'],Y,Y,['space'],Y,['k'],,,,,,,F,21,
33,0,363,10,10,8,['k'],N,N,None,Y,['d'],,,,,,,F,21,
33,1,364,8,8,8,['d'],Y,Y,['space'],Y,['d'],,,,,,,F,21,
33,2,365,10,10,8,['d'],Y,Y,None,N,['d'],,,,,,,F,21,
33,3,366,8,8,8,['d'],Y,Y,None,N,['d'],,,,,,,F,21,
33,4,367,6,6,8,['k'],Y,Y,['space'],Y,['k'],,,,,,,F,21,
33,5,368,4,4,8,['d'],N,N,None,Y,['k'],,,,,,,F,21,
33,6,369,9,9,8,['k'],N,Y,None,N,['d'],,,,,,,F,21,
33,7,370,7,7,8,['k'],Y,Y,['space'],Y,['k'],,,,,,,F,21,
33,8,371,3,3,8,['d'],Y,N,None,Y,['d'],,,,,,,F,21,
33,9,372,2,2,8,['k'],N,N,None,Y,['d'],,,,,,,F,21,
33,10,373,3,3,8,['k'],Y,Y,['space'],Y,['k'],,,,,,,F,21,
34,0,374,0,0,8,['d'],N,N,None,Y,['k'],,,,,,,F,21,
34,1,375,1,1,8,['d'],N,N,None,Y,['k'],,,,,,,F,21,
34,2,376,1,1,8,['d'],N,Y,['space'],Y,['k'],,,,,,,F,21,
34,3,377,2,2,8,['k'],Y,N,None,Y,['k'],,,,,,,F,21,
34,4,378,3,3,8,['k'],N,N,None,Y,['d'],,,,,,,F,21,
34,5,379,1,1,8,['k'],N,Y,None,N,['d'],,,,,,,F,21,
34,6,380,9,9,8,['k'],Y,N,None,Y,['k'],,,,,,,F,21,
34,7,381,5,5,8,['k'],N,N,None,Y,['d'],,,,,,,F,21,
34,8,382,7,7,8,['k'],Y,N,None,Y,['k'],,,,,,,F,21,
34,9,383,2,2,8,['d'],Y,N,None,Y,['d'],,,,,,,F,21,
34,10,384,7,7,8,['k'],Y,N,None,Y,['k'],,,,,,,F,21,
35,0,385,6,6,8,['d'],Y,N,None,Y,['d'],,,,,,,F,21,
35,1,386,10,10,8,['k'],N,N,None,Y,['d'],,,,,,,F,21,
35,2,387,7,7,8,['k'],Y,Y,['space'],Y,['k'],,,,,,,F,21,
35,3,388,1,1,8,['d'],Y,N,None,Y,['d'],,,,,,,F,21,
35,4,389,6,6,8,['k'],Y,N,None,Y,['k'],,,,,,,F,21,
35,5,390,7,7,8,['d'],N,N,['d'],N,['k'],,,,,,,F,21,
35,6,391,10,10,8,['d'],Y,N,None,Y,['d'],,,,,,,F,21,
35,7,392,8,8,8,['k'],Y,N,None,Y,['k'],,,,,,,F,21,
35,8,393,1,1,8,['k'],N,N,None,Y,['d'],,,,,,,F,21,
35,9,394,7,7,8,['k'],N,Y,['space'],Y,['d'],,,,,,,F,21,
35,10,395,0,0,8,['d'],N,N,None,Y,['k'],,,,,,,F,21,
36,0,396,5,5,8,['k'],N,Y,['space'],Y,['d'],,,,,,,F,21,
36,1,397,1,1,8,['k'],N,Y,['space'],Y,['d'],,,,,,,F,21,
36,2,398,5,5,8,['d'],N,Y,['space'],Y,['k'],,,,,,,F,21,
36,3,399,8,8,8,['d'],Y,Y,['space'],Y,['d'],27,42,20,,,,F,21,
36,4,400,4,4,9,['k'],Y,,,,['k'],,,,,,,F,21,
36,5,401,10,10,9,['d'],Y,,,,['d'],,,,,,,F,21,
36,6,402,5,5,9,['d'],Y,Y,['space'],Y,['d'],,,,,,,F,21,
36,7,403,6,6,9,['d'],N,N,None,Y,['k'],,,,,,,F,21,
36,8,404,2,2,9,['d'],N,Y,None,N,['k'],,,,,,,F,21,
36,9,405,4,4,9,['d'],N,Y,['space'],Y,['k'],,,,,,,F,21,
36,10,406,8,8,9,['d'],N,N,None,Y,['k'],,,,,,,F,21,
37,0,407,7,7,9,['k'],Y,Y,['space'],Y,['k'],,,,,,,F,21,
37,1,408,8,8,9,['d'],Y,N,None,Y,['d'],,,,,,,F,21,
37,2,409,2,2,9,['d'],Y,Y,['space'],Y,['d'],,,,,,,F,21,
37,3,410,5,5,9,['d'],N,Y,['space'],Y,['k'],,,,,,,F,21,
37,4,411,5,5,9,['d'],Y,N,None,Y,['d'],,,,,,,F,21,
37,5,412,7,7,9,['d'],N,N,None,Y,['k'],,,,,,,F,21,
37,6,413,6,6,9,['k'],N,Y,['space'],Y,['d'],,,,,,,F,21,
37,7,414,6,6,9,['d'],Y,Y,None,N,['d'],,,,,,,F,21,
37,8,415,10,10,9,['d'],Y,Y,['space'],Y,['d'],,,,,,,F,21,
37,9,416,2,2,9,['d'],Y,N,None,Y,['d'],,,,,,,F,21,
37,10,417,3,3,9,['k'],Y,Y,['space'],Y,['k'],,,,,,,F,21,
38,0,418,4,4,9,['k'],Y,N,None,Y,['k'],,,,,,,F,21,
38,1,419,10,10,9,['k'],Y,N,None,Y,['k'],,,,,,,F,21,
38,2,420,1,1,9,['k'],Y,N,None,Y,['k'],,,,,,,F,21,
38,3,421,10,10,9,['d'],Y,Y,['space'],Y,['d'],,,,,,,F,21,
38,4,422,3,3,9,['k'],Y,N,None,Y,['k'],,,,,,,F,21,
38,5,423,3,3,9,['d'],N,Y,['space'],Y,['k'],,,,,,,F,21,
38,6,424,7,7,9,['k'],Y,N,None,Y,['k'],,,,,,,F,21,
38,7,425,7,7,9,['k'],N,N,None,Y,['d'],,,,,,,F,21,
38,8,426,2,2,9,['d'],N,Y,['space'],Y,['k'],,,,,,,F,21,
38,9,427,7,7,9,['k'],N,N,None,Y,['d'],,,,,,,F,21,
38,10,428,1,1,9,['d'],N,Y,None,N,['k'],,,,,,,F,21,
39,0,429,5,5,9,['k'],N,Y,None,N,['d'],,,,,,,F,21,
39,1,430,6,6,9,['d'],N,Y,['space'],Y,['k'],,,,,,,F,21,
39,2,431,7,7,9,['d'],N,Y,['space'],Y,['k'],,,,,,,F,21,
39,3,432,8,8,9,['d'],Y,Y,['space'],Y,['d'],,,,,,,F,21,
39,4,433,0,0,9,['k'],N,N,None,Y,['d'],,,,,,,F,21,
39,5,434,5,5,9,['d'],Y,N,None,Y,['d'],,,,,,,F,21,
39,6,435,1,1,9,['k'],Y,N,None,Y,['k'],,,,,,,F,21,
39,7,436,8,8,9,['d'],Y,Y,['space'],Y,['d'],,,,,,,F,21,
39,8,437,5,5,9,['k'],Y,Y,['space'],Y,['k'],,,,,,,F,21,
39,9,438,10,10,9,['d'],Y,N,None,Y,['d'],,,,,,,F,21,
39,10,439,4,4,9,['d'],N,N,None,Y,['k'],,,,,,,F,21,
40,0,440,5,5,9,['k'],N,N,None,Y,['d'],,,,,,,F,21,
40,1,441,3,3,9,['k'],N,Y,['space'],Y,['d'],,,,,,,F,21,
40,2,442,10,10,9,['k'],Y,N,None,Y,['k'],,,,,,,F,21,
40,3,443,1,1,9,['d'],N,Y,['space'],Y,['k'],,,,,,,F,21,
40,4,444,5,5,9,['k'],Y,Y,None,N,['k'],,,,,,,F,21,
40,5,445,2,2,9,['d'],N,N,None,Y,['k'],,,,,,,F,21,
40,6,446,0,0,9,['k'],N,N,None,Y,['d'],,,,,,,F,21,
40,7,447,6,6,9,['k'],N,N,None,Y,['d'],,,,,,,F,21,
40,8,448,7,7,9,['k'],Y,Y,['space'],Y,['k'],,,,,,,F,21,
40,9,449,5,5,9,['k'],N,N,None,Y,['d'],26,43,24,,,,F,21,
40,10,450,3,3,10,['k'],N,,,,['d'],,,,,,,F,21,
41,0,451,0,0,10,['d'],Y,,,,['d'],,,,,,,F,21,
41,1,452,3,3,10,['k'],Y,Y,['space'],Y,['k'],,,,,,,F,21,
41,2,453,10,10,10,['k'],Y,N,None,Y,['k'],,,,,,,F,21,
41,3,454,6,6,10,['k'],Y,Y,None,N,['k'],,,,,,,F,21,
41,4,455,0,0,10,['d'],Y,N,['space'],N,['d'],,,,,,,F,21,
41,5,456,5,5,10,['d'],Y,Y,None,N,['d'],,,,,,,F,21,
41,6,457,4,4,10,['d'],N,Y,['space'],Y,['k'],,,,,,,F,21,
41,7,458,10,10,10,['k'],N,Y,None,N,['d'],,,,,,,F,21,
41,8,459,3,3,10,['k'],N,N,None,Y,['d'],,,,,,,F,21,
41,9,460,3,3,10,['k'],Y,N,None,Y,['k'],,,,,,,F,21,
41,10,461,2,2,10,['d'],Y,N,None,Y,['d'],,,,,,,F,21,
42,0,462,6,6,10,['k'],N,Y,['space'],Y,['d'],,,,,,,F,21,
42,1,463,1,1,10,['d'],Y,N,['space'],N,['d'],,,,,,,F,21,
42,2,464,0,0,10,['d'],Y,Y,None,N,['d'],,,,,,,F,21,
42,3,465,1,1,10,['d'],N,Y,['space'],Y,['k'],,,,,,,F,21,
42,4,466,7,7,10,['d'],N,N,None,Y,['k'],,,,,,,F,21,
42,5,467,0,0,10,['d'],Y,N,None,Y,['d'],,,,,,,F,21,
42,6,468,2,2,10,['k'],Y,N,None,Y,['k'],,,,,,,F,21,
42,7,469,9,9,10,['k'],N,Y,['space'],Y,['d'],,,,,,,F,21,
42,8,470,5,5,10,['d'],N,Y,None,N,['k'],,,,,,,F,21,
42,9,471,3,3,10,['k'],N,Y,['space'],Y,['d'],,,,,,,F,21,
42,10,472,8,8,10,['d'],N,N,None,Y,['k'],,,,,,,F,21,
43,0,473,4,4,10,['d'],N,Y,None,N,['k'],,,,,,,F,21,
43,1,474,5,5,10,['k'],Y,Y,['space'],Y,['k'],,,,,,,F,21,
43,2,475,7,7,10,['d'],N,N,None,Y,['k'],,,,,,,F,21,
43,3,476,7,7,10,['k'],Y,Y,['space'],Y,['k'],,,,,,,F,21,
43,4,477,0,0,10,['d'],Y,N,None,Y,['d'],,,,,,,F,21,
43,5,478,4,4,10,['k'],N,Y,['space'],Y,['d'],,,,,,,F,21,
43,6,479,2,2,10,['k'],N,N,None,Y,['d'],,,,,,,F,21,
43,7,480,9,9,10,['k'],Y,Y,None,N,['k'],,,,,,,F,21,
43,8,481,6,6,10,['d'],N,Y,['space'],Y,['k'],,,,,,,F,21,
43,9,482,10,10,10,['d'],N,Y,['space'],Y,['k'],,,,,,,F,21,
43,10,483,3,3,10,['d'],N,N,None,Y,['k'],,,,,,,F,21,
44,0,484,9,9,10,['d'],Y,Y,None,N,['d'],,,,,,,F,21,
44,1,485,8,8,10,['d'],Y,Y,['space'],Y,['d'],,,,,,,F,21,
44,2,486,3,3,10,['k'],N,N,None,Y,['d'],,,,,,,F,21,
44,3,487,9,9,10,['d'],N,Y,['space'],Y,['k'],,,,,,,F,21,
44,4,488,6,6,10,['k'],N,Y,['space'],Y,['d'],,,,,,,F,21,
44,5,489,2,2,10,['d'],N,Y,['space'],Y,['k'],,,,,,,F,21,
44,6,490,6,6,10,['k'],Y,Y,['space'],Y,['k'],,,,,,,F,21,
44,7,491,4,4,10,['d'],Y,N,None,Y,['d'],,,,,,,F,21,
44,8,492,10,10,10,['k'],Y,N,None,Y,['k'],,,,,,,F,21,
44,9,493,2,2,10,['k'],N,N,None,Y,['d'],,,,,,,F,21,
44,10,494,6,6,10,['d'],Y,N,None,Y,['d'],,,,,,,F,21,
45,0,495,1,1,10,['k'],Y,Y,['space'],Y,['k'],,,,,,,F,21,
45,1,496,8,8,10,['k'],Y,N,None,Y,['k'],,,,,,,F,21,
45,2,497,2,2,10,['d'],Y,N,None,Y,['d'],,,,,,,F,21,
45,3,498,10,10,10,['d'],Y,N,None,Y,['d'],,,,,,,F,21,
45,4,499,9,9,10,"['d', 'k']",N,N,None,Y,['d'],26,38,25,,,,F,21,
45,5,500,9,9,11,['d'],N,,,,['d'],,,,Y,Y,Y,F,21,
45,6,501,1,1,11,['d'],Y,,,,['k'],,,,,Y,Y,F,21,
45,7,502,5,5,11,['d'],N,Y,['space'],Y,['d'],,,,,Y,Y,F,21,
45,8,503,10,10,11,['d'],Y,Y,None,N,['k'],,,,,Y,Y,F,21,
45,9,504,8,8,11,['k'],N,Y,['space'],Y,['k'],,,,,Y,Y,F,21,
45,10,505,10,10,11,['k'],Y,N,None,Y,['d'],,,,,Y,Y,F,21,
46,0,506,7,7,11,['k'],Y,N,None,Y,['d'],,,,,Y,Y,F,21,
46,1,507,5,5,11,['d'],N,Y,None,N,['d'],,,,,Y,Y,F,21,
46,2,508,6,6,11,['d'],Y,N,None,Y,['k'],,,,,Y,Y,F,21,
46,3,509,8,8,11,['k'],Y,N,None,Y,['d'],,,,,Y,Y,F,21,
46,4,510,4,4,11,['d'],N,Y,['space'],Y,['d'],,,,,Y,Y,F,21,
46,5,511,5,5,11,['k'],N,N,None,Y,['k'],,,,,Y,Y,F,21,
46,6,512,10,10,11,['d'],Y,N,None,Y,['k'],,,,,Y,Y,F,21,
46,7,513,8,8,11,['d'],Y,Y,['space'],Y,['k'],,,,,Y,Y,F,21,
46,8,514,4,4,11,['k'],Y,Y,['space'],Y,['d'],,,,,Y,Y,F,21,
46,9,515,6,6,11,['k'],N,Y,['space'],Y,['k'],,,,,Y,Y,F,21,
46,10,516,8,8,11,['d'],Y,N,None,Y,['k'],,,,,Y,Y,F,21,
47,0,517,10,10,11,['d'],N,N,None,Y,['d'],,,,,Y,Y,F,21,
47,1,518,1,1,11,['k'],Y,N,['k'],N,['d'],,,,,Y,Y,F,21,
47,2,519,4,4,11,['k'],N,Y,['space'],Y,['k'],,,,,Y,Y,F,21,
47,3,520,10,10,11,['k'],N,Y,None,N,['k'],,,,,Y,Y,F,21,
47,4,521,3,3,11,['d'],Y,N,None,Y,['k'],,,,,Y,Y,F,21,
47,5,522,3,3,11,['k'],Y,Y,['space'],Y,['d'],,,,,Y,Y,F,21,
47,6,523,0,0,11,['d'],Y,N,None,Y,['k'],,,,,Y,Y,F,21,
47,7,524,5,5,11,['k'],Y,Y,['space'],Y,['d'],,,,,Y,Y,F,21,
47,8,525,0,0,11,['k'],Y,Y,['space'],Y,['d'],,,,,Y,Y,F,21,
47,9,526,1,1,11,['d'],N,N,None,Y,['d'],,,,,Y,Y,F,21,
47,10,527,8,8,11,['k'],N,N,None,Y,['k'],,,,,Y,Y,F,21,
48,0,528,0,0,11,['d'],Y,Y,['space'],Y,['k'],,,,,Y,Y,F,21,
48,1,529,1,1,11,['d'],N,N,None,Y,['d'],,,,,Y,Y,F,21,
48,2,530,7,7,11,['d'],Y,Y,['space'],Y,['k'],,,,,Y,Y,F,21,
48,3,531,8,8,11,['k'],N,Y,None,N,['k'],,,,,Y,Y,F,21,
48,4,532,4,4,11,['d'],Y,N,None,Y,['k'],,,,,Y,Y,F,21,
48,5,533,0,0,11,['d'],N,N,None,Y,['d'],,,,,Y,Y,F,21,
48,6,534,9,9,11,['k'],Y,Y,['space'],Y,['d'],,,,,Y,Y,F,21,
48,7,535,4,4,11,['k'],Y,Y,['space'],Y,['d'],,,,,Y,Y,F,21,
48,8,536,9,9,11,['k'],Y,N,None,Y,['d'],,,,,Y,Y,F,21,
48,9,537,10,10,11,['k'],N,Y,None,N,['k'],,,,,Y,Y,F,21,
48,10,538,1,1,11,['k'],N,N,None,Y,['k'],,,,,Y,Y,F,21,
49,0,539,10,10,11,['d'],N,Y,None,N,['d'],,,,,Y,Y,F,21,
49,1,540,5,5,11,['d'],N,N,None,Y,['d'],,,,,Y,Y,F,21,
49,2,541,9,9,11,['d'],N,Y,['space'],Y,['d'],,,,,Y,Y,F,21,
49,3,542,0,0,11,['k'],N,Y,['space'],Y,['k'],,,,,Y,Y,F,21,
49,4,543,10,10,11,['d'],N,Y,None,N,['d'],,,,,Y,Y,F,21,
49,5,544,7,7,11,['k'],N,N,None,Y,['k'],,,,,Y,Y,F,21,
49,6,545,0,0,11,['d'],Y,N,None,Y,['k'],,,,,Y,Y,F,21,
49,7,546,9,9,11,['k'],N,Y,None,N,['k'],,,,,Y,Y,F,21,
49,8,547,4,4,11,['d'],N,N,None,Y,['d'],,,,,Y,Y,F,21,
49,9,548,3,3,11,['d'],N,Y,['space'],Y,['d'],,,,,Y,Y,F,21,
49,10,549,10,10,11,['k'],N,N,None,Y,['k'],23,39,25,,Y,Y,F,21,
50,0,550,10,10,12,['k'],N,,,,['k'],,,,,Y,Y,F,21,
50,1,551,1,1,12,['k'],Y,,,,['d'],,,,,Y,Y,F,21,
50,2,552,9,9,12,['d'],N,N,None,Y,['d'],,,,,Y,Y,F,21,
50,3,553,1,1,12,['k'],N,N,None,Y,['k'],,,,,Y,Y,F,21,
50,4,554,3,3,12,['k'],Y,N,None,Y,['d'],,,,,Y,Y,F,21,
50,5,555,1,1,12,['d'],Y,Y,['space'],Y,['k'],,,,,Y,Y,F,21,
50,6,556,7,7,12,['k'],Y,N,None,Y,['d'],,,,,Y,Y,F,21,
50,7,557,5,5,12,['k'],N,N,None,Y,['k'],,,,,Y,Y,F,21,
50,8,558,6,6,12,['k'],N,N,None,Y,['k'],,,,,Y,Y,F,21,
50,9,559,8,8,12,['d'],Y,N,None,Y,['k'],,,,,Y,Y,F,21,
50,10,560,2,2,12,['d'],Y,N,None,Y,['k'],,,,,Y,Y,F,21,
51,0,561,0,0,12,['k'],Y,N,None,Y,['d'],,,,,Y,Y,F,21,
51,1,562,5,5,12,['k'],N,N,None,Y,['k'],,,,,Y,Y,F,21,
51,2,563,1,1,12,['k'],Y,Y,None,N,['d'],,,,,Y,Y,F,21,
51,3,564,0,0,12,['k'],Y,Y,['space'],Y,['d'],,,,,Y,Y,F,21,
51,4,565,0,0,12,['k'],N,Y,['space'],Y,['k'],,,,,Y,Y,F,21,
51,5,566,8,8,12,['d'],N,Y,['space'],Y,['d'],,,,,Y,Y,F,21,
51,6,567,3,3,12,['k'],Y,N,None,Y,['d'],,,,,Y,Y,F,21,
51,7,568,5,5,12,['d'],Y,N,None,Y,['k'],,,,,Y,Y,F,21,
51,8,569,0,0,12,['k'],Y,Y,['space'],Y,['d'],,,,,Y,Y,F,21,
51,9,570,6,6,12,['k'],Y,Y,['space'],Y,['d'],,,,,Y,Y,F,21,
51,10,571,7,7,12,['k'],N,Y,['space'],Y,['k'],,,,,Y,Y,F,21,
52,0,572,6,6,12,['k'],Y,Y,['space'],Y,['d'],,,,,Y,Y,F,21,
52,1,573,6,6,12,['k'],N,Y,['space'],Y,['k'],,,,,Y,Y,F,21,
52,2,574,1,1,12,['k'],Y,N,None,Y,['d'],,,,,Y,Y,F,21,
52,3,575,4,4,12,['k'],N,Y,['space'],Y,['k'],,,,,Y,Y,F,21,
52,4,576,0,0,12,['k'],N,N,['d'],N,['k'],,,,,Y,Y,F,21,
52,5,577,8,8,12,['d'],N,Y,['space'],Y,['d'],,,,,Y,Y,F,21,
52,6,578,6,6,12,['d'],N,N,None,Y,['d'],,,,,Y,Y,F,21,
52,7,579,6,6,12,['k'],N,Y,['space'],Y,['k'],,,,,Y,Y,F,21,
52,8,580,1,1,12,['k'],N,Y,['space'],Y,['k'],,,,,Y,Y,F,21,
52,9,581,1,1,12,['d'],Y,Y,['space'],Y,['k'],,,,,Y,Y,F,21,
52,10,582,9,9,12,['d'],Y,Y,['space'],Y,['k'],,,,,Y,Y,F,21,
53,0,583,2,2,12,['k'],Y,N,None,Y,['d'],,,,,Y,Y,F,21,
53,1,584,5,5,12,['d'],Y,Y,['space'],Y,['k'],,,,,Y,Y,F,21,
53,2,585,7,7,12,['d'],N,N,None,Y,['d'],,,,,Y,Y,F,21,
53,3,586,2,2,12,['d'],N,N,None,Y,['d'],,,,,Y,Y,F,21,
53,4,587,1,1,12,['d'],Y,Y,None,N,['k'],,,,,Y,Y,F,21,
53,5,588,0,0,12,['d'],Y,Y,None,N,['k'],,,,,Y,Y,F,21,
53,6,589,2,2,12,['d'],N,Y,None,N,['d'],,,,,Y,Y,F,21,
53,7,590,4,4,12,['k'],N,N,None,Y,['k'],,,,,Y,Y,F,21,
53,8,591,9,9,12,['d'],N,Y,None,N,['d'],,,,,Y,Y,F,21,
53,9,592,8,8,12,['d'],Y,Y,None,N,['k'],,,,,Y,Y,F,21,
53,10,593,8,8,12,['k'],Y,N,None,Y,['d'],,,,,Y,Y,F,21,
54,0,594,1,1,12,['d'],N,N,None,Y,['d'],,,,,Y,Y,F,21,
54,1,595,7,7,12,['k'],N,N,None,Y,['k'],,,,,Y,Y,F,21,
54,2,596,1,1,12,['d'],N,Y,['space'],Y,['d'],,,,,Y,Y,F,21,
54,3,597,8,8,12,['d'],Y,Y,['space'],Y,['k'],,,,,Y,Y,F,21,
54,4,598,10,10,12,['d'],N,N,None,Y,['d'],,,,,Y,Y,F,21,
54,5,599,1,1,12,['k'],N,N,None,Y,['k'],24,41,24,,Y,Y,F,21,
