.thisRepN,.thisTrialN,.thisN,.thisIndex,.thisTrial,Block Number,Key pressed,Category,Correct?,Int Match?,Int Response,Int Correct?,Line Accuracy,Interference Accuracy,Matching Interferences,New instruction shown?,Buttons switched?,Fast?,gender,age,
0,0,0,8,8,1,['d'],['k'],N,,,,,,,,,,m,19,
0,1,1,4,4,1,['k'],['k'],Y,,,,,,,,,,m,19,
0,2,2,7,7,1,['d'],['k'],N,N,['space'],N,,,,,,,m,19,
0,3,3,4,4,1,['d'],['d'],Y,N,['space'],N,,,,,,,m,19,
0,4,4,3,3,1,['k'],['d'],N,N,None,Y,,,,,,,m,19,
0,5,5,7,7,1,['d'],['d'],Y,Y,['space'],Y,,,,,,,m,19,
0,6,6,4,4,1,['d'],['k'],N,N,None,Y,,,,,,,m,19,
0,7,7,5,5,1,['k'],['k'],Y,N,None,Y,,,,,,,m,19,
0,8,8,1,1,1,['k'],['d'],N,N,None,Y,,,,,,,m,19,
0,9,9,7,7,1,['k'],['d'],N,Y,['space'],Y,,,,,,,m,19,
0,10,10,1,1,1,['d'],['k'],N,Y,None,N,,,,,,,m,19,
1,0,11,8,8,1,['d'],['k'],N,Y,['space'],Y,,,,,,,m,19,
1,1,12,2,2,1,['d'],['k'],N,Y,None,N,,,,,,,m,19,
1,2,13,5,5,1,['d'],['d'],Y,Y,['space'],Y,,,,,,,m,19,
1,3,14,3,3,1,['k'],['k'],Y,Y,['space'],Y,,,,,,,m,19,
1,4,15,2,2,1,['k'],['k'],Y,N,None,Y,,,,,,,m,19,
1,5,16,6,6,1,['d'],['d'],Y,Y,None,N,,,,,,,m,19,
1,6,17,5,5,1,['d'],['k'],N,N,None,Y,,,,,,,m,19,
1,7,18,6,6,1,['d'],['d'],Y,N,None,Y,,,,,,,m,19,
1,8,19,5,5,1,['k'],['d'],N,Y,None,N,,,,,,,m,19,
1,9,20,1,1,1,['k'],['d'],N,Y,None,N,,,,,,,m,19,
1,10,21,5,5,1,['d'],['k'],N,Y,None,N,,,,,,,m,19,
2,0,22,8,8,1,['k'],['k'],Y,N,None,Y,,,,,,,m,19,
2,1,23,5,5,1,['d'],['d'],Y,N,None,Y,,,,,,,m,19,
2,2,24,3,3,1,['k'],['k'],Y,N,None,Y,,,,,,,m,19,
2,3,25,6,6,1,['d'],['d'],Y,N,None,Y,,,,,,,m,19,
2,4,26,4,4,1,['k'],['d'],N,N,None,Y,,,,,,,m,19,
2,5,27,3,3,1,['d'],['k'],N,Y,['space'],Y,,,,,,,m,19,
2,6,28,2,2,1,['d'],['k'],N,N,None,Y,,,,,,,m,19,
2,7,29,10,10,1,['k'],['k'],Y,N,None,Y,,,,,,,m,19,
2,8,30,3,3,1,['d'],['k'],N,Y,['space'],Y,,,,,,,m,19,
2,9,31,5,5,1,['k'],['d'],N,Y,None,N,,,,,,,m,19,
2,10,32,0,0,1,['d'],['k'],N,Y,['space'],Y,,,,,,,m,19,
3,0,33,2,2,1,['k'],['d'],N,Y,None,N,,,,,,,m,19,
3,1,34,2,2,1,['d'],['k'],N,N,None,Y,,,,,,,m,19,
3,2,35,4,4,1,['d'],['d'],Y,Y,['space'],Y,,,,,,,m,19,
3,3,36,5,5,1,['k'],['k'],Y,Y,['space'],Y,,,,,,,m,19,
3,4,37,6,6,1,['d'],['k'],N,N,None,Y,,,,,,,m,19,
3,5,38,5,5,1,['d'],['d'],Y,Y,None,N,,,,,,,m,19,
3,6,39,5,5,1,['d'],['k'],N,N,None,Y,,,,,,,m,19,
3,7,40,9,9,1,['d'],['d'],Y,N,None,Y,,,,,,,m,19,
3,8,41,1,1,1,['k'],['k'],Y,Y,['space'],Y,,,,,,,m,19,
3,9,42,2,2,1,['d'],['d'],Y,N,None,Y,,,,,,,m,19,
3,10,43,4,4,1,['d'],['d'],Y,N,None,Y,,,,,,,m,19,
4,0,44,6,6,1,['k'],['d'],N,Y,None,N,,,,,,,m,19,
4,1,45,7,7,1,['k'],['d'],N,N,None,Y,,,,,,,m,19,
4,2,46,7,7,1,['k'],['d'],N,N,None,Y,,,,,,,m,19,
4,3,47,6,6,1,['k'],['d'],N,Y,['space'],Y,,,,,,,m,19,
4,4,48,4,4,1,['k'],['k'],Y,Y,['space'],Y,,,,,,,m,19,
4,5,49,5,5,1,['d'],['k'],N,Y,['space'],Y,22,36,24,,,,m,19,
4,6,50,10,10,2,['k'],['d'],N,,,,,,,,,,m,19,
4,7,51,0,0,2,['k'],['d'],N,,,,,,,,,,m,19,
4,8,52,9,9,2,['d'],['k'],N,N,None,Y,,,,,,,m,19,
4,9,53,9,9,2,['k'],['d'],N,Y,['space'],Y,,,,,,,m,19,
4,10,54,0,0,2,['d'],['k'],N,Y,['space'],Y,,,,,,,m,19,
5,0,55,10,10,2,['k'],['k'],Y,N,['space'],N,,,,,,,m,19,
5,1,56,10,10,2,['d'],['k'],N,N,None,Y,,,,,,,m,19,
5,2,57,10,10,2,['k'],['d'],N,Y,None,N,,,,,,,m,19,
5,3,58,9,9,2,['k'],['d'],N,N,None,Y,,,,,,,m,19,
5,4,59,2,2,2,['d'],['k'],N,Y,None,N,,,,,,,m,19,
5,5,60,9,9,2,['k'],['k'],Y,Y,['space'],Y,,,,,,,m,19,
5,6,61,4,4,2,['k'],['k'],Y,Y,None,N,,,,,,,m,19,
5,7,62,10,10,2,['k'],['k'],Y,N,None,Y,,,,,,,m,19,
5,8,63,10,10,2,['d'],['d'],Y,Y,['space'],Y,,,,,,,m,19,
5,9,64,6,6,2,['k'],['d'],N,N,None,Y,,,,,,,m,19,
5,10,65,1,1,2,['d'],['d'],Y,N,['space'],N,,,,,,,m,19,
6,0,66,1,1,2,['d'],['k'],N,N,None,Y,,,,,,,m,19,
6,1,67,7,7,2,['d'],['k'],N,Y,['space'],Y,,,,,,,m,19,
6,2,68,7,7,2,['d'],['d'],Y,N,None,Y,,,,,,,m,19,
6,3,69,9,9,2,['d'],['d'],Y,N,None,Y,,,,,,,m,19,
6,4,70,0,0,2,['d'],['d'],Y,Y,None,N,,,,,,,m,19,
6,5,71,2,2,2,['d'],['d'],Y,N,None,Y,,,,,,,m,19,
6,6,72,7,7,2,['d'],['k'],N,N,None,Y,,,,,,,m,19,
6,7,73,4,4,2,['k'],['k'],Y,N,None,Y,,,,,,,m,19,
6,8,74,7,7,2,['d'],['k'],N,Y,['space'],Y,,,,,,,m,19,
6,9,75,1,1,2,['d'],['k'],N,Y,['space'],Y,,,,,,,m,19,
6,10,76,2,2,2,['k'],['d'],N,Y,['space'],Y,,,,,,,m,19,
7,0,77,6,6,2,['k'],['k'],Y,N,None,Y,,,,,,,m,19,
7,1,78,3,3,2,['d'],['k'],N,N,None,Y,,,,,,,m,19,
7,2,79,0,0,2,['k'],['k'],Y,Y,['space'],Y,,,,,,,m,19,
7,3,80,2,2,2,['d'],['d'],Y,Y,['space'],Y,,,,,,,m,19,
7,4,81,8,8,2,['d'],['k'],N,N,None,Y,,,,,,,m,19,
7,5,82,10,10,2,['d'],['d'],Y,N,None,Y,,,,,,,m,19,
7,6,83,4,4,2,['k'],['k'],Y,N,None,Y,,,,,,,m,19,
7,7,84,3,3,2,['d'],['k'],N,Y,['space'],Y,,,,,,,m,19,
7,8,85,5,5,2,['k'],['d'],N,Y,['space'],Y,,,,,,,m,19,
7,9,86,9,9,2,['k'],['k'],Y,N,None,Y,,,,,,,m,19,
7,10,87,7,7,2,['d'],['k'],N,N,None,Y,,,,,,,m,19,
8,0,88,5,5,2,['k'],['k'],Y,N,None,Y,,,,,,,m,19,
8,1,89,8,8,2,['k'],['k'],Y,N,None,Y,,,,,,,m,19,
8,2,90,4,4,2,['d'],['d'],Y,N,None,Y,,,,,,,m,19,
8,3,91,4,4,2,['d'],['d'],Y,Y,None,N,,,,,,,m,19,
8,4,92,1,1,2,['d'],['d'],Y,N,None,Y,,,,,,,m,19,
8,5,93,6,6,2,['d'],['k'],N,Y,None,N,,,,,,,m,19,
8,6,94,10,10,2,['d'],['d'],Y,Y,None,N,,,,,,,m,19,
8,7,95,10,10,2,['d'],['k'],N,Y,['space'],Y,,,,,,,m,19,
8,8,96,3,3,2,['d'],['d'],Y,N,None,Y,,,,,,,m,19,
8,9,97,1,1,2,['d'],['k'],N,Y,None,N,,,,,,,m,19,
8,10,98,9,9,2,['k'],['d'],N,Y,['space'],Y,,,,,,,m,19,
9,0,99,9,9,2,['d'],['d'],Y,N,None,Y,25,38,22,,,,m,19,
9,1,100,1,1,3,['k'],['d'],N,,,,,,,,,,m,19,
9,2,101,0,0,3,['d'],['d'],Y,,,,,,,,,,m,19,
9,3,102,10,10,3,['d'],['k'],N,Y,['space'],Y,,,,,,,m,19,
9,4,103,5,5,3,['k'],['k'],Y,Y,['space'],Y,,,,,,,m,19,
9,5,104,4,4,3,['k'],['d'],N,N,None,Y,,,,,,,m,19,
9,6,105,4,4,3,['d'],['d'],Y,Y,['space'],Y,,,,,,,m,19,
9,7,106,1,1,3,['k'],['k'],Y,N,None,Y,,,,,,,m,19,
9,8,107,3,3,3,['k'],['k'],Y,Y,['space'],Y,,,,,,,m,19,
9,9,108,8,8,3,['d'],['d'],Y,Y,['space'],Y,,,,,,,m,19,
9,10,109,0,0,3,['k'],['d'],N,Y,['space'],Y,,,,,,,m,19,
10,0,110,4,4,3,['d'],['k'],N,N,None,Y,,,,,,,m,19,
10,1,111,1,1,3,['d'],['k'],N,N,None,Y,,,,,,,m,19,
10,2,112,8,8,3,['k'],['d'],N,N,None,Y,,,,,,,m,19,
10,3,113,0,0,3,['d'],['k'],N,N,None,Y,,,,,,,m,19,
10,4,114,0,0,3,['k'],['k'],Y,N,None,Y,,,,,,,m,19,
10,5,115,9,9,3,['k'],['k'],Y,N,None,Y,,,,,,,m,19,
10,6,116,10,10,3,['d'],['d'],Y,N,None,Y,,,,,,,m,19,
10,7,117,7,7,3,['d'],['k'],N,N,None,Y,,,,,,,m,19,
10,8,118,4,4,3,['k'],['d'],N,N,None,Y,,,,,,,m,19,
10,9,119,2,2,3,['d'],['k'],N,N,None,Y,,,,,,,m,19,
10,10,120,8,8,3,['k'],['k'],Y,N,None,Y,,,,,,,m,19,
11,0,121,10,10,3,['d'],['d'],Y,N,None,Y,,,,,,,m,19,
11,1,122,2,2,3,['k'],['k'],Y,N,['k'],N,,,,,,,m,19,
11,2,123,5,5,3,['k'],['k'],Y,N,None,Y,,,,,,,m,19,
11,3,124,9,9,3,['k'],['k'],Y,N,None,Y,,,,,,,m,19,
11,4,125,0,0,3,['d'],['d'],Y,Y,['space'],Y,,,,,,,m,19,
11,5,126,8,8,3,['d'],['d'],Y,N,None,Y,,,,,,,m,19,
11,6,127,2,2,3,['k'],['k'],Y,Y,['d'],N,,,,,,,m,19,
11,7,128,0,0,3,['k'],['k'],Y,N,['space'],N,,,,,,,m,19,
11,8,129,0,0,3,['k'],['d'],N,Y,['space'],Y,,,,,,,m,19,
11,9,130,7,7,3,['k'],['d'],N,N,None,Y,,,,,,,m,19,
11,10,131,10,10,3,['d'],['d'],Y,N,None,Y,,,,,,,m,19,
12,0,132,4,4,3,['d'],['d'],Y,N,None,Y,,,,,,,m,19,
12,1,133,10,10,3,['k'],['d'],N,N,None,Y,,,,,,,m,19,
12,2,134,1,1,3,['d'],['k'],N,Y,['space'],Y,,,,,,,m,19,
12,3,135,8,8,3,['k'],['k'],Y,N,None,Y,,,,,,,m,19,
12,4,136,6,6,3,['k'],['d'],N,Y,['space'],Y,,,,,,,m,19,
12,5,137,9,9,3,['k'],['k'],Y,Y,['space'],Y,,,,,,,m,19,
12,6,138,10,10,3,['k'],['k'],Y,N,None,Y,,,,,,,m,19,
12,7,139,1,1,3,['d'],['d'],Y,Y,['space'],Y,,,,,,,m,19,
12,8,140,8,8,3,['k'],['d'],N,Y,['space'],Y,,,,,,,m,19,
12,9,141,3,3,3,['k'],['k'],Y,Y,['space'],Y,,,,,,,m,19,
12,10,142,6,6,3,['k'],['k'],Y,Y,['space'],Y,,,,,,,m,19,
13,0,143,1,1,3,['d'],['k'],N,N,None,Y,,,,,,,m,19,
13,1,144,2,2,3,['k'],['k'],Y,N,None,Y,,,,,,,m,19,
13,2,145,2,2,3,['d'],['d'],Y,Y,['space'],Y,,,,,,,m,19,
13,3,146,8,8,3,['d'],['k'],N,N,None,Y,,,,,,,m,19,
13,4,147,4,4,3,['k'],['d'],N,N,None,Y,,,,,,,m,19,
13,5,148,6,6,3,['d'],['k'],N,N,None,Y,,,,,,,m,19,
13,6,149,7,7,3,['k'],['k'],Y,Y,None,N,29,44,18,,,,m,19,
13,7,150,0,0,4,['k'],['d'],N,,,,,,,,,,m,19,
13,8,151,2,2,4,['d'],['k'],N,,,,,,,,,,m,19,
13,9,152,6,6,4,['d'],['k'],N,N,None,Y,,,,,,,m,19,
13,10,153,1,1,4,['k'],['k'],Y,Y,['space'],Y,,,,,,,m,19,
14,0,154,5,5,4,['k'],['d'],N,N,None,Y,,,,,,,m,19,
14,1,155,1,1,4,['k'],['k'],Y,N,None,Y,,,,,,,m,19,
14,2,156,2,2,4,['k'],['k'],Y,N,None,Y,,,,,,,m,19,
14,3,157,9,9,4,['k'],['k'],Y,N,None,Y,,,,,,,m,19,
14,4,158,7,7,4,['k'],['d'],N,N,None,Y,,,,,,,m,19,
14,5,159,6,6,4,['d'],['d'],Y,N,None,Y,,,,,,,m,19,
14,6,160,6,6,4,['k'],['k'],Y,N,None,Y,,,,,,,m,19,
14,7,161,0,0,4,['k'],['k'],Y,Y,['space'],Y,,,,,,,m,19,
14,8,162,6,6,4,['k'],['d'],N,N,None,Y,,,,,,,m,19,
14,9,163,6,6,4,['d'],['d'],Y,Y,['space'],Y,,,,,,,m,19,
14,10,164,10,10,4,['d'],['d'],Y,Y,None,N,,,,,,,m,19,
15,0,165,10,10,4,['k'],['d'],N,N,None,Y,,,,,,,m,19,
15,1,166,5,5,4,['k'],['k'],Y,N,None,Y,,,,,,,m,19,
15,2,167,10,10,4,['k'],['k'],Y,Y,['space'],Y,,,,,,,m,19,
15,3,168,5,5,4,['d'],['d'],Y,Y,['space'],Y,,,,,,,m,19,
15,4,169,8,8,4,['d'],['d'],Y,Y,['space'],Y,,,,,,,m,19,
15,5,170,0,0,4,['k'],['d'],N,N,None,Y,,,,,,,m,19,
15,6,171,6,6,4,['d'],['d'],Y,Y,['space'],Y,,,,,,,m,19,
15,7,172,9,9,4,['d'],['d'],Y,Y,['space'],Y,,,,,,,m,19,
15,8,173,9,9,4,['k'],['k'],Y,Y,['space'],Y,,,,,,,m,19,
15,9,174,10,10,4,['k'],['d'],N,N,['space'],N,,,,,,,m,19,
15,10,175,5,5,4,['d'],['d'],Y,Y,['space'],Y,,,,,,,m,19,
16,0,176,7,7,4,['k'],['k'],Y,N,None,Y,,,,,,,m,19,
16,1,177,9,9,4,['d'],['d'],Y,N,None,Y,,,,,,,m,19,
16,2,178,7,7,4,['d'],['d'],Y,Y,['space'],Y,,,,,,,m,19,
16,3,179,8,8,4,['k'],['k'],Y,N,None,Y,,,,,,,m,19,
16,4,180,2,2,4,['d'],['k'],N,Y,None,N,,,,,,,m,19,
16,5,181,3,3,4,['k'],['d'],N,Y,None,N,,,,,,,m,19,
16,6,182,1,1,4,['k'],['d'],N,Y,['space'],Y,,,,,,,m,19,
16,7,183,10,10,4,['d'],['d'],Y,Y,['space'],Y,,,,,,,m,19,
16,8,184,8,8,4,['k'],['k'],Y,N,None,Y,,,,,,,m,19,
16,9,185,2,2,4,['k'],['k'],Y,N,None,Y,,,,,,,m,19,
16,10,186,6,6,4,['k'],['k'],Y,N,None,Y,,,,,,,m,19,
17,0,187,2,2,4,['k'],['k'],Y,Y,['space'],Y,,,,,,,m,19,
17,1,188,7,7,4,['k'],['k'],Y,N,None,Y,,,,,,,m,19,
17,2,189,8,8,4,['d'],['d'],Y,Y,['space'],Y,,,,,,,m,19,
17,3,190,3,3,4,['k'],['k'],Y,Y,['space'],Y,,,,,,,m,19,
17,4,191,3,3,4,['k'],['k'],Y,N,None,Y,,,,,,,m,19,
17,5,192,3,3,4,['d'],['d'],Y,Y,['space'],Y,,,,,,,m,19,
17,6,193,5,5,4,['k'],['k'],Y,Y,['space'],Y,,,,,,,m,19,
17,7,194,3,3,4,['d'],['d'],Y,N,None,Y,,,,,,,m,19,
17,8,195,10,10,4,['d'],['d'],Y,N,None,Y,,,,,,,m,19,
17,9,196,8,8,4,['d'],['k'],N,Y,['space'],Y,,,,,,,m,19,
17,10,197,1,1,4,['k'],['d'],N,Y,['space'],Y,,,,,,,m,19,
18,0,198,2,2,4,['d'],['k'],N,N,None,Y,,,,,,,m,19,
18,1,199,9,9,4,['d'],['k'],N,Y,['space'],Y,34,44,24,,,,m,19,
18,2,200,8,8,5,['k'],['k'],Y,,,,,,,,,,m,19,
18,3,201,0,0,5,['d'],['k'],N,,,,,,,,,,m,19,
18,4,202,4,4,5,['k'],['k'],Y,Y,['space'],Y,,,,,,,m,19,
18,5,203,9,9,5,['d'],['k'],N,N,None,Y,,,,,,,m,19,
18,6,204,5,5,5,['k'],['d'],N,Y,['space'],Y,,,,,,,m,19,
18,7,205,1,1,5,['k'],['d'],N,Y,['space'],Y,,,,,,,m,19,
18,8,206,2,2,5,['k'],['d'],N,Y,['space'],Y,,,,,,,m,19,
18,9,207,10,10,5,['k'],['k'],Y,Y,['space'],Y,,,,,,,m,19,
18,10,208,7,7,5,['k'],['k'],Y,N,None,Y,,,,,,,m,19,
19,0,209,0,0,5,['k'],['k'],Y,N,None,Y,,,,,,,m,19,
19,1,210,0,0,5,['d'],['k'],N,Y,['space'],Y,,,,,,,m,19,
19,2,211,1,1,5,['k'],['k'],Y,N,None,Y,,,,,,,m,19,
19,3,212,8,8,5,['k'],['d'],N,N,None,Y,,,,,,,m,19,
19,4,213,0,0,5,['k'],['k'],Y,Y,['space'],Y,,,,,,,m,19,
19,5,214,8,8,5,['d'],['k'],N,N,None,Y,,,,,,,m,19,
19,6,215,5,5,5,['d'],['k'],N,Y,['space'],Y,,,,,,,m,19,
19,7,216,0,0,5,['d'],['k'],N,N,None,Y,,,,,,,m,19,
19,8,217,1,1,5,['d'],['d'],Y,N,None,Y,,,,,,,m,19,
19,9,218,1,1,5,['k'],['d'],N,N,None,Y,,,,,,,m,19,
19,10,219,3,3,5,['d'],['d'],Y,Y,None,N,,,,,,,m,19,
20,0,220,3,3,5,['k'],['k'],Y,Y,['space'],Y,,,,,,,m,19,
20,1,221,10,10,5,['d'],['d'],Y,Y,['space'],Y,,,,,,,m,19,
20,2,222,2,2,5,['k'],['d'],N,Y,['space'],Y,,,,,,,m,19,
20,3,223,6,6,5,['d'],['k'],N,Y,['space'],Y,,,,,,,m,19,
20,4,224,8,8,5,['d'],['k'],N,Y,['space'],Y,,,,,,,m,19,
20,5,225,8,8,5,['d'],['k'],N,N,['space'],N,,,,,,,m,19,
20,6,226,1,1,5,['k'],['k'],Y,N,None,Y,,,,,,,m,19,
20,7,227,1,1,5,['k'],['k'],Y,N,None,Y,,,,,,,m,19,
20,8,228,7,7,5,['d'],['k'],N,Y,['space'],Y,,,,,,,m,19,
20,9,229,7,7,5,['d'],['k'],N,N,None,Y,,,,,,,m,19,
20,10,230,1,1,5,['d'],['d'],Y,Y,['space'],Y,,,,,,,m,19,
21,0,231,3,3,5,['k'],['k'],Y,Y,['space'],Y,,,,,,,m,19,
21,1,232,2,2,5,['k'],['d'],N,Y,['space'],Y,,,,,,,m,19,
21,2,233,5,5,5,['k'],['d'],N,Y,['space'],Y,,,,,,,m,19,
21,3,234,1,1,5,['k'],['k'],Y,Y,['space'],Y,,,,,,,m,19,
21,4,235,3,3,5,['d'],['k'],N,N,None,Y,,,,,,,m,19,
21,5,236,2,2,5,['d'],['k'],N,Y,['space'],Y,,,,,,,m,19,
21,6,237,3,3,5,['d'],['d'],Y,Y,['space'],Y,,,,,,,m,19,
21,7,238,1,1,5,['k'],['k'],Y,N,None,Y,,,,,,,m,19,
21,8,239,9,9,5,['k'],['k'],Y,Y,['space'],Y,,,,,,,m,19,
21,9,240,9,9,5,['d'],['k'],N,Y,['space'],Y,,,,,,,m,19,
21,10,241,2,2,5,['k'],['k'],Y,N,None,Y,,,,,,,m,19,
22,0,242,6,6,5,['d'],['d'],Y,Y,None,N,,,,,,,m,19,
22,1,243,4,4,5,['k'],['d'],N,N,None,Y,,,,,,,m,19,
22,2,244,7,7,5,['d'],['k'],N,N,None,Y,,,,,,,m,19,
22,3,245,8,8,5,['d'],['k'],N,N,None,Y,,,,,,,m,19,
22,4,246,10,10,5,['k'],['d'],N,N,None,Y,,,,,,,m,19,
22,5,247,4,4,5,['k'],['d'],N,N,None,Y,,,,,,,m,19,
22,6,248,5,5,5,['d'],['d'],Y,N,None,Y,,,,,,,m,19,
22,7,249,8,8,5,['k'],['d'],N,N,None,Y,22,45,25,,,,m,19,
22,8,250,4,4,6,['k'],['d'],N,,,,,,,,,,m,19,
22,9,251,9,9,6,['k'],['d'],N,,,,,,,,,,m,19,
22,10,252,1,1,6,['d'],['k'],N,Y,['space'],Y,,,,,,,m,19,
23,0,253,2,2,6,['k'],['k'],Y,Y,['space'],Y,,,,,,,m,19,
23,1,254,2,2,6,['d'],['d'],Y,N,None,Y,,,,,,,m,19,
23,2,255,3,3,6,['k'],['k'],Y,N,None,Y,,,,,,,m,19,
23,3,256,5,5,6,['d'],['d'],Y,N,['space'],N,,,,,,,m,19,
23,4,257,4,4,6,['d'],['d'],Y,N,None,Y,,,,,,,m,19,
23,5,258,6,6,6,['d'],['d'],Y,N,None,Y,,,,,,,m,19,
23,6,259,6,6,6,['d'],['k'],N,N,None,Y,,,,,,,m,19,
23,7,260,6,6,6,['d'],['d'],Y,N,None,Y,,,,,,,m,19,
23,8,261,5,5,6,['d'],['d'],Y,N,None,Y,,,,,,,m,19,
23,9,262,7,7,6,['d'],['d'],Y,N,None,Y,,,,,,,m,19,
23,10,263,3,3,6,['k'],['k'],Y,N,None,Y,,,,,,,m,19,
24,0,264,3,3,6,['d'],['k'],N,N,None,Y,,,,,,,m,19,
24,1,265,3,3,6,['k'],['d'],N,Y,['space'],Y,,,,,,,m,19,
24,2,266,0,0,6,['k'],['k'],Y,N,None,Y,,,,,,,m,19,
24,3,267,3,3,6,['d'],['d'],Y,Y,['space'],Y,,,,,,,m,19,
24,4,268,0,0,6,['d'],['d'],Y,N,None,Y,,,,,,,m,19,
24,5,269,8,8,6,['k'],['d'],N,N,None,Y,,,,,,,m,19,
24,6,270,6,6,6,['d'],['d'],Y,N,None,Y,,,,,,,m,19,
24,7,271,2,2,6,['k'],['d'],N,N,None,Y,,,,,,,m,19,
24,8,272,8,8,6,['k'],['k'],Y,Y,None,N,,,,,,,m,19,
24,9,273,1,1,6,['k'],['d'],N,N,None,Y,,,,,,,m,19,
24,10,274,4,4,6,['d'],['d'],Y,N,None,Y,,,,,,,m,19,
25,0,275,10,10,6,['k'],['k'],Y,Y,None,N,,,,,,,m,19,
25,1,276,3,3,6,['d'],['k'],N,N,None,Y,,,,,,,m,19,
25,2,277,0,0,6,['k'],['d'],N,Y,['space'],Y,,,,,,,m,19,
25,3,278,9,9,6,['d'],['d'],Y,N,None,Y,,,,,,,m,19,
25,4,279,2,2,6,['k'],['d'],N,Y,['space'],Y,,,,,,,m,19,
25,5,280,0,0,6,['k'],['k'],Y,N,None,Y,,,,,,,m,19,
25,6,281,1,1,6,['d'],['d'],Y,Y,['space'],Y,,,,,,,m,19,
25,7,282,9,9,6,['d'],['d'],Y,N,None,Y,,,,,,,m,19,
25,8,283,8,8,6,['d'],['k'],N,N,None,Y,,,,,,,m,19,
25,9,284,7,7,6,['d'],['k'],N,N,None,Y,,,,,,,m,19,
25,10,285,4,4,6,['d'],['k'],N,N,None,Y,,,,,,,m,19,
26,0,286,5,5,6,['d'],['d'],Y,Y,['space'],Y,,,,,,,m,19,
26,1,287,7,7,6,['d'],['d'],Y,Y,['space'],Y,,,,,,,m,19,
26,2,288,3,3,6,['k'],['d'],N,Y,['space'],Y,,,,,,,m,19,
26,3,289,3,3,6,['k'],['k'],Y,Y,None,N,,,,,,,m,19,
26,4,290,9,9,6,['k'],['d'],N,N,None,Y,,,,,,,m,19,
26,5,291,8,8,6,['k'],['k'],Y,N,None,Y,,,,,,,m,19,
26,6,292,4,4,6,['d'],['d'],Y,N,None,Y,,,,,,,m,19,
26,7,293,0,0,6,['k'],['d'],N,Y,['space'],Y,,,,,,,m,19,
26,8,294,8,8,6,['k'],['d'],N,Y,['space'],Y,,,,,,,m,19,
26,9,295,7,7,6,['d'],['d'],Y,N,None,Y,,,,,,,m,19,
26,10,296,10,10,6,['k'],['d'],N,Y,['space'],Y,,,,,,,m,19,
27,0,297,10,10,6,['k'],['d'],N,Y,['space'],Y,,,,,,,m,19,
27,1,298,3,3,6,['k'],['k'],Y,N,None,Y,,,,,,,m,19,
27,2,299,9,9,6,['d'],['k'],N,N,None,Y,28,44,17,,,,m,19,
27,3,300,0,0,7,['k'],['d'],N,,,,,,,,,,m,19,
27,4,301,6,6,7,['k'],['k'],Y,,,,,,,,,,m,19,
27,5,302,9,9,7,['d'],['d'],Y,Y,['space'],Y,,,,,,,m,19,
27,6,303,8,8,7,['k'],['d'],N,N,None,Y,,,,,,,m,19,
27,7,304,7,7,7,['d'],['k'],N,N,None,Y,,,,,,,m,19,
27,8,305,3,3,7,['k'],['d'],N,N,None,Y,,,,,,,m,19,
27,9,306,4,4,7,['d'],['d'],Y,N,None,Y,,,,,,,m,19,
27,10,307,4,4,7,['k'],['k'],Y,Y,['space'],Y,,,,,,,m,19,
28,0,308,7,7,7,['k'],['d'],N,Y,['space'],Y,,,,,,,m,19,
28,1,309,4,4,7,['k'],['k'],Y,N,['space'],N,,,,,,,m,19,
28,2,310,5,5,7,['d'],['d'],Y,N,None,Y,,,,,,,m,19,
28,3,311,0,0,7,['k'],['d'],N,N,None,Y,,,,,,,m,19,
28,4,312,1,1,7,['k'],['k'],Y,N,None,Y,,,,,,,m,19,
28,5,313,2,2,7,['d'],['k'],N,Y,['space'],Y,,,,,,,m,19,
28,6,314,10,10,7,['k'],['d'],N,Y,['space'],Y,,,,,,,m,19,
28,7,315,8,8,7,['k'],['k'],Y,N,None,Y,,,,,,,m,19,
28,8,316,6,6,7,['d'],['k'],N,Y,['space'],Y,,,,,,,m,19,
28,9,317,3,3,7,['d'],['k'],N,Y,None,N,,,,,,,m,19,
28,10,318,10,10,7,['k'],['d'],N,N,None,Y,,,,,,,m,19,
29,0,319,2,2,7,['d'],['k'],N,Y,None,N,,,,,,,m,19,
29,1,320,8,8,7,['k'],['k'],Y,Y,['space'],Y,,,,,,,m,19,
29,2,321,6,6,7,['k'],['d'],N,Y,['space'],Y,,,,,,,m,19,
29,3,322,4,4,7,['d'],['k'],N,N,None,Y,,,,,,,m,19,
29,4,323,10,10,7,['k'],['k'],Y,Y,['space'],Y,,,,,,,m,19,
29,5,324,8,8,7,['d'],['d'],Y,Y,['space'],Y,,,,,,,m,19,
29,6,325,6,6,7,['d'],['d'],Y,Y,['space'],Y,,,,,,,m,19,
29,7,326,3,3,7,['k'],['k'],Y,N,None,Y,,,,,,,m,19,
29,8,327,0,0,7,['k'],['d'],N,N,None,Y,,,,,,,m,19,
29,9,328,9,9,7,['k'],['d'],N,Y,['space'],Y,,,,,,,m,19,
29,10,329,0,0,7,['k'],['d'],N,Y,['space'],Y,,,,,,,m,19,
30,0,330,5,5,7,['k'],['d'],N,N,None,Y,,,,,,,m,19,
30,1,331,7,7,7,['d'],['d'],Y,N,None,Y,,,,,,,m,19,
30,2,332,4,4,7,['k'],['k'],Y,N,None,Y,,,,,,,m,19,
30,3,333,0,0,7,['k'],['k'],Y,N,None,Y,,,,,,,m,19,
30,4,334,3,3,7,['k'],['d'],N,Y,['space'],Y,,,,,,,m,19,
30,5,335,9,9,7,['d'],['d'],Y,N,None,Y,,,,,,,m,19,
30,6,336,6,6,7,['d'],['d'],Y,Y,None,N,,,,,,,m,19,
30,7,337,4,4,7,['d'],['d'],Y,Y,['space'],Y,,,,,,,m,19,
30,8,338,5,5,7,['k'],['d'],N,Y,None,N,,,,,,,m,19,
30,9,339,0,0,7,['k'],['d'],N,Y,['space'],Y,,,,,,,m,19,
30,10,340,8,8,7,['d'],['k'],N,Y,['space'],Y,,,,,,,m,19,
31,0,341,8,8,7,['k'],['k'],Y,Y,['space'],Y,,,,,,,m,19,
31,1,342,2,2,7,['k'],['d'],N,Y,['space'],Y,,,,,,,m,19,
31,2,343,8,8,7,['d'],['d'],Y,N,None,Y,,,,,,,m,19,
31,3,344,10,10,7,['k'],['k'],Y,Y,None,N,,,,,,,m,19,
31,4,345,7,7,7,['k'],['d'],N,N,None,Y,,,,,,,m,19,
31,5,346,0,0,7,['d'],['k'],N,Y,None,N,,,,,,,m,19,
31,6,347,7,7,7,['d'],['d'],Y,N,['space'],N,,,,,,,m,19,
31,7,348,2,2,7,['k'],['k'],Y,N,None,Y,,,,,,,m,19,
31,8,349,9,9,7,['d'],['d'],Y,N,None,Y,25,40,25,,,,m,19,
31,9,350,2,2,8,['k'],['d'],N,,,,,,,,,,m,19,
31,10,351,9,9,8,['k'],['d'],N,,,,,,,,,,m,19,
32,0,352,10,10,8,['d'],['d'],Y,N,None,Y,,,,,,,m,19,
32,1,353,5,5,8,['k'],['d'],N,N,None,Y,,,,,,,m,19,
32,2,354,3,3,8,['d'],['k'],N,N,None,Y,,,,,,,m,19,
32,3,355,7,7,8,['k'],['d'],N,N,None,Y,,,,,,,m,19,
32,4,356,2,2,8,['d'],['d'],Y,Y,['space'],Y,,,,,,,m,19,
32,5,357,2,2,8,['d'],['d'],Y,N,None,Y,,,,,,,m,19,
32,6,358,5,5,8,['d'],['d'],Y,N,None,Y,,,,,,,m,19,
32,7,359,8,8,8,['d'],['k'],N,Y,['space'],Y,,,,,,,m,19,
32,8,360,2,2,8,['k'],['d'],N,N,['space'],N,,,,,,,m,19,
32,9,361,7,7,8,['d'],['k'],N,Y,['space'],Y,,,,,,,m,19,
32,10,362,4,4,8,['k'],['d'],N,N,None,Y,,,,,,,m,19,
33,0,363,4,4,8,['k'],['k'],Y,Y,None,N,,,,,,,m,19,
33,1,364,5,5,8,['k'],['d'],N,Y,['space'],Y,,,,,,,m,19,
33,2,365,0,0,8,['k'],['d'],N,Y,['space'],Y,,,,,,,m,19,
33,3,366,3,3,8,['k'],['k'],Y,Y,['space'],Y,,,,,,,m,19,
33,4,367,6,6,8,['d'],['k'],N,Y,['space'],Y,,,,,,,m,19,
33,5,368,5,5,8,['d'],['k'],N,N,None,Y,,,,,,,m,19,
33,6,369,9,9,8,['d'],['k'],N,N,None,Y,,,,,,,m,19,
33,7,370,5,5,8,['k'],['d'],N,Y,['space'],Y,,,,,,,m,19,
33,8,371,4,4,8,['k'],['d'],N,Y,['space'],Y,,,,,,,m,19,
33,9,372,4,4,8,['k'],['k'],Y,N,None,Y,,,,,,,m,19,
33,10,373,9,9,8,['k'],['k'],Y,Y,['space'],Y,,,,,,,m,19,
34,0,374,5,5,8,['k'],['d'],N,Y,['space'],Y,,,,,,,m,19,
34,1,375,0,0,8,['d'],['k'],N,Y,['space'],Y,,,,,,,m,19,
34,2,376,10,10,8,['d'],['d'],Y,Y,['space'],Y,,,,,,,m,19,
34,3,377,5,5,8,['k'],['d'],N,Y,['space'],Y,,,,,,,m,19,
34,4,378,2,2,8,['d'],['k'],N,N,None,Y,,,,,,,m,19,
34,5,379,3,3,8,['k'],['d'],N,N,None,Y,,,,,,,m,19,
34,6,380,1,1,8,['k'],['k'],Y,Y,['space'],Y,,,,,,,m,19,
34,7,381,4,4,8,['d'],['k'],N,N,None,Y,,,,,,,m,19,
34,8,382,9,9,8,['k'],['d'],N,N,None,Y,,,,,,,m,19,
34,9,383,0,0,8,['d'],['d'],Y,N,None,Y,,,,,,,m,19,
34,10,384,9,9,8,['d'],['k'],N,N,None,Y,,,,,,,m,19,
35,0,385,5,5,8,['k'],['k'],Y,N,None,Y,,,,,,,m,19,
35,1,386,0,0,8,['k'],['k'],Y,N,['space'],N,,,,,,,m,19,
35,2,387,9,9,8,['d'],['d'],Y,Y,['space'],Y,,,,,,,m,19,
35,3,388,2,2,8,['k'],['d'],N,Y,['space'],Y,,,,,,,m,19,
35,4,389,1,1,8,['d'],['k'],N,N,None,Y,,,,,,,m,19,
35,5,390,10,10,8,['k'],['k'],Y,Y,None,N,,,,,,,m,19,
35,6,391,6,6,8,['k'],['k'],Y,N,None,Y,,,,,,,m,19,
35,7,392,1,1,8,['k'],['k'],Y,Y,['space'],Y,,,,,,,m,19,
35,8,393,3,3,8,['d'],['k'],N,N,None,Y,,,,,,,m,19,
35,9,394,5,5,8,['d'],['k'],N,N,None,Y,,,,,,,m,19,
35,10,395,2,2,8,['k'],['k'],Y,Y,['space'],Y,,,,,,,m,19,
36,0,396,10,10,8,['d'],['d'],Y,Y,['space'],Y,,,,,,,m,19,
36,1,397,2,2,8,['k'],['d'],N,Y,None,N,,,,,,,m,19,
36,2,398,9,9,8,['k'],['k'],Y,N,None,Y,,,,,,,m,19,
36,3,399,4,4,8,['k'],['d'],N,N,None,Y,20,43,23,,,,m,19,
36,4,400,6,6,9,['k'],['k'],Y,,,,,,,,,,m,19,
36,5,401,7,7,9,['k'],['d'],N,,,,,,,,,,m,19,
36,6,402,6,6,9,['k'],['d'],N,N,None,Y,,,,,,,m,19,
36,7,403,7,7,9,['k'],['d'],N,Y,['k'],N,,,,,,,m,19,
36,8,404,3,3,9,['d'],['k'],N,N,None,Y,,,,,,,m,19,
36,9,405,8,8,9,['d'],['k'],N,Y,['space'],Y,,,,,,,m,19,
36,10,406,6,6,9,['d'],['k'],N,Y,['space'],Y,,,,,,,m,19,
37,0,407,7,7,9,['d'],['k'],N,N,None,Y,,,,,,,m,19,
37,1,408,9,9,9,['k'],['d'],N,N,['space'],N,,,,,,,m,19,
37,2,409,6,6,9,['d'],['d'],Y,N,None,Y,,,,,,,m,19,
37,3,410,1,1,9,['k'],['d'],N,Y,None,N,,,,,,,m,19,
37,4,411,0,0,9,['k'],['d'],N,Y,None,N,,,,,,,m,19,
37,5,412,8,8,9,['d'],['k'],N,Y,None,N,,,,,,,m,19,
37,6,413,0,0,9,['k'],['k'],Y,Y,['space'],Y,,,,,,,m,19,
37,7,414,2,2,9,['k'],['k'],Y,Y,['space'],Y,,,,,,,m,19,
37,8,415,0,0,9,['d'],['d'],Y,Y,['space'],Y,,,,,,,m,19,
37,9,416,0,0,9,['d'],['d'],Y,N,None,Y,,,,,,,m,19,
37,10,417,9,9,9,['k'],['d'],N,N,None,Y,,,,,,,m,19,
38,0,418,3,3,9,['k'],['k'],Y,Y,['space'],Y,,,,,,,m,19,
38,1,419,2,2,9,['k'],['d'],N,N,None,Y,,,,,,,m,19,
38,2,420,6,6,9,['k'],['d'],N,Y,['space'],Y,,,,,,,m,19,
38,3,421,6,6,9,['k'],['k'],Y,N,None,Y,,,,,,,m,19,
38,4,422,7,7,9,['k'],['k'],Y,Y,['space'],Y,,,,,,,m,19,
38,5,423,8,8,9,['d'],['k'],N,Y,['space'],Y,,,,,,,m,19,
38,6,424,3,3,9,['k'],['k'],Y,N,None,Y,,,,,,,m,19,
38,7,425,8,8,9,['d'],['k'],N,N,None,Y,,,,,,,m,19,
38,8,426,4,4,9,['k'],['d'],N,Y,['space'],Y,,,,,,,m,19,
38,9,427,8,8,9,['k'],['d'],N,N,['k'],N,,,,,,,m,19,
38,10,428,9,9,9,['k'],['d'],N,N,['space'],N,,,,,,,m,19,
39,0,429,2,2,9,['k'],['d'],N,Y,None,N,,,,,,,m,19,
39,1,430,0,0,9,['k'],['k'],Y,N,None,Y,,,,,,,m,19,
39,2,431,4,4,9,['d'],['d'],Y,Y,['space'],Y,,,,,,,m,19,
39,3,432,4,4,9,['k'],['d'],N,Y,['space'],Y,,,,,,,m,19,
39,4,433,5,5,9,['d'],['d'],Y,N,None,Y,,,,,,,m,19,
39,5,434,9,9,9,['d'],['d'],Y,N,None,Y,,,,,,,m,19,
39,6,435,2,2,9,['d'],['k'],N,N,None,Y,,,,,,,m,19,
39,7,436,7,7,9,['k'],['k'],Y,Y,['space'],Y,,,,,,,m,19,
39,8,437,8,8,9,['d'],['k'],N,N,None,Y,,,,,,,m,19,
39,9,438,1,1,9,['k'],['k'],Y,Y,['space'],Y,,,,,,,m,19,
39,10,439,7,7,9,['d'],['d'],Y,Y,['space'],Y,,,,,,,m,19,
40,0,440,2,2,9,['k'],['d'],N,Y,['space'],Y,,,,,,,m,19,
40,1,441,7,7,9,['d'],['k'],N,Y,['space'],Y,,,,,,,m,19,
40,2,442,10,10,9,['d'],['d'],Y,N,None,Y,,,,,,,m,19,
40,3,443,0,0,9,['d'],['d'],Y,Y,['space'],Y,,,,,,,m,19,
40,4,444,9,9,9,['d'],['k'],N,N,None,Y,,,,,,,m,19,
40,5,445,4,4,9,['k'],['k'],Y,Y,None,N,,,,,,,m,19,
40,6,446,4,4,9,['k'],['d'],N,Y,None,N,,,,,,,m,19,
40,7,447,9,9,9,['d'],['d'],Y,N,None,Y,,,,,,,m,19,
40,8,448,10,10,9,['k'],['k'],Y,N,None,Y,,,,,,,m,19,
40,9,449,1,1,9,['k'],['k'],Y,N,None,Y,23,38,25,,,,m,19,
40,10,450,10,10,10,['d'],['k'],N,,,,,,,,,,m,19,
41,0,451,0,0,10,['d'],['d'],Y,,,,,,,,,,m,19,
41,1,452,10,10,10,['k'],['d'],N,N,None,Y,,,,,,,m,19,
41,2,453,7,7,10,['k'],['k'],Y,Y,['space'],Y,,,,,,,m,19,
41,3,454,8,8,10,['d'],['k'],N,Y,['space'],Y,,,,,,,m,19,
41,4,455,3,3,10,['d'],['d'],Y,Y,['space'],Y,,,,,,,m,19,
41,5,456,3,3,10,['k'],['d'],N,N,None,Y,,,,,,,m,19,
41,6,457,10,10,10,['k'],['k'],Y,Y,['space'],Y,,,,,,,m,19,
41,7,458,1,1,10,['k'],['k'],Y,N,['space'],N,,,,,,,m,19,
41,8,459,4,4,10,['k'],['k'],Y,Y,['space'],Y,,,,,,,m,19,
41,9,460,0,0,10,['d'],['d'],Y,N,['space'],N,,,,,,,m,19,
41,10,461,5,5,10,['d'],['k'],N,Y,None,N,,,,,,,m,19,
42,0,462,10,10,10,['k'],['k'],Y,N,None,Y,,,,,,,m,19,
42,1,463,0,0,10,['d'],['d'],Y,N,None,Y,,,,,,,m,19,
42,2,464,1,1,10,['d'],['d'],Y,N,None,Y,,,,,,,m,19,
42,3,465,6,6,10,['k'],['d'],N,Y,None,N,,,,,,,m,19,
42,4,466,3,3,10,['k'],['k'],Y,N,None,Y,,,,,,,m,19,
42,5,467,0,0,10,['d'],['k'],N,N,None,Y,,,,,,,m,19,
42,6,468,9,9,10,['d'],['k'],N,Y,['space'],Y,,,,,,,m,19,
42,7,469,8,8,10,['k'],['d'],N,Y,['space'],Y,,,,,,,m,19,
42,8,470,8,8,10,['k'],['d'],N,Y,['space'],Y,,,,,,,m,19,
42,9,471,8,8,10,['d'],['k'],N,Y,['space'],Y,,,,,,,m,19,
42,10,472,1,1,10,['d'],['d'],Y,N,None,Y,,,,,,,m,19,
43,0,473,6,6,10,['d'],['d'],Y,N,None,Y,,,,,,,m,19,
43,1,474,1,1,10,['d'],['k'],N,N,None,Y,,,,,,,m,19,
43,2,475,4,4,10,['d'],['d'],Y,N,None,Y,,,,,,,m,19,
43,3,476,3,3,10,['d'],['d'],Y,Y,['space'],Y,,,,,,,m,19,
43,4,477,9,9,10,['k'],['d'],N,N,None,Y,,,,,,,m,19,
43,5,478,6,6,10,['k'],['d'],N,N,None,Y,,,,,,,m,19,
43,6,479,5,5,10,['d'],['d'],Y,Y,['space'],Y,,,,,,,m,19,
43,7,480,8,8,10,['k'],['k'],Y,Y,['space'],Y,,,,,,,m,19,
43,8,481,10,10,10,['k'],['k'],Y,N,None,Y,,,,,,,m,19,
43,9,482,6,6,10,['k'],['d'],N,Y,['space'],Y,,,,,,,m,19,
43,10,483,4,4,10,['k'],['k'],Y,N,None,Y,,,,,,,m,19,
44,0,484,4,4,10,['k'],['d'],N,Y,None,N,,,,,,,m,19,
44,1,485,1,1,10,['d'],['k'],N,N,None,Y,,,,,,,m,19,
44,2,486,5,5,10,['k'],['k'],Y,N,None,Y,,,,,,,m,19,
44,3,487,6,6,10,['k'],['d'],N,N,None,Y,,,,,,,m,19,
44,4,488,10,10,10,['d'],['k'],N,N,None,Y,,,,,,,m,19,
44,5,489,1,1,10,['k'],['d'],N,Y,['k'],N,,,,,,,m,19,
44,6,490,6,6,10,['k'],['d'],N,N,['space'],N,,,,,,,m,19,
44,7,491,1,1,10,['d'],['d'],Y,Y,['space'],Y,,,,,,,m,19,
44,8,492,9,9,10,['k'],['d'],N,N,None,Y,,,,,,,m,19,
44,9,493,5,5,10,['k'],['k'],Y,Y,['space'],Y,,,,,,,m,19,
44,10,494,8,8,10,['k'],['k'],Y,N,None,Y,,,,,,,m,19,
45,0,495,1,1,10,['k'],['k'],Y,N,None,Y,,,,,,,m,19,
45,1,496,9,9,10,['d'],['d'],Y,N,None,Y,,,,,,,m,19,
45,2,497,9,9,10,['k'],['d'],N,N,['space'],N,,,,,,,m,19,
45,3,498,7,7,10,['k'],['d'],N,N,None,Y,,,,,,,m,19,
45,4,499,3,3,10,['d'],['d'],Y,N,None,Y,26,40,19,,,,m,19,
45,5,500,5,5,11,['k'],['d'],Y,,,,,,,Y,Y,Y,m,19,
45,6,501,8,8,11,['k'],['k'],N,,,,,,,,Y,Y,m,19,
45,7,502,1,1,11,['d'],['d'],N,N,None,Y,,,,,Y,Y,m,19,
45,8,503,0,0,11,['d'],['d'],N,Y,['space'],Y,,,,,Y,Y,m,19,
45,9,504,7,7,11,['d'],['d'],N,N,None,Y,,,,,Y,Y,m,19,
45,10,505,3,3,11,['d'],['k'],Y,Y,['space'],Y,,,,,Y,Y,m,19,
46,0,506,7,7,11,['k'],['d'],Y,N,None,Y,,,,,Y,Y,m,19,
46,1,507,5,5,11,['d'],['d'],N,N,None,Y,,,,,Y,Y,m,19,
46,2,508,1,1,11,['d'],['d'],N,N,None,Y,,,,,Y,Y,m,19,
46,3,509,2,2,11,['k'],['d'],Y,N,None,Y,,,,,Y,Y,m,19,
46,4,510,10,10,11,['k'],['k'],N,Y,['space'],Y,,,,,Y,Y,m,19,
46,5,511,9,9,11,['d'],['d'],N,N,None,Y,,,,,Y,Y,m,19,
46,6,512,1,1,11,['d'],['k'],Y,N,None,Y,,,,,Y,Y,m,19,
46,7,513,8,8,11,['k'],['k'],N,Y,['space'],Y,,,,,Y,Y,m,19,
46,8,514,7,7,11,['d'],['k'],Y,N,None,Y,,,,,Y,Y,m,19,
46,9,515,10,10,11,['d'],['d'],N,N,None,Y,,,,,Y,Y,m,19,
46,10,516,3,3,11,['k'],['d'],Y,Y,['space'],Y,,,,,Y,Y,m,19,
47,0,517,5,5,11,['k'],['d'],Y,N,None,Y,,,,,Y,Y,m,19,
47,1,518,0,0,11,['k'],['d'],Y,Y,['space'],Y,,,,,Y,Y,m,19,
47,2,519,1,1,11,['d'],['d'],N,N,None,Y,,,,,Y,Y,m,19,
47,3,520,7,7,11,['k'],['d'],Y,Y,['space'],Y,,,,,Y,Y,m,19,
47,4,521,10,10,11,['k'],['k'],N,Y,['space'],Y,,,,,Y,Y,m,19,
47,5,522,9,9,11,None,,Timed out,N,['space'],N,,,,,Y,Y,m,19,
47,6,523,4,4,11,['d'],['d'],N,N,None,Y,,,,,Y,Y,m,19,
47,7,524,7,7,11,['d'],['d'],N,N,['space'],N,,,,,Y,Y,m,19,
47,8,525,2,2,11,['d'],['k'],Y,Y,['space'],Y,,,,,Y,Y,m,19,
47,9,526,3,3,11,['d'],['k'],Y,N,None,Y,,,,,Y,Y,m,19,
47,10,527,6,6,11,['d'],['d'],N,N,None,Y,,,,,Y,Y,m,19,
48,0,528,2,2,11,['k'],['d'],Y,N,None,Y,,,,,Y,Y,m,19,
48,1,529,0,0,11,['d'],['d'],N,Y,['space'],Y,,,,,Y,Y,m,19,
48,2,530,9,9,11,['d'],['k'],Y,Y,['space'],Y,,,,,Y,Y,m,19,
48,3,531,10,10,11,None,,Timed out,N,None,Y,,,,,Y,Y,m,19,
48,4,532,1,1,11,['k'],['k'],N,Y,['space'],Y,,,,,Y,Y,m,19,
48,5,533,10,10,11,['d'],['k'],Y,N,None,Y,,,,,Y,Y,m,19,
48,6,534,5,5,11,['k'],['d'],Y,Y,['space'],Y,,,,,Y,Y,m,19,
48,7,535,10,10,11,['d'],['d'],N,Y,['space'],Y,,,,,Y,Y,m,19,
48,8,536,5,5,11,['d'],['k'],Y,N,None,Y,,,,,Y,Y,m,19,
48,9,537,0,0,11,['d'],['k'],Y,Y,None,N,,,,,Y,Y,m,19,
48,10,538,4,4,11,['d'],['k'],Y,N,None,Y,,,,,Y,Y,m,19,
49,0,539,6,6,11,['d'],['k'],Y,N,None,Y,,,,,Y,Y,m,19,
49,1,540,8,8,11,['d'],['d'],N,N,None,Y,,,,,Y,Y,m,19,
49,2,541,10,10,11,['d'],['k'],Y,Y,['space'],Y,,,,,Y,Y,m,19,
49,3,542,3,3,11,['d'],['d'],N,N,None,Y,,,,,Y,Y,m,19,
49,4,543,4,4,11,['k'],['k'],N,N,None,Y,,,,,Y,Y,m,19,
49,5,544,7,7,11,['d'],['k'],Y,N,None,Y,,,,,Y,Y,m,19,
49,6,545,6,6,11,['d'],['k'],Y,Y,None,N,,,,,Y,Y,m,19,
49,7,546,2,2,11,['d'],['k'],Y,N,None,Y,,,,,Y,Y,m,19,
49,8,547,3,3,11,['d'],['d'],N,Y,None,N,,,,,Y,Y,m,19,
49,9,548,6,6,11,['d'],['k'],Y,Y,['space'],Y,,,,,Y,Y,m,19,
49,10,549,10,10,11,['d'],['k'],Y,N,None,Y,26,43,19,,Y,Y,m,19,
50,0,550,5,5,12,['d'],['k'],Y,,,,,,,,Y,Y,m,19,
50,1,551,7,7,12,['d'],['d'],N,,,,,,,,Y,Y,m,19,
50,2,552,10,10,12,['d'],['k'],Y,Y,['space'],Y,,,,,Y,Y,m,19,
50,3,553,6,6,12,['k'],['k'],N,Y,['space'],Y,,,,,Y,Y,m,19,
50,4,554,7,7,12,['k'],['k'],N,Y,['space'],Y,,,,,Y,Y,m,19,
50,5,555,8,8,12,['d'],['d'],N,Y,['space'],Y,,,,,Y,Y,m,19,
50,6,556,2,2,12,['d'],['d'],N,Y,['space'],Y,,,,,Y,Y,m,19,
50,7,557,1,1,12,['d'],['k'],Y,Y,['space'],Y,,,,,Y,Y,m,19,
50,8,558,3,3,12,['d'],['k'],Y,N,None,Y,,,,,Y,Y,m,19,
50,9,559,9,9,12,['k'],['d'],Y,Y,['space'],Y,,,,,Y,Y,m,19,
50,10,560,7,7,12,['k'],['d'],Y,N,None,Y,,,,,Y,Y,m,19,
51,0,561,9,9,12,['k'],['k'],N,Y,None,N,,,,,Y,Y,m,19,
51,1,562,9,9,12,['k'],['d'],Y,Y,['space'],Y,,,,,Y,Y,m,19,
51,2,563,3,3,12,['d'],['k'],Y,Y,['space'],Y,,,,,Y,Y,m,19,
51,3,564,3,3,12,['k'],['k'],N,Y,['space'],Y,,,,,Y,Y,m,19,
51,4,565,6,6,12,['d'],['d'],N,N,None,Y,,,,,Y,Y,m,19,
51,5,566,5,5,12,['k'],['d'],Y,N,None,Y,,,,,Y,Y,m,19,
51,6,567,7,7,12,['d'],['k'],Y,Y,['space'],Y,,,,,Y,Y,m,19,
51,7,568,8,8,12,['d'],['k'],Y,Y,['space'],Y,,,,,Y,Y,m,19,
51,8,569,4,4,12,['d'],['k'],Y,Y,['space'],Y,,,,,Y,Y,m,19,
51,9,570,10,10,12,['k'],['k'],N,N,None,Y,,,,,Y,Y,m,19,
51,10,571,5,5,12,['d'],['k'],Y,Y,['space'],Y,,,,,Y,Y,m,19,
52,0,572,9,9,12,['d'],['d'],N,Y,['space'],Y,,,,,Y,Y,m,19,
52,1,573,0,0,12,['k'],['d'],Y,Y,None,N,,,,,Y,Y,m,19,
52,2,574,2,2,12,['k'],['d'],Y,Y,['space'],Y,,,,,Y,Y,m,19,
52,3,575,10,10,12,['k'],['k'],N,Y,['space'],Y,,,,,Y,Y,m,19,
52,4,576,3,3,12,['d'],['d'],N,N,None,Y,,,,,Y,Y,m,19,
52,5,577,1,1,12,['d'],['k'],Y,N,['space'],N,,,,,Y,Y,m,19,
52,6,578,7,7,12,['d'],['k'],Y,Y,['space'],Y,,,,,Y,Y,m,19,
52,7,579,5,5,12,['d'],['d'],N,Y,['space'],Y,,,,,Y,Y,m,19,
52,8,580,4,4,12,['k'],['k'],N,N,None,Y,,,,,Y,Y,m,19,
52,9,581,5,5,12,['d'],['k'],Y,N,None,Y,,,,,Y,Y,m,19,
52,10,582,0,0,12,['d'],['k'],Y,N,None,Y,,,,,Y,Y,m,19,
53,0,583,9,9,12,['k'],['k'],N,Y,['space'],Y,,,,,Y,Y,m,19,
53,1,584,4,4,12,['d'],['d'],N,N,None,Y,,,,,Y,Y,m,19,
53,2,585,7,7,12,['d'],['d'],N,Y,None,N,,,,,Y,Y,m,19,
53,3,586,6,6,12,['d'],['k'],Y,Y,['space'],Y,,,,,Y,Y,m,19,
53,4,587,6,6,12,['d'],['d'],N,Y,['space'],Y,,,,,Y,Y,m,19,
53,5,588,0,0,12,['d'],['k'],Y,N,None,Y,,,,,Y,Y,m,19,
53,6,589,1,1,12,['d'],['d'],N,N,None,Y,,,,,Y,Y,m,19,
53,7,590,8,8,12,['d'],['k'],Y,N,None,Y,,,,,Y,Y,m,19,
53,8,591,5,5,12,['d'],['d'],N,N,None,Y,,,,,Y,Y,m,19,
53,9,592,6,6,12,['k'],['k'],N,N,None,Y,,,,,Y,Y,m,19,
53,10,593,7,7,12,['k'],['k'],N,N,None,Y,,,,,Y,Y,m,19,
54,0,594,6,6,12,['d'],['k'],Y,N,None,Y,,,,,Y,Y,m,19,
54,1,595,4,4,12,['d'],['k'],Y,N,None,Y,,,,,Y,Y,m,19,
54,2,596,2,2,12,['d'],['d'],N,N,None,Y,,,,,Y,Y,m,19,
54,3,597,0,0,12,['k'],['k'],N,N,None,Y,,,,,Y,Y,m,19,
54,4,598,1,1,12,['d'],['k'],Y,N,None,Y,,,,,Y,Y,m,19,
54,5,599,4,4,12,['d'],['d'],N,N,None,Y,25,44,25,,Y,Y,m,19,
