.thisRepN,.thisTrialN,.thisN,.thisIndex,.thisTrial,Block Number,Key pressed,Category,Correct?,Int Match?,Int Response,Int Correct?,Line Accuracy,Interference Accuracy,Matching Interferences,New instruction shown?,Buttons switched?,Fast?,gender,age,
0,0,0,0,0,1,['d'],['d'],Y,,,,,,,,,,m,19,
0,1,1,2,2,1,['k'],['d'],N,,,,,,,,,,m,19,
0,2,2,3,3,1,['k'],['k'],Y,N,None,Y,,,,,,,m,19,
0,3,3,0,0,1,None,,Timed out,N,None,Y,,,,,,,m,19,
0,4,4,6,6,1,['k'],['k'],Y,N,None,Y,,,,,,,m,19,
0,5,5,4,4,1,['d'],['k'],N,Y,None,N,,,,,,,m,19,
0,6,6,7,7,1,['k'],['k'],Y,Y,None,N,,,,,,,m,19,
0,7,7,1,1,1,['k'],['k'],Y,Y,None,N,,,,,,,m,19,
0,8,8,0,0,1,['k'],['k'],Y,Y,None,N,,,,,,,m,19,
0,9,9,8,8,1,['k'],['k'],Y,N,None,Y,,,,,,,m,19,
0,10,10,6,6,1,['k'],['d'],N,Y,None,N,,,,,,,m,19,
1,0,11,0,0,1,['k'],['k'],Y,Y,None,N,,,,,,,m,19,
1,1,12,8,8,1,['k'],['d'],N,Y,None,N,,,,,,,m,19,
1,2,13,4,4,1,['d'],['k'],N,Y,None,N,,,,,,,m,19,
1,3,14,1,1,1,['k'],['d'],N,N,None,Y,,,,,,,m,19,
1,4,15,8,8,1,['d'],['d'],Y,Y,None,N,,,,,,,m,19,
1,5,16,7,7,1,['d'],['d'],Y,Y,None,N,,,,,,,m,19,
1,6,17,9,9,1,['d'],['k'],N,Y,None,N,,,,,,,m,19,
1,7,18,1,1,1,['d'],['d'],Y,N,None,Y,,,,,,,m,19,
1,8,19,5,5,1,['k'],['d'],N,N,None,Y,,,,,,,m,19,
1,9,20,7,7,1,['k'],['k'],Y,N,None,Y,,,,,,,m,19,
1,10,21,2,2,1,['k'],['k'],Y,N,None,Y,,,,,,,m,19,
2,0,22,5,5,1,['d'],['k'],N,N,None,Y,,,,,,,m,19,
2,1,23,1,1,1,['k'],['k'],Y,Y,None,N,,,,,,,m,19,
2,2,24,9,9,1,['d'],['d'],Y,Y,None,N,,,,,,,m,19,
2,3,25,5,5,1,['d'],['d'],Y,Y,None,N,,,,,,,m,19,
2,4,26,8,8,1,['k'],['k'],Y,N,None,Y,,,,,,,m,19,
2,5,27,7,7,1,['k'],['k'],Y,N,None,Y,,,,,,,m,19,
2,6,28,2,2,1,['k'],['d'],N,N,None,Y,,,,,,,m,19,
2,7,29,10,10,1,['d'],['d'],Y,N,None,Y,,,,,,,m,19,
2,8,30,5,5,1,['d'],['k'],N,Y,None,N,,,,,,,m,19,
2,9,31,5,5,1,['d'],['d'],Y,Y,None,N,,,,,,,m,19,
2,10,32,7,7,1,['k'],['k'],Y,Y,None,N,,,,,,,m,19,
3,0,33,8,8,1,['d'],['d'],Y,N,None,Y,,,,,,,m,19,
3,1,34,5,5,1,['d'],['k'],N,N,None,Y,,,,,,,m,19,
3,2,35,9,9,1,['d'],['k'],N,Y,None,N,,,,,,,m,19,
3,3,36,5,5,1,['k'],['k'],Y,N,None,Y,,,,,,,m,19,
3,4,37,4,4,1,['k'],['d'],N,N,None,Y,,,,,,,m,19,
3,5,38,8,8,1,['d'],['k'],N,Y,None,N,,,,,,,m,19,
3,6,39,10,10,1,['d'],['d'],Y,N,None,Y,,,,,,,m,19,
3,7,40,9,9,1,['d'],['d'],Y,Y,None,N,,,,,,,m,19,
3,8,41,7,7,1,['d'],['k'],N,N,None,Y,,,,,,,m,19,
3,9,42,0,0,1,['d'],['k'],N,Y,None,N,,,,,,,m,19,
3,10,43,5,5,1,['k'],['k'],Y,Y,None,N,,,,,,,m,19,
4,0,44,4,4,1,['d'],['d'],Y,N,None,Y,,,,,,,m,19,
4,1,45,1,1,1,['k'],['d'],N,Y,None,N,,,,,,,m,19,
4,2,46,1,1,1,['d'],['d'],Y,Y,None,N,,,,,,,m,19,
4,3,47,3,3,1,['k'],['k'],Y,N,None,Y,,,,,,,m,19,
4,4,48,3,3,1,['d'],['k'],N,Y,None,N,,,,,,,m,19,
4,5,49,7,7,1,['d'],['k'],N,N,None,Y,29,23,25,,,,m,19,
4,6,50,3,3,2,['k'],['k'],Y,,,,,,,,,,m,19,
4,7,51,3,3,2,['k'],['k'],Y,,,,,,,,,,m,19,
4,8,52,4,4,2,['d'],['k'],N,Y,None,N,,,,,,,m,19,
4,9,53,10,10,2,['d'],['d'],Y,Y,None,N,,,,,,,m,19,
4,10,54,6,6,2,['k'],['k'],Y,Y,None,N,,,,,,,m,19,
5,0,55,9,9,2,['d'],['k'],N,Y,None,N,,,,,,,m,19,
5,1,56,0,0,2,['k'],['k'],Y,Y,None,N,,,,,,,m,19,
5,2,57,6,6,2,['k'],['d'],N,Y,None,N,,,,,,,m,19,
5,3,58,7,7,2,['k'],['k'],Y,N,None,Y,,,,,,,m,19,
5,4,59,10,10,2,['k'],['d'],N,Y,None,N,,,,,,,m,19,
5,5,60,1,1,2,['d'],['k'],N,N,None,Y,,,,,,,m,19,
5,6,61,7,7,2,['d'],['d'],Y,N,None,Y,,,,,,,m,19,
5,7,62,3,3,2,['k'],['k'],Y,Y,None,N,,,,,,,m,19,
5,8,63,4,4,2,['d'],['k'],N,Y,None,N,,,,,,,m,19,
5,9,64,4,4,2,['k'],['k'],Y,N,None,Y,,,,,,,m,19,
5,10,65,1,1,2,['k'],['d'],N,Y,None,N,,,,,,,m,19,
6,0,66,2,2,2,['k'],['k'],Y,Y,None,N,,,,,,,m,19,
6,1,67,9,9,2,['k'],['d'],N,N,None,Y,,,,,,,m,19,
6,2,68,7,7,2,['k'],['d'],N,Y,None,N,,,,,,,m,19,
6,3,69,10,10,2,['d'],['d'],Y,Y,None,N,,,,,,,m,19,
6,4,70,3,3,2,['k'],['d'],N,Y,None,N,,,,,,,m,19,
6,5,71,3,3,2,['d'],['d'],Y,Y,None,N,,,,,,,m,19,
6,6,72,3,3,2,['k'],['d'],N,Y,None,N,,,,,,,m,19,
6,7,73,4,4,2,['d'],['k'],N,Y,None,N,,,,,,,m,19,
6,8,74,3,3,2,['d'],['k'],N,Y,None,N,,,,,,,m,19,
6,9,75,9,9,2,['k'],['k'],Y,Y,None,N,,,,,,,m,19,
6,10,76,9,9,2,['k'],['k'],Y,Y,None,N,,,,,,,m,19,
7,0,77,2,2,2,['k'],['k'],Y,Y,None,N,,,,,,,m,19,
7,1,78,4,4,2,['d'],['d'],Y,Y,None,N,,,,,,,m,19,
7,2,79,3,3,2,['k'],['d'],N,N,None,Y,,,,,,,m,19,
7,3,80,1,1,2,['k'],['d'],N,Y,None,N,,,,,,,m,19,
7,4,81,2,2,2,['d'],['k'],N,N,None,Y,,,,,,,m,19,
7,5,82,1,1,2,['k'],['d'],N,Y,None,N,,,,,,,m,19,
7,6,83,10,10,2,['k'],['d'],N,N,None,Y,,,,,,,m,19,
7,7,84,10,10,2,['k'],['k'],Y,N,None,Y,,,,,,,m,19,
7,8,85,10,10,2,['k'],['k'],Y,N,None,Y,,,,,,,m,19,
7,9,86,10,10,2,['d'],['d'],Y,N,None,Y,,,,,,,m,19,
7,10,87,0,0,2,['k'],['k'],Y,N,None,Y,,,,,,,m,19,
8,0,88,3,3,2,['d'],['d'],Y,N,None,Y,,,,,,,m,19,
8,1,89,2,2,2,['k'],['d'],N,N,None,Y,,,,,,,m,19,
8,2,90,9,9,2,['k'],['d'],N,Y,None,N,,,,,,,m,19,
8,3,91,2,2,2,['k'],['d'],N,N,None,Y,,,,,,,m,19,
8,4,92,5,5,2,['k'],['k'],Y,N,None,Y,,,,,,,m,19,
8,5,93,10,10,2,['k'],['k'],Y,N,None,Y,,,,,,,m,19,
8,6,94,0,0,2,['k'],['k'],Y,N,None,Y,,,,,,,m,19,
8,7,95,1,1,2,['d'],['k'],N,N,None,Y,,,,,,,m,19,
8,8,96,1,1,2,['d'],['d'],Y,N,None,Y,,,,,,,m,19,
8,9,97,6,6,2,['d'],['d'],Y,N,None,Y,,,,,,,m,19,
8,10,98,1,1,2,['k'],['k'],Y,N,None,Y,,,,,,,m,19,
9,0,99,8,8,2,['k'],['k'],Y,N,None,Y,28,23,25,,,,m,19,
9,1,100,1,1,3,['k'],['d'],N,,,,,,,,,,m,19,
9,2,101,8,8,3,['d'],['k'],N,,,,,,,,,,m,19,
9,3,102,0,0,3,['k'],['d'],N,N,None,Y,,,,,,,m,19,
9,4,103,1,1,3,['k'],['k'],Y,N,None,Y,,,,,,,m,19,
9,5,104,9,9,3,['k'],['k'],Y,Y,None,N,,,,,,,m,19,
9,6,105,5,5,3,['k'],['k'],Y,N,None,Y,,,,,,,m,19,
9,7,106,5,5,3,['d'],['d'],Y,N,None,Y,,,,,,,m,19,
9,8,107,6,6,3,['d'],['k'],N,Y,None,N,,,,,,,m,19,
9,9,108,8,8,3,['k'],['k'],Y,N,None,Y,,,,,,,m,19,
9,10,109,0,0,3,['d'],['k'],N,Y,None,N,,,,,,,m,19,
10,0,110,0,0,3,['k'],['k'],Y,Y,None,N,,,,,,,m,19,
10,1,111,5,5,3,['k'],['d'],N,N,None,Y,,,,,,,m,19,
10,2,112,3,3,3,['d'],['k'],N,Y,None,N,,,,,,,m,19,
10,3,113,2,2,3,['k'],['d'],N,Y,None,N,,,,,,,m,19,
10,4,114,0,0,3,['d'],['k'],N,Y,None,N,,,,,,,m,19,
10,5,115,7,7,3,['k'],['k'],Y,N,None,Y,,,,,,,m,19,
10,6,116,2,2,3,['k'],['d'],N,Y,None,N,,,,,,,m,19,
10,7,117,0,0,3,['d'],['d'],Y,Y,None,N,,,,,,,m,19,
10,8,118,5,5,3,['d'],['k'],N,N,None,Y,,,,,,,m,19,
10,9,119,0,0,3,['k'],['k'],Y,N,None,Y,,,,,,,m,19,
10,10,120,2,2,3,['k'],['k'],Y,N,None,Y,,,,,,,m,19,
11,0,121,9,9,3,['k'],['d'],N,N,None,Y,,,,,,,m,19,
11,1,122,9,9,3,['k'],['d'],N,N,None,Y,,,,,,,m,19,
11,2,123,6,6,3,['k'],['d'],N,N,None,Y,,,,,,,m,19,
11,3,124,2,2,3,['k'],['k'],Y,Y,None,N,,,,,,,m,19,
11,4,125,0,0,3,['k'],['k'],Y,Y,None,N,,,,,,,m,19,
11,5,126,4,4,3,['k'],['k'],Y,N,None,Y,,,,,,,m,19,
11,6,127,6,6,3,['k'],['d'],N,Y,None,N,,,,,,,m,19,
11,7,128,10,10,3,['k'],['k'],Y,N,None,Y,,,,,,,m,19,
11,8,129,8,8,3,['k'],['k'],Y,N,None,Y,,,,,,,m,19,
11,9,130,8,8,3,['k'],['k'],Y,Y,None,N,,,,,,,m,19,
11,10,131,3,3,3,['k'],['k'],Y,Y,None,N,,,,,,,m,19,
12,0,132,9,9,3,['k'],['d'],N,N,None,Y,,,,,,,m,19,
12,1,133,2,2,3,['k'],['k'],Y,N,None,Y,,,,,,,m,19,
12,2,134,6,6,3,['k'],['d'],N,N,None,Y,,,,,,,m,19,
12,3,135,0,0,3,['d'],['k'],N,Y,None,N,,,,,,,m,19,
12,4,136,2,2,3,['k'],['d'],N,N,None,Y,,,,,,,m,19,
12,5,137,7,7,3,['k'],['d'],N,Y,None,N,,,,,,,m,19,
12,6,138,10,10,3,['k'],['d'],N,N,None,Y,,,,,,,m,19,
12,7,139,5,5,3,['k'],['k'],Y,N,None,Y,,,,,,,m,19,
12,8,140,5,5,3,['k'],['d'],N,Y,None,N,,,,,,,m,19,
12,9,141,6,6,3,['k'],['d'],N,Y,None,N,,,,,,,m,19,
12,10,142,9,9,3,['k'],['d'],N,Y,None,N,,,,,,,m,19,
13,0,143,1,1,3,['k'],['k'],Y,N,None,Y,,,,,,,m,19,
13,1,144,0,0,3,['k'],['k'],Y,N,None,Y,,,,,,,m,19,
13,2,145,8,8,3,['k'],['d'],N,N,None,Y,,,,,,,m,19,
13,3,146,0,0,3,['d'],['d'],Y,Y,None,N,,,,,,,m,19,
13,4,147,10,10,3,['k'],['d'],N,N,None,Y,,,,,,,m,19,
13,5,148,2,2,3,['k'],['d'],N,N,None,Y,,,,,,,m,19,
13,6,149,8,8,3,['k'],['d'],N,N,None,Y,22,28,20,,,,m,19,
13,7,150,7,7,4,['k'],['k'],Y,,,,,,,,,,m,19,
13,8,151,1,1,4,['k'],['d'],N,,,,,,,,,,m,19,
13,9,152,9,9,4,['k'],['k'],Y,N,None,Y,,,,,,,m,19,
13,10,153,0,0,4,['k'],['k'],Y,N,None,Y,,,,,,,m,19,
14,0,154,0,0,4,['k'],['k'],Y,N,None,Y,,,,,,,m,19,
14,1,155,10,10,4,['k'],['k'],Y,Y,None,N,,,,,,,m,19,
14,2,156,2,2,4,['k'],['d'],N,N,None,Y,,,,,,,m,19,
14,3,157,8,8,4,['k'],['k'],Y,N,None,Y,,,,,,,m,19,
14,4,158,6,6,4,['k'],['k'],Y,Y,None,N,,,,,,,m,19,
14,5,159,2,2,4,['k'],['d'],N,Y,None,N,,,,,,,m,19,
14,6,160,4,4,4,['k'],['d'],N,N,None,Y,,,,,,,m,19,
14,7,161,7,7,4,['d'],['k'],N,Y,None,N,,,,,,,m,19,
14,8,162,7,7,4,['k'],['d'],N,N,None,Y,,,,,,,m,19,
14,9,163,6,6,4,['k'],['d'],N,N,['d'],N,,,,,,,m,19,
14,10,164,5,5,4,['k'],['k'],Y,Y,None,N,,,,,,,m,19,
15,0,165,6,6,4,['k'],['d'],N,Y,None,N,,,,,,,m,19,
15,1,166,4,4,4,['d'],['k'],N,Y,None,N,,,,,,,m,19,
15,2,167,9,9,4,['d'],['d'],Y,N,None,Y,,,,,,,m,19,
15,3,168,3,3,4,['d'],['d'],Y,N,None,Y,,,,,,,m,19,
15,4,169,3,3,4,['d'],['k'],N,N,None,Y,,,,,,,m,19,
15,5,170,0,0,4,['d'],['k'],N,N,None,Y,,,,,,,m,19,
15,6,171,3,3,4,['k'],['k'],Y,Y,None,N,,,,,,,m,19,
15,7,172,2,2,4,['d'],['k'],N,N,None,Y,,,,,,,m,19,
15,8,173,2,2,4,['k'],['d'],N,Y,None,N,,,,,,,m,19,
15,9,174,4,4,4,['k'],['d'],N,N,None,Y,,,,,,,m,19,
15,10,175,3,3,4,['k'],['k'],Y,N,None,Y,,,,,,,m,19,
16,0,176,7,7,4,['d'],['d'],Y,N,None,Y,,,,,,,m,19,
16,1,177,5,5,4,['d'],['d'],Y,Y,None,N,,,,,,,m,19,
16,2,178,6,6,4,['k'],['k'],Y,Y,None,N,,,,,,,m,19,
16,3,179,9,9,4,['k'],['d'],N,Y,None,N,,,,,,,m,19,
16,4,180,5,5,4,['k'],['k'],Y,Y,None,N,,,,,,,m,19,
16,5,181,8,8,4,['k'],['d'],N,Y,None,N,,,,,,,m,19,
16,6,182,2,2,4,['d'],['d'],Y,N,None,Y,,,,,,,m,19,
16,7,183,6,6,4,['d'],['d'],Y,Y,None,N,,,,,,,m,19,
16,8,184,5,5,4,['d'],['d'],Y,N,None,Y,,,,,,,m,19,
16,9,185,6,6,4,['k'],['k'],Y,Y,None,N,,,,,,,m,19,
16,10,186,9,9,4,['d'],['k'],N,Y,None,N,,,,,,,m,19,
17,0,187,0,0,4,['d'],['d'],Y,N,None,Y,,,,,,,m,19,
17,1,188,9,9,4,['d'],['d'],Y,N,None,Y,,,,,,,m,19,
17,2,189,5,5,4,['d'],['d'],Y,Y,None,N,,,,,,,m,19,
17,3,190,1,1,4,['k'],['k'],Y,N,None,Y,,,,,,,m,19,
17,4,191,8,8,4,['d'],['d'],Y,N,None,Y,,,,,,,m,19,
17,5,192,0,0,4,['k'],['d'],N,N,None,Y,,,,,,,m,19,
17,6,193,3,3,4,['d'],['d'],Y,N,None,Y,,,,,,,m,19,
17,7,194,7,7,4,['d'],['d'],Y,N,None,Y,,,,,,,m,19,
17,8,195,6,6,4,['k'],['d'],N,N,None,Y,,,,,,,m,19,
17,9,196,8,8,4,['k'],['d'],N,N,None,Y,,,,,,,m,19,
17,10,197,0,0,4,['d'],['d'],Y,N,None,Y,,,,,,,m,19,
18,0,198,0,0,4,['k'],['k'],Y,Y,None,N,,,,,,,m,19,
18,1,199,4,4,4,['k'],['k'],Y,N,None,Y,30,28,19,,,,m,19,
18,2,200,0,0,5,['k'],['d'],N,,,,,,,,,,m,19,
18,3,201,5,5,5,['d'],['k'],N,,,,,,,,,,m,19,
18,4,202,9,9,5,['k'],['k'],Y,N,None,Y,,,,,,,m,19,
18,5,203,1,1,5,['d'],['d'],Y,Y,None,N,,,,,,,m,19,
18,6,204,5,5,5,['d'],['d'],Y,Y,None,N,,,,,,,m,19,
18,7,205,5,5,5,['d'],['d'],Y,Y,None,N,,,,,,,m,19,
18,8,206,7,7,5,['k'],['k'],Y,N,None,Y,,,,,,,m,19,
18,9,207,9,9,5,['k'],['d'],N,N,None,Y,,,,,,,m,19,
18,10,208,8,8,5,['d'],['d'],Y,N,None,Y,,,,,,,m,19,
19,0,209,0,0,5,['d'],['k'],N,Y,None,N,,,,,,,m,19,
19,1,210,9,9,5,['d'],['d'],Y,N,None,Y,,,,,,,m,19,
19,2,211,1,1,5,['d'],['k'],N,N,None,Y,,,,,,,m,19,
19,3,212,5,5,5,['d'],['k'],N,N,None,Y,,,,,,,m,19,
19,4,213,3,3,5,['k'],['d'],N,N,None,Y,,,,,,,m,19,
19,5,214,6,6,5,['k'],['k'],Y,Y,None,N,,,,,,,m,19,
19,6,215,2,2,5,['k'],['k'],Y,N,None,Y,,,,,,,m,19,
19,7,216,9,9,5,['k'],['k'],Y,Y,None,N,,,,,,,m,19,
19,8,217,3,3,5,['d'],['d'],Y,N,None,Y,,,,,,,m,19,
19,9,218,9,9,5,['k'],['k'],Y,N,None,Y,,,,,,,m,19,
19,10,219,10,10,5,['k'],['d'],N,Y,None,N,,,,,,,m,19,
20,0,220,3,3,5,['d'],['d'],Y,N,None,Y,,,,,,,m,19,
20,1,221,8,8,5,['k'],['k'],Y,Y,None,N,,,,,,,m,19,
20,2,222,4,4,5,['d'],['d'],Y,N,None,Y,,,,,,,m,19,
20,3,223,0,0,5,['k'],['d'],N,N,None,Y,,,,,,,m,19,
20,4,224,2,2,5,['k'],['k'],Y,Y,None,N,,,,,,,m,19,
20,5,225,3,3,5,['k'],['d'],N,N,None,Y,,,,,,,m,19,
20,6,226,2,2,5,['k'],['k'],Y,Y,None,N,,,,,,,m,19,
20,7,227,9,9,5,['k'],['k'],Y,N,None,Y,,,,,,,m,19,
20,8,228,1,1,5,['d'],['k'],N,N,None,Y,,,,,,,m,19,
20,9,229,5,5,5,['d'],['d'],Y,Y,None,N,,,,,,,m,19,
20,10,230,0,0,5,['k'],['k'],Y,Y,None,N,,,,,,,m,19,
21,0,231,5,5,5,['d'],['k'],N,Y,None,N,,,,,,,m,19,
21,1,232,6,6,5,['k'],['k'],Y,N,None,Y,,,,,,,m,19,
21,2,233,7,7,5,['d'],['k'],N,N,None,Y,,,,,,,m,19,
21,3,234,4,4,5,['k'],['k'],Y,N,None,Y,,,,,,,m,19,
21,4,235,1,1,5,['d'],['d'],Y,N,None,Y,,,,,,,m,19,
21,5,236,6,6,5,['k'],['k'],Y,N,None,Y,,,,,,,m,19,
21,6,237,3,3,5,['d'],['d'],Y,N,None,Y,,,,,,,m,19,
21,7,238,7,7,5,['k'],['k'],Y,N,None,Y,,,,,,,m,19,
21,8,239,1,1,5,['k'],['d'],N,N,None,Y,,,,,,,m,19,
21,9,240,4,4,5,['d'],['d'],Y,Y,None,N,,,,,,,m,19,
21,10,241,5,5,5,['k'],['k'],Y,Y,None,N,,,,,,,m,19,
22,0,242,9,9,5,['d'],['d'],Y,N,None,Y,,,,,,,m,19,
22,1,243,4,4,5,['d'],['d'],Y,N,None,Y,,,,,,,m,19,
22,2,244,7,7,5,['k'],['k'],Y,Y,None,N,,,,,,,m,19,
22,3,245,3,3,5,['k'],['k'],Y,Y,None,N,,,,,,,m,19,
22,4,246,7,7,5,['d'],['d'],Y,Y,None,N,,,,,,,m,19,
22,5,247,7,7,5,['k'],['d'],N,N,None,Y,,,,,,,m,19,
22,6,248,4,4,5,['k'],['d'],N,N,None,Y,,,,,,,m,19,
22,7,249,5,5,5,['k'],['d'],N,N,None,Y,33,30,18,,,,m,19,
22,8,250,5,5,6,['k'],['k'],Y,,,,,,,,,,m,19,
22,9,251,7,7,6,['d'],['k'],N,,,,,,,,,,m,19,
22,10,252,6,6,6,['k'],['k'],Y,N,None,Y,,,,,,,m,19,
23,0,253,1,1,6,['d'],['k'],N,N,None,Y,,,,,,,m,19,
23,1,254,9,9,6,['k'],['d'],N,N,None,Y,,,,,,,m,19,
23,2,255,9,9,6,['k'],['d'],N,Y,None,N,,,,,,,m,19,
23,3,256,3,3,6,['d'],['d'],Y,N,None,Y,,,,,,,m,19,
23,4,257,7,7,6,['k'],['k'],Y,N,None,Y,,,,,,,m,19,
23,5,258,7,7,6,['d'],['k'],N,N,None,Y,,,,,,,m,19,
23,6,259,3,3,6,['k'],['d'],N,Y,None,N,,,,,,,m,19,
23,7,260,10,10,6,['k'],['k'],Y,N,None,Y,,,,,,,m,19,
23,8,261,7,7,6,['d'],['d'],Y,N,['k'],N,,,,,,,m,19,
23,9,262,2,2,6,['d'],['k'],N,Y,None,N,,,,,,,m,19,
23,10,263,8,8,6,['k'],['k'],Y,N,['n'],N,,,,,,,m,19,
24,0,264,7,7,6,['k'],['d'],N,Y,['backspace'],N,,,,,,,m,19,
24,1,265,2,2,6,['k'],['d'],N,Y,None,N,,,,,,,m,19,
24,2,266,6,6,6,['d'],['k'],N,Y,None,N,,,,,,,m,19,
24,3,267,1,1,6,['k'],['d'],N,Y,None,N,,,,,,,m,19,
24,4,268,4,4,6,['d'],['d'],Y,N,['return'],N,,,,,,,m,19,
24,5,269,8,8,6,['k'],['d'],N,N,None,Y,,,,,,,m,19,
24,6,270,1,1,6,['d'],['k'],N,Y,None,N,,,,,,,m,19,
24,7,271,6,6,6,['k'],['k'],Y,N,None,Y,,,,,,,m,19,
24,8,272,8,8,6,['d'],['k'],N,Y,None,N,,,,,,,m,19,
24,9,273,1,1,6,['k'],['d'],N,Y,None,N,,,,,,,m,19,
24,10,274,1,1,6,['k'],['d'],N,N,"['d', 'k']",N,,,,,,,m,19,
25,0,275,4,4,6,"['d', 'k']",['d'],N,Y,['k'],N,,,,,,,m,19,
25,1,276,10,10,6,['k'],['d'],N,N,None,Y,,,,,,,m,19,
25,2,277,8,8,6,"['d', 'k']",['d'],N,N,None,Y,,,,,,,m,19,
25,3,278,8,8,6,"['d', 'k']",['d'],N,Y,['d'],N,,,,,,,m,19,
25,4,279,6,6,6,"['d', 'k']",['k'],N,N,"['d', 'k']",N,,,,,,,m,19,
25,5,280,6,6,6,"['d', 'k']",['k'],N,N,None,Y,,,,,,,m,19,
25,6,281,8,8,6,"['d', 'k']",['d'],N,N,None,Y,,,,,,,m,19,
25,7,282,9,9,6,['k'],['k'],Y,N,None,Y,,,,,,,m,19,
25,8,283,4,4,6,"['d', 'k']",['k'],N,Y,None,N,,,,,,,m,19,
25,9,284,4,4,6,"['d', 'k']",['d'],N,N,None,Y,,,,,,,m,19,
25,10,285,10,10,6,"['d', 'k']",['k'],N,N,None,Y,,,,,,,m,19,
26,0,286,1,1,6,['k'],['k'],Y,Y,None,N,,,,,,,m,19,
26,1,287,1,1,6,['k'],['k'],Y,Y,None,N,,,,,,,m,19,
26,2,288,6,6,6,['k'],['k'],Y,N,None,Y,,,,,,,m,19,
26,3,289,3,3,6,['k'],['k'],Y,N,None,Y,,,,,,,m,19,
26,4,290,7,7,6,['k'],['d'],N,Y,None,N,,,,,,,m,19,
26,5,291,6,6,6,['d'],['k'],N,Y,None,N,,,,,,,m,19,
26,6,292,4,4,6,['k'],['k'],Y,Y,None,N,,,,,,,m,19,
26,7,293,10,10,6,['k'],['d'],N,Y,None,N,,,,,,,m,19,
26,8,294,1,1,6,['k'],['k'],Y,Y,None,N,,,,,,,m,19,
26,9,295,10,10,6,['d'],['k'],N,N,None,Y,,,,,,,m,19,
26,10,296,6,6,6,['d'],['d'],Y,Y,None,N,,,,,,,m,19,
27,0,297,6,6,6,['k'],['k'],Y,N,None,Y,,,,,,,m,19,
27,1,298,9,9,6,['k'],['d'],N,Y,None,N,,,,,,,m,19,
27,2,299,6,6,6,['k'],['k'],Y,N,None,Y,19,21,22,,,,m,19,
27,3,300,3,3,7,['k'],['d'],N,,,,,,,,,,m,19,
27,4,301,4,4,7,['d'],['d'],Y,,,,,,,,,,m,19,
27,5,302,0,0,7,['k'],['d'],N,Y,None,N,,,,,,,m,19,
27,6,303,10,10,7,['d'],['d'],Y,N,None,Y,,,,,,,m,19,
27,7,304,10,10,7,['d'],['d'],Y,N,None,Y,,,,,,,m,19,
27,8,305,4,4,7,['k'],['d'],N,N,None,Y,,,,,,,m,19,
27,9,306,0,0,7,['d'],['d'],Y,N,None,Y,,,,,,,m,19,
27,10,307,3,3,7,['d'],['d'],Y,Y,None,N,,,,,,,m,19,
28,0,308,1,1,7,['d'],['k'],N,Y,None,N,,,,,,,m,19,
28,1,309,2,2,7,['d'],['k'],N,N,None,Y,,,,,,,m,19,
28,2,310,1,1,7,['k'],['d'],N,Y,None,N,,,,,,,m,19,
28,3,311,5,5,7,['k'],['k'],Y,Y,None,N,,,,,,,m,19,
28,4,312,10,10,7,['k'],['k'],Y,N,None,Y,,,,,,,m,19,
28,5,313,10,10,7,['k'],['k'],Y,Y,None,N,,,,,,,m,19,
28,6,314,4,4,7,['k'],['d'],N,N,None,Y,,,,,,,m,19,
28,7,315,3,3,7,['d'],['d'],Y,Y,None,N,,,,,,,m,19,
28,8,316,1,1,7,['d'],['d'],Y,N,None,Y,,,,,,,m,19,
28,9,317,3,3,7,['d'],['d'],Y,Y,None,N,,,,,,,m,19,
28,10,318,10,10,7,['d'],['d'],Y,Y,None,N,,,,,,,m,19,
29,0,319,8,8,7,['d'],['d'],Y,Y,None,N,,,,,,,m,19,
29,1,320,5,5,7,['d'],['d'],Y,Y,None,N,,,,,,,m,19,
29,2,321,0,0,7,['d'],['k'],N,N,None,Y,,,,,,,m,19,
29,3,322,5,5,7,['d'],['d'],Y,N,None,Y,,,,,,,m,19,
29,4,323,5,5,7,['d'],['k'],N,Y,None,N,,,,,,,m,19,
29,5,324,7,7,7,['d'],['k'],N,Y,None,N,,,,,,,m,19,
29,6,325,4,4,7,['d'],['d'],Y,N,None,Y,,,,,,,m,19,
29,7,326,2,2,7,['d'],['d'],Y,Y,None,N,,,,,,,m,19,
29,8,327,5,5,7,['d'],['k'],N,N,None,Y,,,,,,,m,19,
29,9,328,1,1,7,['d'],['d'],Y,N,None,Y,,,,,,,m,19,
29,10,329,9,9,7,['d'],['d'],Y,Y,None,N,,,,,,,m,19,
30,0,330,5,5,7,['d'],['k'],N,N,None,Y,,,,,,,m,19,
30,1,331,0,0,7,['d'],['d'],Y,Y,None,N,,,,,,,m,19,
30,2,332,1,1,7,['d'],['d'],Y,Y,None,N,,,,,,,m,19,
30,3,333,9,9,7,['d'],['d'],Y,N,None,Y,,,,,,,m,19,
30,4,334,3,3,7,['d'],['k'],N,N,None,Y,,,,,,,m,19,
30,5,335,7,7,7,['d'],['k'],N,N,None,Y,,,,,,,m,19,
30,6,336,4,4,7,['d'],['d'],Y,N,None,Y,,,,,,,m,19,
30,7,337,6,6,7,['d'],['k'],N,Y,['d'],N,,,,,,,m,19,
30,8,338,3,3,7,['d'],['k'],N,N,None,Y,,,,,,,m,19,
30,9,339,7,7,7,['k'],['k'],Y,Y,None,N,,,,,,,m,19,
30,10,340,8,8,7,['k'],['k'],Y,Y,None,N,,,,,,,m,19,
31,0,341,7,7,7,['d'],['k'],N,Y,None,N,,,,,,,m,19,
31,1,342,9,9,7,['k'],['k'],Y,Y,None,N,,,,,,,m,19,
31,2,343,9,9,7,['d'],['k'],N,N,None,Y,,,,,,,m,19,
31,3,344,7,7,7,['k'],['k'],Y,Y,None,N,,,,,,,m,19,
31,4,345,3,3,7,['k'],['k'],Y,Y,None,N,,,,,,,m,19,
31,5,346,4,4,7,['k'],['k'],Y,N,None,Y,,,,,,,m,19,
31,6,347,6,6,7,['d'],['d'],Y,N,None,Y,,,,,,,m,19,
31,7,348,2,2,7,['d'],['k'],N,Y,None,N,,,,,,,m,19,
31,8,349,4,4,7,['k'],['k'],Y,N,None,Y,31,23,25,,,,m,19,
31,9,350,10,10,8,['d'],['d'],Y,,,,,,,,,,m,19,
31,10,351,0,0,8,['k'],['k'],Y,,,,,,,,,,m,19,
32,0,352,9,9,8,['k'],['k'],Y,Y,None,N,,,,,,,m,19,
32,1,353,0,0,8,['k'],['d'],N,N,None,Y,,,,,,,m,19,
32,2,354,0,0,8,['k'],['k'],Y,Y,None,N,,,,,,,m,19,
32,3,355,8,8,8,['d'],['k'],N,Y,None,N,,,,,,,m,19,
32,4,356,6,6,8,['d'],['d'],Y,N,None,Y,,,,,,,m,19,
32,5,357,6,6,8,['k'],['k'],Y,N,None,Y,,,,,,,m,19,
32,6,358,6,6,8,['d'],['k'],N,Y,None,N,,,,,,,m,19,
32,7,359,6,6,8,['k'],['k'],Y,N,None,Y,,,,,,,m,19,
32,8,360,9,9,8,['k'],['d'],N,Y,None,N,,,,,,,m,19,
32,9,361,10,10,8,['k'],['d'],N,N,['d'],N,,,,,,,m,19,
32,10,362,2,2,8,['k'],['d'],N,Y,None,N,,,,,,,m,19,
33,0,363,10,10,8,['k'],['d'],N,Y,None,N,,,,,,,m,19,
33,1,364,4,4,8,['k'],['d'],N,N,None,Y,,,,,,,m,19,
33,2,365,8,8,8,['k'],['k'],Y,Y,None,N,,,,,,,m,19,
33,3,366,10,10,8,['d'],['d'],Y,N,None,Y,,,,,,,m,19,
33,4,367,0,0,8,['k'],['d'],N,Y,None,N,,,,,,,m,19,
33,5,368,4,4,8,['k'],['d'],N,N,None,Y,,,,,,,m,19,
33,6,369,7,7,8,['k'],['k'],Y,N,None,Y,,,,,,,m,19,
33,7,370,2,2,8,['d'],['k'],N,N,None,Y,,,,,,,m,19,
33,8,371,9,9,8,['d'],['k'],N,Y,None,N,,,,,,,m,19,
33,9,372,1,1,8,['d'],['d'],Y,N,None,Y,,,,,,,m,19,
33,10,373,2,2,8,['k'],['d'],N,N,None,Y,,,,,,,m,19,
34,0,374,3,3,8,['k'],['d'],N,N,None,Y,,,,,,,m,19,
34,1,375,0,0,8,['k'],['d'],N,N,None,Y,,,,,,,m,19,
34,2,376,4,4,8,['k'],['k'],Y,Y,None,N,,,,,,,m,19,
34,3,377,7,7,8,['k'],['k'],Y,Y,None,N,,,,,,,m,19,
34,4,378,3,3,8,['d'],['k'],N,N,None,Y,,,,,,,m,19,
34,5,379,1,1,8,['d'],['d'],Y,Y,None,N,,,,,,,m,19,
34,6,380,10,10,8,['d'],['k'],N,N,None,Y,,,,,,,m,19,
34,7,381,8,8,8,['k'],['k'],Y,N,None,Y,,,,,,,m,19,
34,8,382,1,1,8,['k'],['k'],Y,N,None,Y,,,,,,,m,19,
34,9,383,0,0,8,['k'],['d'],N,Y,['k'],N,,,,,,,m,19,
34,10,384,3,3,8,['k'],['k'],Y,Y,None,N,,,,,,,m,19,
35,0,385,5,5,8,['k'],['k'],Y,N,None,Y,,,,,,,m,19,
35,1,386,4,4,8,['k'],['d'],N,Y,['k'],N,,,,,,,m,19,
35,2,387,2,2,8,['k'],['d'],N,N,None,Y,,,,,,,m,19,
35,3,388,4,4,8,['d'],['k'],N,Y,None,N,,,,,,,m,19,
35,4,389,6,6,8,['d'],['k'],N,N,None,Y,,,,,,,m,19,
35,5,390,5,5,8,['k'],['k'],Y,Y,None,N,,,,,,,m,19,
35,6,391,0,0,8,['k'],['k'],Y,N,None,Y,,,,,,,m,19,
35,7,392,5,5,8,['k'],['k'],Y,N,None,Y,,,,,,,m,19,
35,8,393,9,9,8,['d'],['k'],N,Y,None,N,,,,,,,m,19,
35,9,394,8,8,8,['k'],['k'],Y,N,None,Y,,,,,,,m,19,
35,10,395,6,6,8,['d'],['d'],Y,N,None,Y,,,,,,,m,19,
36,0,396,2,2,8,['d'],['k'],N,N,None,Y,,,,,,,m,19,
36,1,397,6,6,8,['k'],['k'],Y,N,None,Y,,,,,,,m,19,
36,2,398,6,6,8,['k'],['k'],Y,Y,None,N,,,,,,,m,19,
36,3,399,1,1,8,['k'],['d'],N,Y,None,N,25,26,21,,,,m,19,
36,4,400,2,2,9,['k'],['d'],N,,,,,,,,,,m,19,
36,5,401,2,2,9,['k'],['d'],N,,,,,,,,,,m,19,
36,6,402,8,8,9,['k'],['d'],N,Y,None,N,,,,,,,m,19,
36,7,403,2,2,9,['k'],['k'],Y,Y,None,N,,,,,,,m,19,
36,8,404,1,1,9,['d'],['d'],Y,N,None,Y,,,,,,,m,19,
36,9,405,0,0,9,['d'],['k'],N,Y,None,N,,,,,,,m,19,
36,10,406,0,0,9,['d'],['k'],N,N,None,Y,,,,,,,m,19,
37,0,407,5,5,9,['d'],['d'],Y,N,None,Y,,,,,,,m,19,
37,1,408,2,2,9,['k'],['d'],N,N,None,Y,,,,,,,m,19,
37,2,409,1,1,9,['d'],['k'],N,N,None,Y,,,,,,,m,19,
37,3,410,10,10,9,['k'],['k'],Y,Y,None,N,,,,,,,m,19,
37,4,411,10,10,9,['d'],['k'],N,Y,None,N,,,,,,,m,19,
37,5,412,0,0,9,['d'],['k'],N,Y,None,N,,,,,,,m,19,
37,6,413,7,7,9,['d'],['d'],Y,N,None,Y,,,,,,,m,19,
37,7,414,6,6,9,['k'],['d'],N,N,None,Y,,,,,,,m,19,
37,8,415,5,5,9,['d'],['d'],Y,Y,None,N,,,,,,,m,19,
37,9,416,8,8,9,['d'],['k'],N,N,None,Y,,,,,,,m,19,
37,10,417,1,1,9,['k'],['k'],Y,N,None,Y,,,,,,,m,19,
38,0,418,9,9,9,['d'],['k'],N,N,None,Y,,,,,,,m,19,
38,1,419,10,10,9,['k'],['k'],Y,Y,None,N,,,,,,,m,19,
38,2,420,8,8,9,['k'],['k'],Y,N,None,Y,,,,,,,m,19,
38,3,421,3,3,9,['d'],['k'],N,N,None,Y,,,,,,,m,19,
38,4,422,0,0,9,['k'],['k'],Y,N,None,Y,,,,,,,m,19,
38,5,423,6,6,9,['d'],['d'],Y,N,None,Y,,,,,,,m,19,
38,6,424,5,5,9,['k'],['d'],N,N,None,Y,,,,,,,m,19,
38,7,425,3,3,9,['d'],['k'],N,N,None,Y,,,,,,,m,19,
38,8,426,8,8,9,['k'],['k'],Y,Y,None,N,,,,,,,m,19,
38,9,427,10,10,9,['k'],['d'],N,Y,None,N,,,,,,,m,19,
38,10,428,1,1,9,['k'],['d'],N,N,None,Y,,,,,,,m,19,
39,0,429,5,5,9,['k'],['d'],N,N,None,Y,,,,,,,m,19,
39,1,430,7,7,9,['k'],['d'],N,N,None,Y,,,,,,,m,19,
39,2,431,3,3,9,['d'],['k'],N,N,None,Y,,,,,,,m,19,
39,3,432,4,4,9,['d'],['k'],N,N,None,Y,,,,,,,m,19,
39,4,433,3,3,9,['d'],['k'],N,N,None,Y,,,,,,,m,19,
39,5,434,7,7,9,['k'],['k'],Y,Y,None,N,,,,,,,m,19,
39,6,435,5,5,9,['k'],['d'],N,N,None,Y,,,,,,,m,19,
39,7,436,4,4,9,['d'],['d'],Y,N,None,Y,,,,,,,m,19,
39,8,437,2,2,9,['k'],['k'],Y,N,None,Y,,,,,,,m,19,
39,9,438,0,0,9,['k'],['k'],Y,Y,None,N,,,,,,,m,19,
39,10,439,7,7,9,['d'],['d'],Y,Y,None,N,,,,,,,m,19,
40,0,440,9,9,9,['k'],['k'],Y,N,None,Y,,,,,,,m,19,
40,1,441,10,10,9,['k'],['k'],Y,Y,None,N,,,,,,,m,19,
40,2,442,9,9,9,['d'],['d'],Y,N,None,Y,,,,,,,m,19,
40,3,443,2,2,9,['k'],['d'],N,N,None,Y,,,,,,,m,19,
40,4,444,6,6,9,['k'],['k'],Y,N,None,Y,,,,,,,m,19,
40,5,445,9,9,9,['k'],['k'],Y,N,None,Y,,,,,,,m,19,
40,6,446,10,10,9,['d'],['k'],N,Y,None,N,,,,,,,m,19,
40,7,447,7,7,9,['d'],['k'],N,N,None,Y,,,,,,,m,19,
40,8,448,2,2,9,['d'],['k'],N,N,None,Y,,,,,,,m,19,
40,9,449,5,5,9,['k'],['d'],N,N,None,Y,22,33,15,,,,m,19,
40,10,450,4,4,10,['k'],['k'],Y,,,,,,,,,,m,19,
41,0,451,7,7,10,['d'],['d'],Y,,,,,,,,,,m,19,
41,1,452,3,3,10,['k'],['k'],Y,Y,None,N,,,,,,,m,19,
41,2,453,2,2,10,['k'],['d'],N,N,None,Y,,,,,,,m,19,
41,3,454,2,2,10,['d'],['d'],Y,Y,None,N,,,,,,,m,19,
41,4,455,5,5,10,['k'],['d'],N,Y,None,N,,,,,,,m,19,
41,5,456,7,7,10,['d'],['d'],Y,N,None,Y,,,,,,,m,19,
41,6,457,0,0,10,['d'],['k'],N,N,None,Y,,,,,,,m,19,
41,7,458,0,0,10,['k'],['d'],N,Y,None,N,,,,,,,m,19,
41,8,459,6,6,10,['k'],['d'],N,Y,None,N,,,,,,,m,19,
41,9,460,5,5,10,['k'],['d'],N,N,None,Y,,,,,,,m,19,
41,10,461,10,10,10,['k'],['d'],N,N,None,Y,,,,,,,m,19,
42,0,462,8,8,10,['k'],['k'],Y,N,None,Y,,,,,,,m,19,
42,1,463,2,2,10,['k'],['k'],Y,N,None,Y,,,,,,,m,19,
42,2,464,6,6,10,['k'],['d'],N,N,None,Y,,,,,,,m,19,
42,3,465,5,5,10,['d'],['k'],N,Y,None,N,,,,,,,m,19,
42,4,466,10,10,10,['k'],['d'],N,Y,None,N,,,,,,,m,19,
42,5,467,7,7,10,['k'],['d'],N,N,None,Y,,,,,,,m,19,
42,6,468,6,6,10,['d'],['d'],Y,N,None,Y,,,,,,,m,19,
42,7,469,3,3,10,['d'],['d'],Y,N,None,Y,,,,,,,m,19,
42,8,470,6,6,10,['k'],['k'],Y,N,None,Y,,,,,,,m,19,
42,9,471,8,8,10,['k'],['d'],N,Y,None,N,,,,,,,m,19,
42,10,472,10,10,10,['d'],['k'],N,N,None,Y,,,,,,,m,19,
43,0,473,9,9,10,['k'],['k'],Y,N,None,Y,,,,,,,m,19,
43,1,474,5,5,10,['d'],['k'],N,Y,None,N,,,,,,,m,19,
43,2,475,6,6,10,['k'],['d'],N,N,None,Y,,,,,,,m,19,
43,3,476,2,2,10,['d'],['d'],Y,Y,None,N,,,,,,,m,19,
43,4,477,2,2,10,['d'],['d'],Y,Y,None,N,,,,,,,m,19,
43,5,478,8,8,10,['k'],['k'],Y,N,None,Y,,,,,,,m,19,
43,6,479,8,8,10,['k'],['d'],N,N,None,Y,,,,,,,m,19,
43,7,480,10,10,10,['d'],['d'],Y,N,None,Y,,,,,,,m,19,
43,8,481,4,4,10,['k'],['d'],N,Y,None,N,,,,,,,m,19,
43,9,482,7,7,10,['d'],['d'],Y,Y,None,N,,,,,,,m,19,
43,10,483,9,9,10,['k'],['d'],N,N,None,Y,,,,,,,m,19,
44,0,484,5,5,10,['d'],['d'],Y,Y,None,N,,,,,,,m,19,
44,1,485,7,7,10,['d'],['d'],Y,N,None,Y,,,,,,,m,19,
44,2,486,8,8,10,['k'],['k'],Y,Y,None,N,,,,,,,m,19,
44,3,487,1,1,10,['d'],['k'],N,Y,None,N,,,,,,,m,19,
44,4,488,3,3,10,['d'],['k'],N,Y,None,N,,,,,,,m,19,
44,5,489,0,0,10,['k'],['d'],N,Y,None,N,,,,,,,m,19,
44,6,490,3,3,10,['k'],['k'],Y,Y,None,N,,,,,,,m,19,
44,7,491,8,8,10,['k'],['k'],Y,N,None,Y,,,,,,,m,19,
44,8,492,9,9,10,['k'],['k'],Y,N,None,Y,,,,,,,m,19,
44,9,493,3,3,10,['k'],['d'],N,Y,None,N,,,,,,,m,19,
44,10,494,9,9,10,['d'],['k'],N,Y,None,N,,,,,,,m,19,
45,0,495,6,6,10,['d'],['d'],Y,Y,None,N,,,,,,,m,19,
45,1,496,8,8,10,['d'],['k'],N,N,None,Y,,,,,,,m,19,
45,2,497,3,3,10,['d'],['k'],N,N,None,Y,,,,,,,m,19,
45,3,498,3,3,10,['k'],['k'],Y,Y,None,N,,,,,,,m,19,
45,4,499,4,4,10,['k'],['d'],N,Y,None,N,24,24,24,,,,m,19,
45,5,500,10,10,11,['k'],['k'],N,,,,,,,Y,Y,Y,m,19,
45,6,501,10,10,11,['k'],['k'],N,,,,,,,,Y,Y,m,19,
45,7,502,10,10,11,['k'],['k'],N,Y,None,N,,,,,Y,Y,m,19,
45,8,503,7,7,11,['k'],['d'],Y,Y,None,N,,,,,Y,Y,m,19,
45,9,504,10,10,11,['k'],['d'],Y,Y,None,N,,,,,Y,Y,m,19,
45,10,505,10,10,11,['k'],['d'],Y,N,None,Y,,,,,Y,Y,m,19,
46,0,506,8,8,11,['k'],['d'],Y,N,None,Y,,,,,Y,Y,m,19,
46,1,507,8,8,11,['k'],['k'],N,Y,None,N,,,,,Y,Y,m,19,
46,2,508,2,2,11,['d'],['d'],N,Y,None,N,,,,,Y,Y,m,19,
46,3,509,6,6,11,['k'],['d'],Y,Y,None,N,,,,,Y,Y,m,19,
46,4,510,1,1,11,['k'],['d'],Y,N,None,Y,,,,,Y,Y,m,19,
46,5,511,6,6,11,['d'],['d'],N,Y,None,N,,,,,Y,Y,m,19,
46,6,512,0,0,11,['k'],['k'],N,Y,None,N,,,,,Y,Y,m,19,
46,7,513,10,10,11,['d'],['k'],Y,Y,None,N,,,,,Y,Y,m,19,
46,8,514,2,2,11,['k'],['d'],Y,N,None,Y,,,,,Y,Y,m,19,
46,9,515,9,9,11,['d'],['d'],N,N,None,Y,,,,,Y,Y,m,19,
46,10,516,4,4,11,['k'],['d'],Y,N,None,Y,,,,,Y,Y,m,19,
47,0,517,8,8,11,['k'],['d'],Y,N,None,Y,,,,,Y,Y,m,19,
47,1,518,5,5,11,['d'],['d'],N,Y,None,N,,,,,Y,Y,m,19,
47,2,519,4,4,11,['k'],['k'],N,Y,None,N,,,,,Y,Y,m,19,
47,3,520,0,0,11,['k'],['k'],N,N,None,Y,,,,,Y,Y,m,19,
47,4,521,9,9,11,['k'],['d'],Y,Y,None,N,,,,,Y,Y,m,19,
47,5,522,5,5,11,['k'],['k'],N,N,None,Y,,,,,Y,Y,m,19,
47,6,523,10,10,11,['d'],['d'],N,N,None,Y,,,,,Y,Y,m,19,
47,7,524,1,1,11,['d'],['d'],N,N,None,Y,,,,,Y,Y,m,19,
47,8,525,9,9,11,['d'],['k'],Y,N,None,Y,,,,,Y,Y,m,19,
47,9,526,2,2,11,['d'],['d'],N,N,None,Y,,,,,Y,Y,m,19,
47,10,527,4,4,11,['k'],['k'],N,Y,None,N,,,,,Y,Y,m,19,
48,0,528,7,7,11,None,,Timed out,Y,None,N,,,,,Y,Y,m,19,
48,1,529,0,0,11,['d'],['d'],N,N,['d'],N,,,,,Y,Y,m,19,
48,2,530,3,3,11,['d'],['k'],Y,Y,None,N,,,,,Y,Y,m,19,
48,3,531,8,8,11,['d'],['k'],Y,N,None,Y,,,,,Y,Y,m,19,
48,4,532,8,8,11,['d'],['d'],N,Y,None,N,,,,,Y,Y,m,19,
48,5,533,8,8,11,['d'],['d'],N,Y,None,N,,,,,Y,Y,m,19,
48,6,534,1,1,11,['d'],['d'],N,N,None,Y,,,,,Y,Y,m,19,
48,7,535,4,4,11,['d'],['d'],N,Y,None,N,,,,,Y,Y,m,19,
48,8,536,10,10,11,['d'],['d'],N,Y,None,N,,,,,Y,Y,m,19,
48,9,537,7,7,11,['d'],['d'],N,N,None,Y,,,,,Y,Y,m,19,
48,10,538,3,3,11,['d'],['d'],N,Y,None,N,,,,,Y,Y,m,19,
49,0,539,6,6,11,['d'],['k'],Y,N,None,Y,,,,,Y,Y,m,19,
49,1,540,2,2,11,['d'],['d'],N,N,None,Y,,,,,Y,Y,m,19,
49,2,541,4,4,11,['d'],['d'],N,N,None,Y,,,,,Y,Y,m,19,
49,3,542,2,2,11,['d'],['d'],N,Y,None,N,,,,,Y,Y,m,19,
49,4,543,0,0,11,['d'],['k'],Y,N,None,Y,,,,,Y,Y,m,19,
49,5,544,0,0,11,['d'],['d'],N,Y,None,N,,,,,Y,Y,m,19,
49,6,545,4,4,11,['d'],['k'],Y,Y,None,N,,,,,Y,Y,m,19,
49,7,546,2,2,11,['d'],['k'],Y,N,None,Y,,,,,Y,Y,m,19,
49,8,547,1,1,11,['d'],['d'],N,N,None,Y,,,,,Y,Y,m,19,
49,9,548,1,1,11,['d'],['d'],N,N,None,Y,,,,,Y,Y,m,19,
49,10,549,10,10,11,['d'],['d'],N,N,None,Y,18,24,23,,Y,Y,m,19,
50,0,550,7,7,12,['d'],['d'],N,,,,,,,,Y,Y,m,19,
50,1,551,5,5,12,None,,Timed out,,,,,,,,Y,Y,m,19,
50,2,552,8,8,12,['k'],['d'],Y,Y,None,N,,,,,Y,Y,m,19,
50,3,553,1,1,12,['d'],['d'],N,N,None,Y,,,,,Y,Y,m,19,
50,4,554,0,0,12,['d'],['d'],N,N,None,Y,,,,,Y,Y,m,19,
50,5,555,2,2,12,['d'],['d'],N,N,None,Y,,,,,Y,Y,m,19,
50,6,556,7,7,12,['k'],['d'],Y,Y,None,N,,,,,Y,Y,m,19,
50,7,557,10,10,12,['k'],['d'],Y,Y,None,N,,,,,Y,Y,m,19,
50,8,558,8,8,12,['k'],['d'],Y,N,None,Y,,,,,Y,Y,m,19,
50,9,559,4,4,12,['k'],['d'],Y,N,None,Y,,,,,Y,Y,m,19,
50,10,560,5,5,12,['k'],['d'],Y,Y,None,N,,,,,Y,Y,m,19,
51,0,561,0,0,12,['k'],['d'],Y,Y,None,N,,,,,Y,Y,m,19,
51,1,562,2,2,12,['k'],['d'],Y,N,None,Y,,,,,Y,Y,m,19,
51,2,563,2,2,12,['k'],['d'],Y,N,None,Y,,,,,Y,Y,m,19,
51,3,564,10,10,12,['k'],['k'],N,N,None,Y,,,,,Y,Y,m,19,
51,4,565,3,3,12,['d'],['k'],Y,Y,None,N,,,,,Y,Y,m,19,
51,5,566,8,8,12,['d'],['k'],Y,N,None,Y,,,,,Y,Y,m,19,
51,6,567,6,6,12,['d'],['k'],Y,N,None,Y,,,,,Y,Y,m,19,
51,7,568,1,1,12,['d'],['k'],Y,N,None,Y,,,,,Y,Y,m,19,
51,8,569,10,10,12,['d'],['k'],Y,Y,None,N,,,,,Y,Y,m,19,
51,9,570,9,9,12,['d'],['d'],N,Y,None,N,,,,,Y,Y,m,19,
51,10,571,4,4,12,['k'],['k'],N,N,None,Y,,,,,Y,Y,m,19,
52,0,572,8,8,12,['k'],['k'],N,Y,None,N,,,,,Y,Y,m,19,
52,1,573,2,2,12,['d'],['k'],Y,N,None,Y,,,,,Y,Y,m,19,
52,2,574,5,5,12,['d'],['k'],Y,N,None,Y,,,,,Y,Y,m,19,
52,3,575,4,4,12,['d'],['d'],N,Y,None,N,,,,,Y,Y,m,19,
52,4,576,5,5,12,['d'],['k'],Y,N,None,Y,,,,,Y,Y,m,19,
52,5,577,9,9,12,['d'],['d'],N,N,None,Y,,,,,Y,Y,m,19,
52,6,578,7,7,12,['d'],['k'],Y,N,None,Y,,,,,Y,Y,m,19,
52,7,579,4,4,12,['k'],['d'],Y,N,None,Y,,,,,Y,Y,m,19,
52,8,580,9,9,12,['d'],['k'],Y,N,None,Y,,,,,Y,Y,m,19,
52,9,581,8,8,12,['k'],['k'],N,Y,None,N,,,,,Y,Y,m,19,
52,10,582,4,4,12,['d'],['k'],Y,Y,None,N,,,,,Y,Y,m,19,
53,0,583,8,8,12,['d'],['d'],N,Y,None,N,,,,,Y,Y,m,19,
53,1,584,7,7,12,['k'],['k'],N,N,None,Y,,,,,Y,Y,m,19,
53,2,585,10,10,12,['k'],['k'],N,N,None,Y,,,,,Y,Y,m,19,
53,3,586,9,9,12,['d'],['d'],N,N,None,Y,,,,,Y,Y,m,19,
53,4,587,10,10,12,['d'],['d'],N,N,None,Y,,,,,Y,Y,m,19,
53,5,588,4,4,12,['k'],['k'],N,Y,None,N,,,,,Y,Y,m,19,
53,6,589,9,9,12,['k'],['d'],Y,Y,None,N,,,,,Y,Y,m,19,
53,7,590,7,7,12,['k'],['d'],Y,N,None,Y,,,,,Y,Y,m,19,
53,8,591,1,1,12,['k'],['k'],N,Y,None,N,,,,,Y,Y,m,19,
53,9,592,4,4,12,['d'],['d'],N,N,None,Y,,,,,Y,Y,m,19,
53,10,593,6,6,12,['d'],['d'],N,Y,None,N,,,,,Y,Y,m,19,
54,0,594,1,1,12,['k'],['k'],N,N,None,Y,,,,,Y,Y,m,19,
54,1,595,10,10,12,['d'],['k'],Y,Y,None,N,,,,,Y,Y,m,19,
54,2,596,1,1,12,['k'],['d'],Y,N,None,Y,,,,,Y,Y,m,19,
54,3,597,8,8,12,['d'],['d'],N,Y,None,N,,,,,Y,Y,m,19,
54,4,598,6,6,12,['k'],['k'],N,N,None,Y,,,,,Y,Y,m,19,
54,5,599,3,3,12,['k'],['d'],Y,Y,None,N,26,28,20,,Y,Y,m,19,
