.thisRepN,.thisTrialN,.thisN,.thisIndex,Block Number,Key pressed,Correct?,Category,Button switch shown?,Actually switched?,Fast?,gender,age
0,0,0,510,1,None,Timed out,,,,,female,20
0,1,1,592,1,['k'],Y,['k'],,,,female,20
0,2,2,293,1,['d'],Y,['d'],,,,female,20
0,3,3,427,1,['k'],Y,['k'],,,,female,20
0,4,4,489,1,['d'],N,['k'],,,,female,20
0,5,5,173,1,['d'],Y,['d'],,,,female,20
0,6,6,475,1,['k'],Y,['k'],,,,female,20
0,7,7,123,1,['d'],Y,['d'],,,,female,20
0,8,8,597,1,['k'],Y,['k'],,,,female,20
0,9,9,503,1,['d'],N,['k'],,,,female,20
0,10,10,434,1,['k'],Y,['k'],,,,female,20
0,11,11,558,1,['d'],N,['k'],,,,female,20
0,12,12,177,1,['k'],N,['d'],,,,female,20
0,13,13,481,1,['d'],N,['k'],,,,female,20
0,14,14,505,1,['d'],N,['k'],,,,female,20
0,15,15,483,1,['k'],Y,['k'],,,,female,20
0,16,16,200,1,['k'],N,['d'],,,,female,20
0,17,17,453,1,['k'],Y,['k'],,,,female,20
0,18,18,571,1,['k'],Y,['k'],,,,female,20
0,19,19,251,1,['d'],Y,['d'],,,,female,20
0,20,20,8,1,['d'],Y,['d'],,,,female,20
0,21,21,206,1,['k'],N,['d'],,,,female,20
0,22,22,586,1,['k'],Y,['k'],,,,female,20
0,23,23,40,1,['d'],Y,['d'],,,,female,20
0,24,24,188,1,['k'],N,['d'],,,,female,20
0,25,25,194,1,['k'],N,['d'],,,,female,20
0,26,26,155,1,['d'],Y,['d'],,,,female,20
0,27,27,491,1,['d'],N,['k'],,,,female,20
0,28,28,330,1,['d'],N,['k'],,,,female,20
0,29,29,364,1,['k'],Y,['k'],,,,female,20
0,30,30,149,1,['k'],N,['d'],,,,female,20
0,31,31,250,1,['d'],Y,['d'],,,,female,20
0,32,32,520,1,['d'],N,['k'],,,,female,20
0,33,33,145,1,['k'],N,['d'],,,,female,20
0,34,34,219,1,['d'],Y,['d'],,,,female,20
0,35,35,165,1,['k'],N,['d'],,,,female,20
0,36,36,12,1,['d'],Y,['d'],,,,female,20
0,37,37,495,1,['d'],N,['k'],,,,female,20
0,38,38,583,1,['k'],Y,['k'],,,,female,20
0,39,39,559,1,['k'],Y,['k'],,,,female,20
0,40,40,515,1,['d'],N,['k'],,,,female,20
0,41,41,63,1,['d'],Y,['d'],,,,female,20
0,42,42,323,1,['d'],N,['k'],,,,female,20
0,43,43,336,1,['d'],N,['k'],,,,female,20
0,44,44,26,1,['k'],N,['d'],,,,female,20
0,45,45,585,1,['k'],Y,['k'],,,,female,20
0,46,46,487,1,['k'],Y,['k'],,,,female,20
0,47,47,297,1,['k'],N,['d'],,,,female,20
0,48,48,263,1,['d'],Y,['d'],,,,female,20
0,49,49,301,1,['d'],N,['k'],,,,female,20
,,,,,,"26, 23, 1",,,,,,
0,50,50,190,2,['k'],N,['d'],,,,female,20
0,51,51,245,2,['k'],N,['d'],,,,female,20
0,52,52,497,2,['d'],N,['k'],,,,female,20
0,53,53,391,2,['k'],Y,['k'],,,,female,20
0,54,54,347,2,['d'],N,['k'],,,,female,20
0,55,55,84,2,['d'],Y,['d'],,,,female,20
0,56,56,501,2,['k'],Y,['k'],,,,female,20
0,57,57,438,2,['k'],Y,['k'],,,,female,20
0,58,58,574,2,['d'],N,['k'],,,,female,20
0,59,59,417,2,['k'],Y,['k'],,,,female,20
0,60,60,590,2,['d'],N,['k'],,,,female,20
0,61,61,562,2,['d'],N,['k'],,,,female,20
0,62,62,262,2,['k'],N,['d'],,,,female,20
0,63,63,58,2,['d'],Y,['d'],,,,female,20
0,64,64,552,2,['k'],Y,['k'],,,,female,20
0,65,65,107,2,['d'],Y,['d'],,,,female,20
0,66,66,271,2,['d'],Y,['d'],,,,female,20
0,67,67,557,2,['d'],N,['k'],,,,female,20
0,68,68,531,2,['k'],Y,['k'],,,,female,20
0,69,69,2,2,['d'],Y,['d'],,,,female,20
0,70,70,211,2,['d'],Y,['d'],,,,female,20
0,71,71,161,2,['d'],Y,['d'],,,,female,20
0,72,72,273,2,['k'],N,['d'],,,,female,20
0,73,73,373,2,['d'],N,['k'],,,,female,20
0,74,74,371,2,['d'],N,['k'],,,,female,20
0,75,75,24,2,['k'],N,['d'],,,,female,20
0,76,76,180,2,['d'],Y,['d'],,,,female,20
0,77,77,410,2,['k'],Y,['k'],,,,female,20
0,78,78,7,2,['d'],Y,['d'],,,,female,20
0,79,79,218,2,['k'],N,['d'],,,,female,20
0,80,80,57,2,['d'],Y,['d'],,,,female,20
0,81,81,119,2,['d'],Y,['d'],,,,female,20
0,82,82,3,2,['k'],N,['d'],,,,female,20
0,83,83,87,2,['d'],Y,['d'],,,,female,20
0,84,84,594,2,['k'],Y,['k'],,,,female,20
0,85,85,168,2,['k'],N,['d'],,,,female,20
0,86,86,21,2,['d'],Y,['d'],,,,female,20
0,87,87,30,2,['k'],N,['d'],,,,female,20
0,88,88,533,2,['k'],Y,['k'],,,,female,20
0,89,89,316,2,['d'],N,['k'],,,,female,20
0,90,90,528,2,['k'],Y,['k'],,,,female,20
0,91,91,431,2,['k'],Y,['k'],,,,female,20
0,92,92,80,2,['d'],Y,['d'],,,,female,20
0,93,93,228,2,['k'],N,['d'],,,,female,20
0,94,94,535,2,['d'],N,['k'],,,,female,20
0,95,95,29,2,['k'],N,['d'],,,,female,20
0,96,96,100,2,['k'],N,['d'],,,,female,20
0,97,97,220,2,['d'],Y,['d'],,,,female,20
0,98,98,181,2,['k'],N,['d'],,,,female,20
0,99,99,544,2,['k'],Y,['k'],,,,female,20
,,,,,,"27, 23",,,,,,
0,100,100,473,3,['k'],Y,['k'],,,,female,20
0,101,101,154,3,['d'],Y,['d'],,,,female,20
0,102,102,508,3,['k'],Y,['k'],,,,female,20
0,103,103,47,3,['d'],Y,['d'],,,,female,20
0,104,104,589,3,['d'],N,['k'],,,,female,20
0,105,105,135,3,['d'],Y,['d'],,,,female,20
0,106,106,512,3,['k'],Y,['k'],,,,female,20
0,107,107,513,3,['k'],Y,['k'],,,,female,20
0,108,108,359,3,['k'],Y,['k'],,,,female,20
0,109,109,74,3,['d'],Y,['d'],,,,female,20
0,110,110,386,3,['k'],Y,['k'],,,,female,20
0,111,111,65,3,['d'],Y,['d'],,,,female,20
0,112,112,36,3,['d'],Y,['d'],,,,female,20
0,113,113,39,3,['d'],Y,['d'],,,,female,20
0,114,114,595,3,['k'],Y,['k'],,,,female,20
0,115,115,428,3,['k'],Y,['k'],,,,female,20
0,116,116,138,3,['d'],Y,['d'],,,,female,20
0,117,117,116,3,['d'],Y,['d'],,,,female,20
0,118,118,311,3,['k'],Y,['k'],,,,female,20
0,119,119,476,3,['k'],Y,['k'],,,,female,20
0,120,120,23,3,['d'],Y,['d'],,,,female,20
0,121,121,472,3,['k'],Y,['k'],,,,female,20
0,122,122,469,3,['k'],Y,['k'],,,,female,20
0,123,123,32,3,['d'],Y,['d'],,,,female,20
0,124,124,193,3,['d'],Y,['d'],,,,female,20
0,125,125,413,3,['k'],Y,['k'],,,,female,20
0,126,126,166,3,['d'],Y,['d'],,,,female,20
0,127,127,418,3,['k'],Y,['k'],,,,female,20
0,128,128,514,3,['k'],Y,['k'],,,,female,20
0,129,129,450,3,['k'],Y,['k'],,,,female,20
0,130,130,507,3,['k'],Y,['k'],,,,female,20
0,131,131,498,3,['k'],Y,['k'],,,,female,20
0,132,132,567,3,['k'],Y,['k'],,,,female,20
0,133,133,148,3,['d'],Y,['d'],,,,female,20
0,134,134,236,3,['d'],Y,['d'],,,,female,20
0,135,135,214,3,['d'],Y,['d'],,,,female,20
0,136,136,422,3,['k'],Y,['k'],,,,female,20
0,137,137,56,3,['d'],Y,['d'],,,,female,20
0,138,138,395,3,['k'],Y,['k'],,,,female,20
0,139,139,283,3,['d'],Y,['d'],,,,female,20
0,140,140,381,3,['k'],Y,['k'],,,,female,20
0,141,141,260,3,['d'],Y,['d'],,,,female,20
0,142,142,174,3,['d'],Y,['d'],,,,female,20
0,143,143,547,3,['k'],Y,['k'],,,,female,20
0,144,144,346,3,['k'],Y,['k'],,,,female,20
0,145,145,115,3,['d'],Y,['d'],,,,female,20
0,146,146,305,3,['k'],Y,['k'],,,,female,20
0,147,147,186,3,['d'],Y,['d'],,,,female,20
0,148,148,446,3,['k'],Y,['k'],,,,female,20
0,149,149,237,3,['d'],Y,['d'],,,,female,20
,,,,,,"49, 1",,,,,,
0,150,150,366,4,['k'],Y,['k'],,,,female,20
0,151,151,399,4,['k'],Y,['k'],,,,female,20
0,152,152,129,4,['d'],Y,['d'],,,,female,20
0,153,153,53,4,['d'],Y,['d'],,,,female,20
0,154,154,144,4,['d'],Y,['d'],,,,female,20
0,155,155,159,4,['d'],Y,['d'],,,,female,20
0,156,156,113,4,['d'],Y,['d'],,,,female,20
0,157,157,269,4,['d'],Y,['d'],,,,female,20
0,158,158,509,4,['k'],Y,['k'],,,,female,20
0,159,159,197,4,['d'],Y,['d'],,,,female,20
0,160,160,530,4,['k'],Y,['k'],,,,female,20
0,161,161,482,4,['k'],Y,['k'],,,,female,20
0,162,162,235,4,['d'],Y,['d'],,,,female,20
0,163,163,302,4,['k'],Y,['k'],,,,female,20
0,164,164,18,4,['d'],Y,['d'],,,,female,20
0,165,165,331,4,['k'],Y,['k'],,,,female,20
0,166,166,421,4,['k'],Y,['k'],,,,female,20
0,167,167,402,4,['k'],Y,['k'],,,,female,20
0,168,168,157,4,['d'],Y,['d'],,,,female,20
0,169,169,112,4,['d'],Y,['d'],,,,female,20
0,170,170,73,4,['d'],Y,['d'],,,,female,20
0,171,171,257,4,['d'],Y,['d'],,,,female,20
0,172,172,321,4,['k'],Y,['k'],,,,female,20
0,173,173,216,4,['d'],Y,['d'],,,,female,20
0,174,174,485,4,['k'],Y,['k'],,,,female,20
0,175,175,126,4,['d'],Y,['d'],,,,female,20
0,176,176,9,4,['k'],N,['d'],,,,female,20
0,177,177,561,4,['k'],Y,['k'],,,,female,20
0,178,178,25,4,['d'],Y,['d'],,,,female,20
0,179,179,104,4,['d'],Y,['d'],,,,female,20
0,180,180,33,4,['d'],Y,['d'],,,,female,20
0,181,181,362,4,['k'],Y,['k'],,,,female,20
0,182,182,202,4,['d'],Y,['d'],,,,female,20
0,183,183,93,4,['d'],Y,['d'],,,,female,20
0,184,184,425,4,['k'],Y,['k'],,,,female,20
0,185,185,248,4,['d'],Y,['d'],,,,female,20
0,186,186,478,4,['k'],Y,['k'],,,,female,20
0,187,187,85,4,['d'],Y,['d'],,,,female,20
0,188,188,52,4,['d'],Y,['d'],,,,female,20
0,189,189,351,4,['k'],Y,['k'],,,,female,20
0,190,190,208,4,['d'],Y,['d'],,,,female,20
0,191,191,143,4,['d'],Y,['d'],,,,female,20
0,192,192,42,4,['d'],Y,['d'],,,,female,20
0,193,193,536,4,['k'],Y,['k'],,,,female,20
0,194,194,83,4,['d'],Y,['d'],,,,female,20
0,195,195,317,4,['k'],Y,['k'],,,,female,20
0,196,196,306,4,['d'],N,['k'],,,,female,20
0,197,197,374,4,['d'],N,['k'],,,,female,20
0,198,198,465,4,['k'],Y,['k'],,,,female,20
0,199,199,553,4,['k'],Y,['k'],,,,female,20
,,,,,,"47, 3",,,,,,
0,200,200,339,5,['k'],Y,['k'],,,,female,20
0,201,201,178,5,['d'],Y,['d'],,,,female,20
0,202,202,0,5,['d'],Y,['d'],,,,female,20
0,203,203,388,5,['k'],Y,['k'],,,,female,20
0,204,204,77,5,['d'],Y,['d'],,,,female,20
0,205,205,365,5,['k'],Y,['k'],,,,female,20
0,206,206,412,5,['k'],Y,['k'],,,,female,20
0,207,207,295,5,['d'],Y,['d'],,,,female,20
0,208,208,139,5,['d'],Y,['d'],,,,female,20
0,209,209,349,5,['k'],Y,['k'],,,,female,20
0,210,210,549,5,['k'],Y,['k'],,,,female,20
0,211,211,164,5,['d'],Y,['d'],,,,female,20
0,212,212,160,5,['d'],Y,['d'],,,,female,20
0,213,213,480,5,['k'],Y,['k'],,,,female,20
0,214,214,191,5,['d'],Y,['d'],,,,female,20
0,215,215,454,5,['k'],Y,['k'],,,,female,20
0,216,216,397,5,['k'],Y,['k'],,,,female,20
0,217,217,118,5,['d'],Y,['d'],,,,female,20
0,218,218,479,5,['k'],Y,['k'],,,,female,20
0,219,219,285,5,['d'],Y,['d'],,,,female,20
0,220,220,313,5,['k'],Y,['k'],,,,female,20
0,221,221,225,5,['d'],Y,['d'],,,,female,20
0,222,222,493,5,['k'],Y,['k'],,,,female,20
0,223,223,565,5,['d'],N,['k'],,,,female,20
0,224,224,447,5,['k'],Y,['k'],,,,female,20
0,225,225,78,5,['d'],Y,['d'],,,,female,20
0,226,226,521,5,['k'],Y,['k'],,,,female,20
0,227,227,69,5,['d'],Y,['d'],,,,female,20
0,228,228,99,5,['d'],Y,['d'],,,,female,20
0,229,229,378,5,['k'],Y,['k'],,,,female,20
0,230,230,499,5,['k'],Y,['k'],,,,female,20
0,231,231,86,5,['d'],Y,['d'],,,,female,20
0,232,232,414,5,['k'],Y,['k'],,,,female,20
0,233,233,369,5,['k'],Y,['k'],,,,female,20
0,234,234,185,5,['d'],Y,['d'],,,,female,20
0,235,235,261,5,['d'],Y,['d'],,,,female,20
0,236,236,172,5,['d'],Y,['d'],,,,female,20
0,237,237,502,5,['k'],Y,['k'],,,,female,20
0,238,238,176,5,['d'],Y,['d'],,,,female,20
0,239,239,337,5,['k'],Y,['k'],,,,female,20
0,240,240,136,5,['d'],Y,['d'],,,,female,20
0,241,241,569,5,['k'],Y,['k'],,,,female,20
0,242,242,393,5,['k'],Y,['k'],,,,female,20
0,243,243,55,5,['d'],Y,['d'],,,,female,20
0,244,244,449,5,['k'],Y,['k'],,,,female,20
0,245,245,474,5,['k'],Y,['k'],,,,female,20
0,246,246,435,5,['k'],Y,['k'],,,,female,20
0,247,247,551,5,['k'],Y,['k'],,,,female,20
0,248,248,102,5,['d'],Y,['d'],,,,female,20
0,249,249,222,5,['d'],Y,['d'],,,,female,20
,,,,,,"49, 1",,,,,,
0,250,250,171,6,['d'],Y,['d'],,,,female,20
0,251,251,167,6,['d'],Y,['d'],,,,female,20
0,252,252,1,6,['d'],Y,['d'],,,,female,20
0,253,253,423,6,['k'],Y,['k'],,,,female,20
0,254,254,598,6,['d'],N,['k'],,,,female,20
0,255,255,455,6,['k'],Y,['k'],,,,female,20
0,256,256,91,6,['d'],Y,['d'],,,,female,20
0,257,257,463,6,['k'],Y,['k'],,,,female,20
0,258,258,596,6,['k'],Y,['k'],,,,female,20
0,259,259,353,6,['k'],Y,['k'],,,,female,20
0,260,260,153,6,['d'],Y,['d'],,,,female,20
0,261,261,400,6,['k'],Y,['k'],,,,female,20
0,262,262,92,6,['d'],Y,['d'],,,,female,20
0,263,263,593,6,['k'],Y,['k'],,,,female,20
0,264,264,81,6,['d'],Y,['d'],,,,female,20
0,265,265,88,6,['d'],Y,['d'],,,,female,20
0,266,266,291,6,['d'],Y,['d'],,,,female,20
0,267,267,121,6,['d'],Y,['d'],,,,female,20
0,268,268,130,6,['d'],Y,['d'],,,,female,20
0,269,269,345,6,['k'],Y,['k'],,,,female,20
0,270,270,270,6,['d'],Y,['d'],,,,female,20
0,271,271,175,6,['d'],Y,['d'],,,,female,20
0,272,272,258,6,['d'],Y,['d'],,,,female,20
0,273,273,343,6,['k'],Y,['k'],,,,female,20
0,274,274,51,6,['k'],N,['d'],,,,female,20
0,275,275,289,6,['d'],Y,['d'],,,,female,20
0,276,276,334,6,['k'],Y,['k'],,,,female,20
0,277,277,560,6,['k'],Y,['k'],,,,female,20
0,278,278,325,6,['k'],Y,['k'],,,,female,20
0,279,279,234,6,['d'],Y,['d'],,,,female,20
0,280,280,468,6,['k'],Y,['k'],,,,female,20
0,281,281,34,6,['d'],Y,['d'],,,,female,20
0,282,282,314,6,['k'],Y,['k'],,,,female,20
0,283,283,204,6,['d'],Y,['d'],,,,female,20
0,284,284,48,6,['d'],Y,['d'],,,,female,20
0,285,285,151,6,['d'],Y,['d'],,,,female,20
0,286,286,256,6,['d'],Y,['d'],,,,female,20
0,287,287,229,6,['d'],Y,['d'],,,,female,20
0,288,288,96,6,['d'],Y,['d'],,,,female,20
0,289,289,227,6,['d'],Y,['d'],,,,female,20
0,290,290,406,6,['k'],Y,['k'],,,,female,20
0,291,291,132,6,['d'],Y,['d'],,,,female,20
0,292,292,572,6,['k'],Y,['k'],,,,female,20
0,293,293,46,6,['d'],Y,['d'],,,,female,20
0,294,294,563,6,['k'],Y,['k'],,,,female,20
0,295,295,342,6,['k'],Y,['k'],,,,female,20
0,296,296,294,6,['d'],Y,['d'],,,,female,20
0,297,297,31,6,['d'],Y,['d'],,,,female,20
0,298,298,357,6,['d'],N,['k'],,,,female,20
0,299,299,184,6,['d'],Y,['d'],,,,female,20
,,,,,,"47, 3",,,,,,
0,300,300,540,7,['k'],Y,['k'],,,,female,20
0,301,301,525,7,['k'],Y,['k'],,,,female,20
0,302,302,64,7,['d'],Y,['d'],,,,female,20
0,303,303,385,7,['k'],Y,['k'],,,,female,20
0,304,304,309,7,['k'],Y,['k'],,,,female,20
0,305,305,581,7,['k'],Y,['k'],,,,female,20
0,306,306,416,7,['k'],Y,['k'],,,,female,20
0,307,307,580,7,['k'],Y,['k'],,,,female,20
0,308,308,486,7,['k'],Y,['k'],,,,female,20
0,309,309,152,7,['d'],Y,['d'],,,,female,20
0,310,310,35,7,['d'],Y,['d'],,,,female,20
0,311,311,127,7,['d'],Y,['d'],,,,female,20
0,312,312,238,7,['d'],Y,['d'],,,,female,20
0,313,313,5,7,['d'],Y,['d'],,,,female,20
0,314,314,570,7,['d'],N,['k'],,,,female,20
0,315,315,170,7,['d'],Y,['d'],,,,female,20
0,316,316,66,7,['d'],Y,['d'],,,,female,20
0,317,317,278,7,['d'],Y,['d'],,,,female,20
0,318,318,189,7,['d'],Y,['d'],,,,female,20
0,319,319,392,7,['k'],Y,['k'],,,,female,20
0,320,320,484,7,['k'],Y,['k'],,,,female,20
0,321,321,286,7,['d'],Y,['d'],,,,female,20
0,322,322,426,7,['k'],Y,['k'],,,,female,20
0,323,323,458,7,['k'],Y,['k'],,,,female,20
0,324,324,403,7,['d'],N,['k'],,,,female,20
0,325,325,125,7,['d'],Y,['d'],,,,female,20
0,326,326,224,7,['d'],Y,['d'],,,,female,20
0,327,327,199,7,['d'],Y,['d'],,,,female,20
0,328,328,518,7,['k'],Y,['k'],,,,female,20
0,329,329,389,7,['k'],Y,['k'],,,,female,20
0,330,330,61,7,['d'],Y,['d'],,,,female,20
0,331,331,384,7,['k'],Y,['k'],,,,female,20
0,332,332,471,7,['k'],Y,['k'],,,,female,20
0,333,333,575,7,['k'],Y,['k'],,,,female,20
0,334,334,95,7,['d'],Y,['d'],,,,female,20
0,335,335,308,7,['k'],Y,['k'],,,,female,20
0,336,336,292,7,['d'],Y,['d'],,,,female,20
0,337,337,541,7,['k'],Y,['k'],,,,female,20
0,338,338,467,7,['k'],Y,['k'],,,,female,20
0,339,339,266,7,['d'],Y,['d'],,,,female,20
0,340,340,448,7,['k'],Y,['k'],,,,female,20
0,341,341,290,7,['d'],Y,['d'],,,,female,20
0,342,342,350,7,['k'],Y,['k'],,,,female,20
0,343,343,98,7,['d'],Y,['d'],,,,female,20
0,344,344,548,7,['k'],Y,['k'],,,,female,20
0,345,345,496,7,['k'],Y,['k'],,,,female,20
0,346,346,19,7,['d'],Y,['d'],,,,female,20
0,347,347,511,7,['k'],Y,['k'],,,,female,20
0,348,348,54,7,['d'],Y,['d'],,,,female,20
0,349,349,6,7,['d'],Y,['d'],,,,female,20
,,,,,,"48, 2",,,,,,
0,350,350,162,8,['d'],Y,['d'],,,,female,20
0,351,351,11,8,['d'],Y,['d'],,,,female,20
0,352,352,477,8,['k'],Y,['k'],,,,female,20
0,353,353,344,8,['k'],Y,['k'],,,,female,20
0,354,354,456,8,['k'],Y,['k'],,,,female,20
0,355,355,526,8,['k'],Y,['k'],,,,female,20
0,356,356,4,8,['d'],Y,['d'],,,,female,20
0,357,357,341,8,['k'],Y,['k'],,,,female,20
0,358,358,37,8,['d'],Y,['d'],,,,female,20
0,359,359,582,8,['k'],Y,['k'],,,,female,20
0,360,360,376,8,['k'],Y,['k'],,,,female,20
0,361,361,10,8,['d'],Y,['d'],,,,female,20
0,362,362,82,8,['d'],Y,['d'],,,,female,20
0,363,363,279,8,['d'],Y,['d'],,,,female,20
0,364,364,240,8,['d'],Y,['d'],,,,female,20
0,365,365,516,8,['k'],Y,['k'],,,,female,20
0,366,366,534,8,['k'],Y,['k'],,,,female,20
0,367,367,396,8,['k'],Y,['k'],,,,female,20
0,368,368,43,8,['d'],Y,['d'],,,,female,20
0,369,369,27,8,['d'],Y,['d'],,,,female,20
0,370,370,120,8,['d'],Y,['d'],,,,female,20
0,371,371,328,8,['k'],Y,['k'],,,,female,20
0,372,372,192,8,['d'],Y,['d'],,,,female,20
0,373,373,420,8,['k'],Y,['k'],,,,female,20
0,374,374,433,8,['d'],N,['k'],,,,female,20
0,375,375,415,8,['k'],Y,['k'],,,,female,20
0,376,376,579,8,['k'],Y,['k'],,,,female,20
0,377,377,70,8,['d'],Y,['d'],,,,female,20
0,378,378,584,8,['k'],Y,['k'],,,,female,20
0,379,379,443,8,['k'],Y,['k'],,,,female,20
0,380,380,380,8,['k'],Y,['k'],,,,female,20
0,381,381,79,8,['d'],Y,['d'],,,,female,20
0,382,382,90,8,['d'],Y,['d'],,,,female,20
0,383,383,287,8,['d'],Y,['d'],,,,female,20
0,384,384,430,8,['k'],Y,['k'],,,,female,20
0,385,385,284,8,['d'],Y,['d'],,,,female,20
0,386,386,429,8,['k'],Y,['k'],,,,female,20
0,387,387,300,8,['k'],Y,['k'],,,,female,20
0,388,388,578,8,['k'],Y,['k'],,,,female,20
0,389,389,252,8,['k'],N,['d'],,,,female,20
0,390,390,318,8,['k'],Y,['k'],,,,female,20
0,391,391,226,8,['d'],Y,['d'],,,,female,20
0,392,392,587,8,['k'],Y,['k'],,,,female,20
0,393,393,303,8,['k'],Y,['k'],,,,female,20
0,394,394,45,8,['d'],Y,['d'],,,,female,20
0,395,395,445,8,['k'],Y,['k'],,,,female,20
0,396,396,363,8,['k'],Y,['k'],,,,female,20
0,397,397,555,8,['k'],Y,['k'],,,,female,20
0,398,398,539,8,['k'],Y,['k'],,,,female,20
0,399,399,383,8,['k'],Y,['k'],,,,female,20
,,,,,,"48, 2",,,,,,
0,400,400,464,9,['k'],Y,['k'],,,,female,20
0,401,401,20,9,['d'],Y,['d'],,,,female,20
0,402,402,255,9,['d'],Y,['d'],,,,female,20
0,403,403,106,9,['d'],Y,['d'],,,,female,20
0,404,404,527,9,['k'],Y,['k'],,,,female,20
0,405,405,179,9,['d'],Y,['d'],,,,female,20
0,406,406,253,9,['d'],Y,['d'],,,,female,20
0,407,407,217,9,['d'],Y,['d'],,,,female,20
0,408,408,320,9,['k'],Y,['k'],,,,female,20
0,409,409,267,9,['d'],Y,['d'],,,,female,20
0,410,410,212,9,['d'],Y,['d'],,,,female,20
0,411,411,440,9,['k'],Y,['k'],,,,female,20
0,412,412,246,9,['d'],Y,['d'],,,,female,20
0,413,413,419,9,['k'],Y,['k'],,,,female,20
0,414,414,542,9,['k'],Y,['k'],,,,female,20
0,415,415,142,9,['d'],Y,['d'],,,,female,20
0,416,416,75,9,['d'],Y,['d'],,,,female,20
0,417,417,158,9,['d'],Y,['d'],,,,female,20
0,418,418,117,9,['d'],Y,['d'],,,,female,20
0,419,419,282,9,['d'],Y,['d'],,,,female,20
0,420,420,230,9,['d'],Y,['d'],,,,female,20
0,421,421,319,9,['k'],Y,['k'],,,,female,20
0,422,422,329,9,['k'],Y,['k'],,,,female,20
0,423,423,111,9,['d'],Y,['d'],,,,female,20
0,424,424,370,9,['k'],Y,['k'],,,,female,20
0,425,425,134,9,['d'],Y,['d'],,,,female,20
0,426,426,576,9,['k'],Y,['k'],,,,female,20
0,427,427,137,9,['d'],Y,['d'],,,,female,20
0,428,428,156,9,['d'],Y,['d'],,,,female,20
0,429,429,247,9,['d'],Y,['d'],,,,female,20
0,430,430,296,9,['d'],Y,['d'],,,,female,20
0,431,431,67,9,['d'],Y,['d'],,,,female,20
0,432,432,573,9,['k'],Y,['k'],,,,female,20
0,433,433,140,9,['d'],Y,['d'],,,,female,20
0,434,434,466,9,['k'],Y,['k'],,,,female,20
0,435,435,72,9,['d'],Y,['d'],,,,female,20
0,436,436,105,9,['d'],Y,['d'],,,,female,20
0,437,437,60,9,['d'],Y,['d'],,,,female,20
0,438,438,209,9,['d'],Y,['d'],,,,female,20
0,439,439,436,9,['k'],Y,['k'],,,,female,20
0,440,440,439,9,['k'],Y,['k'],,,,female,20
0,441,441,68,9,['d'],Y,['d'],,,,female,20
0,442,442,394,9,['k'],Y,['k'],,,,female,20
0,443,443,28,9,['d'],Y,['d'],,,,female,20
0,444,444,59,9,['d'],Y,['d'],,,,female,20
0,445,445,409,9,['k'],Y,['k'],,,,female,20
0,446,446,375,9,['k'],Y,['k'],,,,female,20
0,447,447,348,9,['k'],Y,['k'],,,,female,20
0,448,448,307,9,['k'],Y,['k'],,,,female,20
0,449,449,310,9,['k'],Y,['k'],,,,female,20
,,,,,,50,,,,,,
0,450,450,361,10,['k'],Y,['k'],,,,female,20
0,451,451,424,10,['k'],Y,['k'],,,,female,20
0,452,452,221,10,['d'],Y,['d'],,,,female,20
0,453,453,326,10,['d'],N,['k'],,,,female,20
0,454,454,442,10,['k'],Y,['k'],,,,female,20
0,455,455,274,10,['d'],Y,['d'],,,,female,20
0,456,456,568,10,['k'],Y,['k'],,,,female,20
0,457,457,537,10,['k'],Y,['k'],,,,female,20
0,458,458,264,10,['d'],Y,['d'],,,,female,20
0,459,459,332,10,['k'],Y,['k'],,,,female,20
0,460,460,543,10,['k'],Y,['k'],,,,female,20
0,461,461,169,10,['d'],Y,['d'],,,,female,20
0,462,462,577,10,['k'],Y,['k'],,,,female,20
0,463,463,312,10,['k'],Y,['k'],,,,female,20
0,464,464,22,10,['d'],Y,['d'],,,,female,20
0,465,465,244,10,['d'],Y,['d'],,,,female,20
0,466,466,360,10,['k'],Y,['k'],,,,female,20
0,467,467,356,10,['k'],Y,['k'],,,,female,20
0,468,468,488,10,['k'],Y,['k'],,,,female,20
0,469,469,451,10,['k'],Y,['k'],,,,female,20
0,470,470,141,10,['d'],Y,['d'],,,,female,20
0,471,471,213,10,['d'],Y,['d'],,,,female,20
0,472,472,550,10,['k'],Y,['k'],,,,female,20
0,473,473,298,10,['d'],Y,['d'],,,,female,20
0,474,474,315,10,['k'],Y,['k'],,,,female,20
0,475,475,13,10,['d'],Y,['d'],,,,female,20
0,476,476,122,10,['k'],N,['d'],,,,female,20
0,477,477,205,10,['d'],Y,['d'],,,,female,20
0,478,478,241,10,['d'],Y,['d'],,,,female,20
0,479,479,231,10,['d'],Y,['d'],,,,female,20
0,480,480,14,10,['d'],Y,['d'],,,,female,20
0,481,481,147,10,['d'],Y,['d'],,,,female,20
0,482,482,460,10,['k'],Y,['k'],,,,female,20
0,483,483,367,10,['d'],N,['k'],,,,female,20
0,484,484,49,10,['d'],Y,['d'],,,,female,20
0,485,485,304,10,['k'],Y,['k'],,,,female,20
0,486,486,210,10,['d'],Y,['d'],,,,female,20
0,487,487,379,10,['k'],Y,['k'],,,,female,20
0,488,488,150,10,['d'],Y,['d'],,,,female,20
0,489,489,519,10,['k'],Y,['k'],,,,female,20
0,490,490,372,10,['k'],Y,['k'],,,,female,20
0,491,491,405,10,['k'],Y,['k'],,,,female,20
0,492,492,38,10,['d'],Y,['d'],,,,female,20
0,493,493,223,10,['d'],Y,['d'],,,,female,20
0,494,494,545,10,['k'],Y,['k'],,,,female,20
0,495,495,239,10,['d'],Y,['d'],,,,female,20
0,496,496,461,10,['k'],Y,['k'],,,,female,20
0,497,497,452,10,['k'],Y,['k'],,,,female,20
0,498,498,15,10,['d'],Y,['d'],,,,female,20
0,499,499,233,10,['d'],Y,['d'],,,,female,20
,,,,,,"47, 3",,,,,,
0,500,500,556,11,None,Timed out,,Y,Y,Y,female,20
0,501,501,110,11,['k'],Y,['d'],,Y,Y,female,20
0,502,502,382,11,['k'],N,['k'],,Y,Y,female,20
0,503,503,390,11,['k'],N,['k'],,Y,Y,female,20
0,504,504,207,11,['d'],N,['d'],,Y,Y,female,20
0,505,505,124,11,['k'],Y,['d'],,Y,Y,female,20
0,506,506,588,11,['d'],Y,['k'],,Y,Y,female,20
0,507,507,195,11,['k'],Y,['d'],,Y,Y,female,20
0,508,508,275,11,['k'],Y,['d'],,Y,Y,female,20
0,509,509,62,11,['k'],Y,['d'],,Y,Y,female,20
0,510,510,103,11,['k'],Y,['d'],,Y,Y,female,20
0,511,511,377,11,['d'],Y,['k'],,Y,Y,female,20
0,512,512,444,11,['d'],Y,['k'],,Y,Y,female,20
0,513,513,492,11,['d'],Y,['k'],,Y,Y,female,20
0,514,514,201,11,['k'],Y,['d'],,Y,Y,female,20
0,515,515,146,11,['k'],Y,['d'],,Y,Y,female,20
0,516,516,89,11,['k'],Y,['d'],,Y,Y,female,20
0,517,517,352,11,['d'],Y,['k'],,Y,Y,female,20
0,518,518,335,11,['d'],Y,['k'],,Y,Y,female,20
0,519,519,408,11,['d'],Y,['k'],,Y,Y,female,20
0,520,520,272,11,['k'],Y,['d'],,Y,Y,female,20
0,521,521,470,11,['d'],Y,['k'],,Y,Y,female,20
0,522,522,407,11,['d'],Y,['k'],,Y,Y,female,20
0,523,523,187,11,['k'],Y,['d'],,Y,Y,female,20
0,524,524,198,11,['k'],Y,['d'],,Y,Y,female,20
0,525,525,254,11,['k'],Y,['d'],,Y,Y,female,20
0,526,526,101,11,['k'],Y,['d'],,Y,Y,female,20
0,527,527,564,11,['d'],Y,['k'],,Y,Y,female,20
0,528,528,108,11,['k'],Y,['d'],,Y,Y,female,20
0,529,529,523,11,['d'],Y,['k'],,Y,Y,female,20
0,530,530,529,11,['k'],N,['k'],,Y,Y,female,20
0,531,531,131,11,None,Timed out,,,Y,Y,female,20
0,532,532,268,11,['k'],Y,['d'],,Y,Y,female,20
0,533,533,277,11,['k'],Y,['d'],,Y,Y,female,20
0,534,534,522,11,['k'],N,['k'],,Y,Y,female,20
0,535,535,441,11,['d'],Y,['k'],,Y,Y,female,20
0,536,536,94,11,['k'],Y,['d'],,Y,Y,female,20
0,537,537,281,11,['k'],Y,['d'],,Y,Y,female,20
0,538,538,333,11,['d'],Y,['k'],,Y,Y,female,20
0,539,539,490,11,['d'],Y,['k'],,Y,Y,female,20
0,540,540,17,11,['k'],Y,['d'],,Y,Y,female,20
0,541,541,50,11,['k'],Y,['d'],,Y,Y,female,20
0,542,542,538,11,['d'],Y,['k'],,Y,Y,female,20
0,543,543,459,11,['d'],Y,['k'],,Y,Y,female,20
0,544,544,437,11,['d'],Y,['k'],,Y,Y,female,20
0,545,545,327,11,['d'],Y,['k'],,Y,Y,female,20
0,546,546,387,11,['d'],Y,['k'],,Y,Y,female,20
0,547,547,109,11,['k'],Y,['d'],,Y,Y,female,20
0,548,548,494,11,['d'],Y,['k'],,Y,Y,female,20
0,549,549,591,11,['d'],Y,['k'],,Y,Y,female,20
,,,,,,"43, 5, 2",,,,,,
0,550,550,532,12,['d'],Y,['k'],,Y,Y,female,20
0,551,551,500,12,['d'],Y,['k'],,Y,Y,female,20
0,552,552,299,12,['k'],Y,['d'],,Y,Y,female,20
0,553,553,368,12,['d'],Y,['k'],,Y,Y,female,20
0,554,554,97,12,['k'],Y,['d'],,Y,Y,female,20
0,555,555,259,12,['k'],Y,['d'],,Y,Y,female,20
0,556,556,324,12,['d'],Y,['k'],,Y,Y,female,20
0,557,557,243,12,['k'],Y,['d'],,Y,Y,female,20
0,558,558,280,12,['k'],Y,['d'],,Y,Y,female,20
0,559,559,340,12,['d'],Y,['k'],,Y,Y,female,20
0,560,560,322,12,['d'],Y,['k'],,Y,Y,female,20
0,561,561,196,12,['k'],Y,['d'],,Y,Y,female,20
0,562,562,215,12,['d'],N,['d'],,Y,Y,female,20
0,563,563,41,12,['k'],Y,['d'],,Y,Y,female,20
0,564,564,599,12,['d'],Y,['k'],,Y,Y,female,20
0,565,565,249,12,['k'],Y,['d'],,Y,Y,female,20
0,566,566,432,12,['d'],Y,['k'],,Y,Y,female,20
0,567,567,398,12,['d'],Y,['k'],,Y,Y,female,20
0,568,568,265,12,['k'],Y,['d'],,Y,Y,female,20
0,569,569,163,12,['k'],Y,['d'],,Y,Y,female,20
0,570,570,462,12,['k'],N,['k'],,Y,Y,female,20
0,571,571,404,12,['d'],Y,['k'],,Y,Y,female,20
0,572,572,288,12,['k'],Y,['d'],,Y,Y,female,20
0,573,573,276,12,['k'],Y,['d'],,Y,Y,female,20
0,574,574,546,12,['d'],Y,['k'],,Y,Y,female,20
0,575,575,358,12,['d'],Y,['k'],,Y,Y,female,20
0,576,576,76,12,['k'],Y,['d'],,Y,Y,female,20
0,577,577,554,12,['d'],Y,['k'],,Y,Y,female,20
0,578,578,338,12,['d'],Y,['k'],,Y,Y,female,20
0,579,579,44,12,['d'],N,['d'],,Y,Y,female,20
0,580,580,242,12,['k'],Y,['d'],,Y,Y,female,20
0,581,581,182,12,['k'],Y,['d'],,Y,Y,female,20
0,582,582,517,12,['d'],Y,['k'],,Y,Y,female,20
0,583,583,128,12,['k'],Y,['d'],,Y,Y,female,20
0,584,584,506,12,['d'],Y,['k'],,Y,Y,female,20
0,585,585,203,12,['k'],Y,['d'],,Y,Y,female,20
0,586,586,524,12,['d'],Y,['k'],,Y,Y,female,20
0,587,587,504,12,['d'],Y,['k'],,Y,Y,female,20
0,588,588,566,12,['d'],Y,['k'],,Y,Y,female,20
0,589,589,114,12,['d'],N,['d'],,Y,Y,female,20
0,590,590,401,12,['d'],Y,['k'],,Y,Y,female,20
0,591,591,232,12,['k'],Y,['d'],,Y,Y,female,20
0,592,592,16,12,['k'],Y,['d'],,Y,Y,female,20
0,593,593,355,12,['d'],Y,['k'],,Y,Y,female,20
0,594,594,457,12,['d'],Y,['k'],,Y,Y,female,20
0,595,595,411,12,['d'],Y,['k'],,Y,Y,female,20
0,596,596,133,12,['k'],Y,['d'],,Y,Y,female,20
0,597,597,183,12,['k'],Y,['d'],,Y,Y,female,20
0,598,598,71,12,['k'],Y,['d'],,Y,Y,female,20
0,599,599,354,12,['d'],Y,['k'],,Y,Y,female,20
,,,,,,"46, 4",,,,,,
