.thisRepN,.thisTrialN,.thisN,.thisIndex,Block Number,Key pressed,Category,Correct?,Button switch shown?,Actually switched?,Fast?,gender,age
0,0,0,334,1,['d'],['k'],N,,,,F,20
0,1,1,41,1,['d'],['d'],Y,,,,F,20
0,2,2,196,1,['k'],['d'],N,,,,F,20
0,3,3,327,1,['k'],['k'],Y,,,,F,20
0,4,4,362,1,['k'],['k'],Y,,,,F,20
0,5,5,5,1,['d'],['d'],Y,,,,F,20
0,6,6,446,1,['d'],['k'],N,,,,F,20
0,7,7,483,1,['d'],['k'],N,,,,F,20
0,8,8,369,1,['d'],['k'],N,,,,F,20
0,9,9,347,1,['k'],['k'],Y,,,,F,20
0,10,10,421,1,['k'],['k'],Y,,,,F,20
0,11,11,577,1,['k'],['k'],Y,,,,F,20
0,12,12,473,1,['k'],['k'],Y,,,,F,20
0,13,13,571,1,['k'],['k'],Y,,,,F,20
0,14,14,403,1,['d'],['k'],N,,,,F,20
0,15,15,195,1,['d'],['d'],Y,,,,F,20
0,16,16,523,1,['k'],['k'],Y,,,,F,20
0,17,17,116,1,['d'],['d'],Y,,,,F,20
0,18,18,562,1,['k'],['k'],Y,,,,F,20
0,19,19,108,1,['d'],['d'],Y,,,,F,20
0,20,20,172,1,['k'],['d'],N,,,,F,20
0,21,21,406,1,['k'],['k'],Y,,,,F,20
0,22,22,443,1,['k'],['k'],Y,,,,F,20
0,23,23,561,1,['k'],['k'],Y,,,,F,20
0,24,24,30,1,['d'],['d'],Y,,,,F,20
0,25,25,326,1,['k'],['k'],Y,,,,F,20
0,26,26,100,1,['d'],['d'],Y,,,,F,20
0,27,27,318,1,['k'],['k'],Y,,,,F,20
0,28,28,339,1,['k'],['k'],Y,,,,F,20
0,29,29,140,1,['d'],['d'],Y,,,,F,20
0,30,30,182,1,['k'],['d'],N,,,,F,20
0,31,31,203,1,['d'],['d'],Y,,,,F,20
0,32,32,564,1,['k'],['k'],Y,,,,F,20
0,33,33,508,1,['k'],['k'],Y,,,,F,20
0,34,34,98,1,['d'],['d'],Y,,,,F,20
0,35,35,271,1,['d'],['d'],Y,,,,F,20
0,36,36,336,1,['k'],['k'],Y,,,,F,20
0,37,37,357,1,['k'],['k'],Y,,,,F,20
0,38,38,308,1,['k'],['k'],Y,,,,F,20
0,39,39,422,1,['k'],['k'],Y,,,,F,20
0,40,40,162,1,['d'],['d'],Y,,,,F,20
0,41,41,423,1,['k'],['k'],Y,,,,F,20
0,42,42,217,1,['d'],['d'],Y,,,,F,20
0,43,43,238,1,['d'],['d'],Y,,,,F,20
0,44,44,576,1,['k'],['k'],Y,,,,F,20
0,45,45,395,1,['k'],['k'],Y,,,,F,20
0,46,46,87,1,['d'],['d'],Y,,,,F,20
0,47,47,322,1,['k'],['k'],Y,,,,F,20
0,48,48,379,1,['k'],['k'],Y,,,,F,20
0,49,49,75,1,['d'],['d'],Y,,,,F,20
,,,,,,,"42, 8",,,,,
0,50,50,32,2,['d'],['d'],Y,,,,F,20
0,51,51,390,2,['k'],['k'],Y,,,,F,20
0,52,52,439,2,['k'],['k'],Y,,,,F,20
0,53,53,288,2,['d'],['d'],Y,,,,F,20
0,54,54,131,2,['d'],['d'],Y,,,,F,20
0,55,55,272,2,['d'],['d'],Y,,,,F,20
0,56,56,214,2,['d'],['d'],Y,,,,F,20
0,57,57,45,2,['d'],['d'],Y,,,,F,20
0,58,58,29,2,['d'],['d'],Y,,,,F,20
0,59,59,316,2,['k'],['k'],Y,,,,F,20
0,60,60,550,2,['k'],['k'],Y,,,,F,20
0,61,61,160,2,['d'],['d'],Y,,,,F,20
0,62,62,52,2,['d'],['d'],Y,,,,F,20
0,63,63,225,2,['d'],['d'],Y,,,,F,20
0,64,64,157,2,['d'],['d'],Y,,,,F,20
0,65,65,235,2,['d'],['d'],Y,,,,F,20
0,66,66,460,2,['k'],['k'],Y,,,,F,20
0,67,67,274,2,['d'],['d'],Y,,,,F,20
0,68,68,588,2,['k'],['k'],Y,,,,F,20
0,69,69,305,2,['k'],['k'],Y,,,,F,20
0,70,70,345,2,['k'],['k'],Y,,,,F,20
0,71,71,252,2,['d'],['d'],Y,,,,F,20
0,72,72,578,2,['k'],['k'],Y,,,,F,20
0,73,73,453,2,['k'],['k'],Y,,,,F,20
0,74,74,538,2,['k'],['k'],Y,,,,F,20
0,75,75,343,2,['k'],['k'],Y,,,,F,20
0,76,76,415,2,['k'],['k'],Y,,,,F,20
0,77,77,219,2,['d'],['d'],Y,,,,F,20
0,78,78,86,2,['d'],['d'],Y,,,,F,20
0,79,79,245,2,['d'],['d'],Y,,,,F,20
0,80,80,105,2,['d'],['d'],Y,,,,F,20
0,81,81,537,2,['k'],['k'],Y,,,,F,20
0,82,82,396,2,['k'],['k'],Y,,,,F,20
0,83,83,471,2,['k'],['k'],Y,,,,F,20
0,84,84,186,2,['d'],['d'],Y,,,,F,20
0,85,85,150,2,['d'],['d'],Y,,,,F,20
0,86,86,153,2,['d'],['d'],Y,,,,F,20
0,87,87,201,2,['d'],['d'],Y,,,,F,20
0,88,88,10,2,['d'],['d'],Y,,,,F,20
0,89,89,572,2,['k'],['k'],Y,,,,F,20
0,90,90,589,2,['k'],['k'],Y,,,,F,20
0,91,91,368,2,['k'],['k'],Y,,,,F,20
0,92,92,97,2,['d'],['d'],Y,,,,F,20
0,93,93,598,2,['k'],['k'],Y,,,,F,20
0,94,94,164,2,['d'],['d'],Y,,,,F,20
0,95,95,408,2,['k'],['k'],Y,,,,F,20
0,96,96,80,2,['d'],['d'],Y,,,,F,20
0,97,97,435,2,['k'],['k'],Y,,,,F,20
0,98,98,81,2,['d'],['d'],Y,,,,F,20
0,99,99,450,2,['k'],['k'],Y,,,,F,20
,,,,,,,50,,,,,
0,100,100,375,3,['k'],['k'],Y,,,,F,20
0,101,101,534,3,['k'],['k'],Y,,,,F,20
0,102,102,321,3,['k'],['k'],Y,,,,F,20
0,103,103,91,3,['d'],['d'],Y,,,,F,20
0,104,104,387,3,['k'],['k'],Y,,,,F,20
0,105,105,466,3,['k'],['k'],Y,,,,F,20
0,106,106,302,3,['k'],['k'],Y,,,,F,20
0,107,107,448,3,['k'],['k'],Y,,,,F,20
0,108,108,141,3,['d'],['d'],Y,,,,F,20
0,109,109,582,3,['k'],['k'],Y,,,,F,20
0,110,110,549,3,['k'],['k'],Y,,,,F,20
0,111,111,419,3,['k'],['k'],Y,,,,F,20
0,112,112,365,3,['k'],['k'],Y,,,,F,20
0,113,113,138,3,['d'],['d'],Y,,,,F,20
0,114,114,335,3,['k'],['k'],Y,,,,F,20
0,115,115,521,3,['k'],['k'],Y,,,,F,20
0,116,116,204,3,['d'],['d'],Y,,,,F,20
0,117,117,282,3,['d'],['d'],Y,,,,F,20
0,118,118,389,3,['k'],['k'],Y,,,,F,20
0,119,119,224,3,['d'],['d'],Y,,,,F,20
0,120,120,193,3,['d'],['d'],Y,,,,F,20
0,121,121,338,3,['k'],['k'],Y,,,,F,20
0,122,122,169,3,['d'],['d'],Y,,,,F,20
0,123,123,398,3,['k'],['k'],Y,,,,F,20
0,124,124,0,3,['d'],['d'],Y,,,,F,20
0,125,125,90,3,['d'],['d'],Y,,,,F,20
0,126,126,287,3,['d'],['d'],Y,,,,F,20
0,127,127,236,3,['d'],['d'],Y,,,,F,20
0,128,128,522,3,['k'],['k'],Y,,,,F,20
0,129,129,380,3,['k'],['k'],Y,,,,F,20
0,130,130,306,3,['k'],['k'],Y,,,,F,20
0,131,131,283,3,['d'],['d'],Y,,,,F,20
0,132,132,183,3,['d'],['d'],Y,,,,F,20
0,133,133,6,3,['d'],['d'],Y,,,,F,20
0,134,134,319,3,['k'],['k'],Y,,,,F,20
0,135,135,144,3,['d'],['d'],Y,,,,F,20
0,136,136,9,3,['k'],['d'],N,,,,F,20
0,137,137,552,3,['k'],['k'],Y,,,,F,20
0,138,138,99,3,['d'],['d'],Y,,,,F,20
0,139,139,452,3,['k'],['k'],Y,,,,F,20
0,140,140,173,3,['d'],['d'],Y,,,,F,20
0,141,141,102,3,['d'],['d'],Y,,,,F,20
0,142,142,498,3,['k'],['k'],Y,,,,F,20
0,143,143,596,3,['k'],['k'],Y,,,,F,20
0,144,144,16,3,['d'],['d'],Y,,,,F,20
0,145,145,128,3,['d'],['d'],Y,,,,F,20
0,146,146,376,3,['k'],['k'],Y,,,,F,20
0,147,147,451,3,['k'],['k'],Y,,,,F,20
0,148,148,478,3,['k'],['k'],Y,,,,F,20
0,149,149,370,3,['k'],['k'],Y,,,,F,20
,,,,,,,49,,,,,
0,150,150,404,4,['k'],['k'],Y,,,,F,20
0,151,151,502,4,['k'],['k'],Y,,,,F,20
0,152,152,104,4,['d'],['d'],Y,,,,F,20
0,153,153,263,4,['d'],['d'],Y,,,,F,20
0,154,154,332,4,['k'],['k'],Y,,,,F,20
0,155,155,579,4,['k'],['k'],Y,,,,F,20
0,156,156,489,4,['k'],['k'],Y,,,,F,20
0,157,157,234,4,['d'],['d'],Y,,,,F,20
0,158,158,324,4,['k'],['k'],Y,,,,F,20
0,159,159,525,4,['k'],['k'],Y,,,,F,20
0,160,160,213,4,['d'],['d'],Y,,,,F,20
0,161,161,515,4,['k'],['k'],Y,,,,F,20
0,162,162,197,4,['d'],['d'],Y,,,,F,20
0,163,163,553,4,['k'],['k'],Y,,,,F,20
0,164,164,163,4,['d'],['d'],Y,,,,F,20
0,165,165,117,4,['d'],['d'],Y,,,,F,20
0,166,166,260,4,['d'],['d'],Y,,,,F,20
0,167,167,348,4,['k'],['k'],Y,,,,F,20
0,168,168,232,4,['d'],['d'],Y,,,,F,20
0,169,169,35,4,['d'],['d'],Y,,,,F,20
0,170,170,101,4,['d'],['d'],Y,,,,F,20
0,171,171,425,4,['k'],['k'],Y,,,,F,20
0,172,172,83,4,['d'],['d'],Y,,,,F,20
0,173,173,499,4,['k'],['k'],Y,,,,F,20
0,174,174,251,4,['d'],['d'],Y,,,,F,20
0,175,175,185,4,['d'],['d'],Y,,,,F,20
0,176,176,463,4,['k'],['k'],Y,,,,F,20
0,177,177,103,4,['d'],['d'],Y,,,,F,20
0,178,178,479,4,['k'],['k'],Y,,,,F,20
0,179,179,136,4,['d'],['d'],Y,,,,F,20
0,180,180,262,4,['d'],['d'],Y,,,,F,20
0,181,181,457,4,['k'],['k'],Y,,,,F,20
0,182,182,551,4,['k'],['k'],Y,,,,F,20
0,183,183,188,4,['d'],['d'],Y,,,,F,20
0,184,184,39,4,['d'],['d'],Y,,,,F,20
0,185,185,107,4,['d'],['d'],Y,,,,F,20
0,186,186,247,4,['d'],['d'],Y,,,,F,20
0,187,187,57,4,['d'],['d'],Y,,,,F,20
0,188,188,229,4,['d'],['d'],Y,,,,F,20
0,189,189,154,4,['d'],['d'],Y,,,,F,20
0,190,190,249,4,['d'],['d'],Y,,,,F,20
0,191,191,355,4,['k'],['k'],Y,,,,F,20
0,192,192,216,4,['d'],['d'],Y,,,,F,20
0,193,193,557,4,['k'],['k'],Y,,,,F,20
0,194,194,134,4,['d'],['d'],Y,,,,F,20
0,195,195,37,4,['d'],['d'],Y,,,,F,20
0,196,196,146,4,['d'],['d'],Y,,,,F,20
0,197,197,356,4,['k'],['k'],Y,,,,F,20
0,198,198,469,4,['k'],['k'],Y,,,,F,20
0,199,199,65,4,['d'],['d'],Y,,,,F,20
,,,,,,,50,,,,,
0,200,200,554,5,['k'],['k'],Y,,,,F,20
0,201,201,570,5,['k'],['k'],Y,,,,F,20
0,202,202,8,5,['d'],['d'],Y,,,,F,20
0,203,203,506,5,['k'],['k'],Y,,,,F,20
0,204,204,594,5,['k'],['k'],Y,,,,F,20
0,205,205,289,5,['d'],['d'],Y,,,,F,20
0,206,206,11,5,['d'],['d'],Y,,,,F,20
0,207,207,24,5,['d'],['d'],Y,,,,F,20
0,208,208,587,5,['k'],['k'],Y,,,,F,20
0,209,209,248,5,['d'],['d'],Y,,,,F,20
0,210,210,511,5,['k'],['k'],Y,,,,F,20
0,211,211,352,5,['k'],['k'],Y,,,,F,20
0,212,212,410,5,['k'],['k'],Y,,,,F,20
0,213,213,293,5,['d'],['d'],Y,,,,F,20
0,214,214,89,5,['d'],['d'],Y,,,,F,20
0,215,215,567,5,['k'],['k'],Y,,,,F,20
0,216,216,137,5,['d'],['d'],Y,,,,F,20
0,217,217,218,5,['d'],['d'],Y,,,,F,20
0,218,218,250,5,['d'],['d'],Y,,,,F,20
0,219,219,509,5,['k'],['k'],Y,,,,F,20
0,220,220,284,5,['d'],['d'],Y,,,,F,20
0,221,221,156,5,['d'],['d'],Y,,,,F,20
0,222,222,413,5,['k'],['k'],Y,,,,F,20
0,223,223,304,5,['k'],['k'],Y,,,,F,20
0,224,224,67,5,['d'],['d'],Y,,,,F,20
0,225,225,264,5,['d'],['d'],Y,,,,F,20
0,226,226,113,5,['d'],['d'],Y,,,,F,20
0,227,227,77,5,['d'],['d'],Y,,,,F,20
0,228,228,51,5,['d'],['d'],Y,,,,F,20
0,229,229,461,5,['k'],['k'],Y,,,,F,20
0,230,230,393,5,['k'],['k'],Y,,,,F,20
0,231,231,226,5,['d'],['d'],Y,,,,F,20
0,232,232,177,5,['d'],['d'],Y,,,,F,20
0,233,233,519,5,['k'],['k'],Y,,,,F,20
0,234,234,342,5,['k'],['k'],Y,,,,F,20
0,235,235,142,5,['d'],['d'],Y,,,,F,20
0,236,236,597,5,['k'],['k'],Y,,,,F,20
0,237,237,340,5,['k'],['k'],Y,,,,F,20
0,238,238,539,5,['k'],['k'],Y,,,,F,20
0,239,239,495,5,['k'],['k'],Y,,,,F,20
0,240,240,43,5,['d'],['d'],Y,,,,F,20
0,241,241,95,5,['d'],['d'],Y,,,,F,20
0,242,242,123,5,['d'],['d'],Y,,,,F,20
0,243,243,124,5,['d'],['d'],Y,,,,F,20
0,244,244,38,5,['d'],['d'],Y,,,,F,20
0,245,245,94,5,['d'],['d'],Y,,,,F,20
0,246,246,510,5,['k'],['k'],Y,,,,F,20
0,247,247,14,5,['d'],['d'],Y,,,,F,20
0,248,248,303,5,['k'],['k'],Y,,,,F,20
0,249,249,455,5,['k'],['k'],Y,,,,F,20
,,,,,,,50,,,,,
0,250,250,178,6,['d'],['d'],Y,,,,F,20
0,251,251,540,6,['k'],['k'],Y,,,,F,20
0,252,252,119,6,['d'],['d'],Y,,,,F,20
0,253,253,58,6,['d'],['d'],Y,,,,F,20
0,254,254,428,6,['k'],['k'],Y,,,,F,20
0,255,255,129,6,['d'],['d'],Y,,,,F,20
0,256,256,487,6,['k'],['k'],Y,,,,F,20
0,257,257,514,6,['k'],['k'],Y,,,,F,20
0,258,258,475,6,['k'],['k'],Y,,,,F,20
0,259,259,294,6,['d'],['d'],Y,,,,F,20
0,260,260,130,6,['d'],['d'],Y,,,,F,20
0,261,261,592,6,['k'],['k'],Y,,,,F,20
0,262,262,440,6,['k'],['k'],Y,,,,F,20
0,263,263,500,6,['k'],['k'],Y,,,,F,20
0,264,264,536,6,['k'],['k'],Y,,,,F,20
0,265,265,266,6,['d'],['d'],Y,,,,F,20
0,266,266,418,6,['k'],['k'],Y,,,,F,20
0,267,267,459,6,['k'],['k'],Y,,,,F,20
0,268,268,533,6,['k'],['k'],Y,,,,F,20
0,269,269,378,6,['k'],['k'],Y,,,,F,20
0,270,270,291,6,['d'],['d'],Y,,,,F,20
0,271,271,492,6,['k'],['k'],Y,,,,F,20
0,272,272,184,6,['d'],['d'],Y,,,,F,20
0,273,273,237,6,['d'],['d'],Y,,,,F,20
0,274,274,121,6,['d'],['d'],Y,,,,F,20
0,275,275,535,6,['k'],['k'],Y,,,,F,20
0,276,276,72,6,['d'],['d'],Y,,,,F,20
0,277,277,315,6,['k'],['k'],Y,,,,F,20
0,278,278,240,6,['d'],['d'],Y,,,,F,20
0,279,279,330,6,['k'],['k'],Y,,,,F,20
0,280,280,444,6,['k'],['k'],Y,,,,F,20
0,281,281,442,6,['k'],['k'],Y,,,,F,20
0,282,282,27,6,['d'],['d'],Y,,,,F,20
0,283,283,337,6,['k'],['k'],Y,,,,F,20
0,284,284,66,6,['d'],['d'],Y,,,,F,20
0,285,285,545,6,['k'],['k'],Y,,,,F,20
0,286,286,411,6,['k'],['k'],Y,,,,F,20
0,287,287,62,6,['d'],['d'],Y,,,,F,20
0,288,288,581,6,['k'],['k'],Y,,,,F,20
0,289,289,296,6,['d'],['d'],Y,,,,F,20
0,290,290,359,6,['k'],['k'],Y,,,,F,20
0,291,291,92,6,['d'],['d'],Y,,,,F,20
0,292,292,114,6,['d'],['d'],Y,,,,F,20
0,293,293,253,6,['d'],['d'],Y,,,,F,20
0,294,294,464,6,['k'],['k'],Y,,,,F,20
0,295,295,34,6,['d'],['d'],Y,,,,F,20
0,296,296,320,6,['k'],['k'],Y,,,,F,20
0,297,297,374,6,['d'],['k'],N,,,,F,20
0,298,298,527,6,['k'],['k'],Y,,,,F,20
0,299,299,520,6,['k'],['k'],Y,,,,F,20
,,,,,,,49,,,,,
0,300,300,412,7,['k'],['k'],Y,,,,F,20
0,301,301,516,7,['k'],['k'],Y,,,,F,20
0,302,302,227,7,['d'],['d'],Y,,,,F,20
0,303,303,328,7,['k'],['k'],Y,,,,F,20
0,304,304,532,7,['k'],['k'],Y,,,,F,20
0,305,305,147,7,['d'],['d'],Y,,,,F,20
0,306,306,311,7,['k'],['k'],Y,,,,F,20
0,307,307,215,7,['d'],['d'],Y,,,,F,20
0,308,308,168,7,['d'],['d'],Y,,,,F,20
0,309,309,349,7,['k'],['k'],Y,,,,F,20
0,310,310,73,7,['d'],['d'],Y,,,,F,20
0,311,311,560,7,['k'],['k'],Y,,,,F,20
0,312,312,556,7,['k'],['k'],Y,,,,F,20
0,313,313,361,7,['k'],['k'],Y,,,,F,20
0,314,314,179,7,['d'],['d'],Y,,,,F,20
0,315,315,593,7,['k'],['k'],Y,,,,F,20
0,316,316,78,7,['d'],['d'],Y,,,,F,20
0,317,317,431,7,['k'],['k'],Y,,,,F,20
0,318,318,566,7,['k'],['k'],Y,,,,F,20
0,319,319,477,7,['k'],['k'],Y,,,,F,20
0,320,320,1,7,['d'],['d'],Y,,,,F,20
0,321,321,574,7,['k'],['k'],Y,,,,F,20
0,322,322,325,7,['k'],['k'],Y,,,,F,20
0,323,323,488,7,['k'],['k'],Y,,,,F,20
0,324,324,55,7,['d'],['d'],Y,,,,F,20
0,325,325,244,7,['d'],['d'],Y,,,,F,20
0,326,326,501,7,['k'],['k'],Y,,,,F,20
0,327,327,381,7,['k'],['k'],Y,,,,F,20
0,328,328,120,7,['d'],['d'],Y,,,,F,20
0,329,329,28,7,['d'],['d'],Y,,,,F,20
0,330,330,181,7,['d'],['d'],Y,,,,F,20
0,331,331,350,7,['k'],['k'],Y,,,,F,20
0,332,332,430,7,['k'],['k'],Y,,,,F,20
0,333,333,476,7,['k'],['k'],Y,,,,F,20
0,334,334,286,7,['d'],['d'],Y,,,,F,20
0,335,335,591,7,['k'],['k'],Y,,,,F,20
0,336,336,386,7,['k'],['k'],Y,,,,F,20
0,337,337,84,7,['d'],['d'],Y,,,,F,20
0,338,338,503,7,['k'],['k'],Y,,,,F,20
0,339,339,494,7,['k'],['k'],Y,,,,F,20
0,340,340,341,7,['k'],['k'],Y,,,,F,20
0,341,341,135,7,['d'],['d'],Y,,,,F,20
0,342,342,484,7,['k'],['k'],Y,,,,F,20
0,343,343,575,7,['k'],['k'],Y,,,,F,20
0,344,344,206,7,['d'],['d'],Y,,,,F,20
0,345,345,299,7,['d'],['d'],Y,,,,F,20
0,346,346,481,7,['k'],['k'],Y,,,,F,20
0,347,347,76,7,['d'],['d'],Y,,,,F,20
0,348,348,110,7,['d'],['d'],Y,,,,F,20
0,349,349,367,7,['k'],['k'],Y,,,,F,20
,,,,,,,50,,,,,
0,350,350,13,8,['d'],['d'],Y,,,,F,20
0,351,351,3,8,['k'],['d'],N,,,,F,20
0,352,352,546,8,['k'],['k'],Y,,,,F,20
0,353,353,60,8,['d'],['d'],Y,,,,F,20
0,354,354,167,8,['d'],['d'],Y,,,,F,20
0,355,355,220,8,['d'],['d'],Y,,,,F,20
0,356,356,279,8,['d'],['d'],Y,,,,F,20
0,357,357,143,8,['d'],['d'],Y,,,,F,20
0,358,358,64,8,['d'],['d'],Y,,,,F,20
0,359,359,20,8,['d'],['d'],Y,,,,F,20
0,360,360,397,8,['k'],['k'],Y,,,,F,20
0,361,361,175,8,['d'],['d'],Y,,,,F,20
0,362,362,222,8,['d'],['d'],Y,,,,F,20
0,363,363,246,8,['d'],['d'],Y,,,,F,20
0,364,364,559,8,['k'],['k'],Y,,,,F,20
0,365,365,269,8,['d'],['d'],Y,,,,F,20
0,366,366,47,8,['d'],['d'],Y,,,,F,20
0,367,367,507,8,['k'],['k'],Y,,,,F,20
0,368,368,569,8,['k'],['k'],Y,,,,F,20
0,369,369,23,8,['d'],['d'],Y,,,,F,20
0,370,370,7,8,['d'],['d'],Y,,,,F,20
0,371,371,96,8,['d'],['d'],Y,,,,F,20
0,372,372,392,8,['k'],['k'],Y,,,,F,20
0,373,373,12,8,['d'],['d'],Y,,,,F,20
0,374,374,212,8,['d'],['d'],Y,,,,F,20
0,375,375,354,8,['k'],['k'],Y,,,,F,20
0,376,376,198,8,['d'],['d'],Y,,,,F,20
0,377,377,257,8,['d'],['d'],Y,,,,F,20
0,378,378,239,8,['d'],['d'],Y,,,,F,20
0,379,379,44,8,['d'],['d'],Y,,,,F,20
0,380,380,191,8,['d'],['d'],Y,,,,F,20
0,381,381,189,8,['d'],['d'],Y,,,,F,20
0,382,382,568,8,['k'],['k'],Y,,,,F,20
0,383,383,281,8,['d'],['d'],Y,,,,F,20
0,384,384,490,8,['k'],['k'],Y,,,,F,20
0,385,385,432,8,['k'],['k'],Y,,,,F,20
0,386,386,402,8,['k'],['k'],Y,,,,F,20
0,387,387,174,8,['d'],['d'],Y,,,,F,20
0,388,388,543,8,['k'],['k'],Y,,,,F,20
0,389,389,290,8,['d'],['d'],Y,,,,F,20
0,390,390,436,8,['k'],['k'],Y,,,,F,20
0,391,391,261,8,['k'],['d'],N,,,,F,20
0,392,392,491,8,['k'],['k'],Y,,,,F,20
0,393,393,19,8,['d'],['d'],Y,,,,F,20
0,394,394,590,8,['k'],['k'],Y,,,,F,20
0,395,395,462,8,['k'],['k'],Y,,,,F,20
0,396,396,277,8,['d'],['d'],Y,,,,F,20
0,397,397,68,8,['d'],['d'],Y,,,,F,20
0,398,398,548,8,['k'],['k'],Y,,,,F,20
0,399,399,563,8,['k'],['k'],Y,,,,F,20
,,,,,,,48,,,,,
0,400,400,524,9,['k'],['k'],Y,,,,F,20
0,401,401,255,9,['d'],['d'],Y,,,,F,20
0,402,402,555,9,['k'],['k'],Y,,,,F,20
0,403,403,118,9,['d'],['d'],Y,,,,F,20
0,404,404,449,9,['k'],['k'],Y,,,,F,20
0,405,405,424,9,['k'],['k'],Y,,,,F,20
0,406,406,573,9,['k'],['k'],Y,,,,F,20
0,407,407,280,9,['d'],['d'],Y,,,,F,20
0,408,408,405,9,['k'],['k'],Y,,,,F,20
0,409,409,161,9,['d'],['d'],Y,,,,F,20
0,410,410,46,9,['d'],['d'],Y,,,,F,20
0,411,411,468,9,['k'],['k'],Y,,,,F,20
0,412,412,295,9,['d'],['d'],Y,,,,F,20
0,413,413,599,9,['k'],['k'],Y,,,,F,20
0,414,414,371,9,['k'],['k'],Y,,,,F,20
0,415,415,358,9,['k'],['k'],Y,,,,F,20
0,416,416,513,9,['k'],['k'],Y,,,,F,20
0,417,417,176,9,['d'],['d'],Y,,,,F,20
0,418,418,364,9,['k'],['k'],Y,,,,F,20
0,419,419,384,9,['k'],['k'],Y,,,,F,20
0,420,420,210,9,['d'],['d'],Y,,,,F,20
0,421,421,268,9,['d'],['d'],Y,,,,F,20
0,422,422,54,9,['d'],['d'],Y,,,,F,20
0,423,423,447,9,['k'],['k'],Y,,,,F,20
0,424,424,297,9,['d'],['d'],Y,,,,F,20
0,425,425,584,9,['k'],['k'],Y,,,,F,20
0,426,426,300,9,['k'],['k'],Y,,,,F,20
0,427,427,79,9,['d'],['d'],Y,,,,F,20
0,428,428,155,9,['d'],['d'],Y,,,,F,20
0,429,429,531,9,['k'],['k'],Y,,,,F,20
0,430,430,111,9,['d'],['d'],Y,,,,F,20
0,431,431,317,9,['k'],['k'],Y,,,,F,20
0,432,432,278,9,['d'],['d'],Y,,,,F,20
0,433,433,363,9,['k'],['k'],Y,,,,F,20
0,434,434,145,9,['d'],['d'],Y,,,,F,20
0,435,435,407,9,['k'],['k'],Y,,,,F,20
0,436,436,133,9,['d'],['d'],Y,,,,F,20
0,437,437,180,9,['d'],['d'],Y,,,,F,20
0,438,438,383,9,['k'],['k'],Y,,,,F,20
0,439,439,166,9,['d'],['d'],Y,,,,F,20
0,440,440,526,9,['k'],['k'],Y,,,,F,20
0,441,441,372,9,['k'],['k'],Y,,,,F,20
0,442,442,36,9,['d'],['d'],Y,,,,F,20
0,443,443,344,9,['k'],['k'],Y,,,,F,20
0,444,444,202,9,['d'],['d'],Y,,,,F,20
0,445,445,265,9,['d'],['d'],Y,,,,F,20
0,446,446,373,9,['d'],['k'],N,,,,F,20
0,447,447,470,9,['k'],['k'],Y,,,,F,20
0,448,448,292,9,['d'],['d'],Y,,,,F,20
0,449,449,486,9,['k'],['k'],Y,,,,F,20
,,,,,,,49,,,,,
0,450,450,434,10,['k'],['k'],Y,,,,F,20
0,451,451,541,10,['k'],['k'],Y,,,,F,20
0,452,452,482,10,['k'],['k'],Y,,,,F,20
0,453,453,429,10,['k'],['k'],Y,,,,F,20
0,454,454,382,10,['k'],['k'],Y,,,,F,20
0,455,455,139,10,['d'],['d'],Y,,,,F,20
0,456,456,106,10,['d'],['d'],Y,,,,F,20
0,457,457,377,10,['k'],['k'],Y,,,,F,20
0,458,458,565,10,['k'],['k'],Y,,,,F,20
0,459,459,465,10,['k'],['k'],Y,,,,F,20
0,460,460,505,10,['k'],['k'],Y,,,,F,20
0,461,461,329,10,['k'],['k'],Y,,,,F,20
0,462,462,391,10,['k'],['k'],Y,,,,F,20
0,463,463,192,10,['d'],['d'],Y,,,,F,20
0,464,464,333,10,['k'],['k'],Y,,,,F,20
0,465,465,273,10,['d'],['d'],Y,,,,F,20
0,466,466,40,10,['d'],['d'],Y,,,,F,20
0,467,467,93,10,['d'],['d'],Y,,,,F,20
0,468,468,586,10,['k'],['k'],Y,,,,F,20
0,469,469,31,10,['d'],['d'],Y,,,,F,20
0,470,470,310,10,['k'],['k'],Y,,,,F,20
0,471,471,409,10,['k'],['k'],Y,,,,F,20
0,472,472,433,10,['k'],['k'],Y,,,,F,20
0,473,473,48,10,['d'],['d'],Y,,,,F,20
0,474,474,346,10,['k'],['k'],Y,,,,F,20
0,475,475,366,10,['k'],['k'],Y,,,,F,20
0,476,476,18,10,['d'],['d'],Y,,,,F,20
0,477,477,148,10,['d'],['d'],Y,,,,F,20
0,478,478,223,10,['d'],['d'],Y,,,,F,20
0,479,479,85,10,['d'],['d'],Y,,,,F,20
0,480,480,109,10,['d'],['d'],Y,,,,F,20
0,481,481,211,10,['d'],['d'],Y,,,,F,20
0,482,482,221,10,['d'],['d'],Y,,,,F,20
0,483,483,241,10,['d'],['d'],Y,,,,F,20
0,484,484,275,10,['d'],['d'],Y,,,,F,20
0,485,485,312,10,['k'],['k'],Y,,,,F,20
0,486,486,200,10,['d'],['d'],Y,,,,F,20
0,487,487,458,10,['k'],['k'],Y,,,,F,20
0,488,488,50,10,['d'],['d'],Y,,,,F,20
0,489,489,88,10,['d'],['d'],Y,,,,F,20
0,490,490,416,10,['k'],['k'],Y,,,,F,20
0,491,491,301,10,['k'],['k'],Y,,,,F,20
0,492,492,22,10,['d'],['d'],Y,,,,F,20
0,493,493,307,10,['k'],['k'],Y,,,,F,20
0,494,494,190,10,['d'],['d'],Y,,,,F,20
0,495,495,426,10,['k'],['k'],Y,,,,F,20
0,496,496,394,10,['k'],['k'],Y,,,,F,20
0,497,497,437,10,['k'],['k'],Y,,,,F,20
0,498,498,276,10,['d'],['d'],Y,,,,F,20
0,499,499,26,10,['d'],['d'],Y,,,,F,20
,,,,,,,50,,,,,
0,500,500,585,11,['d'],['k'],Y,Y,Y,Y,F,20
0,501,501,496,11,['d'],['k'],Y,,Y,Y,F,20
0,502,502,49,11,['k'],['d'],Y,,Y,Y,F,20
0,503,503,313,11,['d'],['k'],Y,,Y,Y,F,20
0,504,504,474,11,['d'],['k'],Y,,Y,Y,F,20
0,505,505,63,11,['k'],['d'],Y,,Y,Y,F,20
0,506,506,517,11,['d'],['k'],Y,,Y,Y,F,20
0,507,507,504,11,['d'],['k'],Y,,Y,Y,F,20
0,508,508,115,11,['k'],['d'],Y,,Y,Y,F,20
0,509,509,298,11,['k'],['d'],Y,,Y,Y,F,20
0,510,510,314,11,['d'],['k'],Y,,Y,Y,F,20
0,511,511,258,11,['k'],['d'],Y,,Y,Y,F,20
0,512,512,21,11,['k'],['d'],Y,,Y,Y,F,20
0,513,513,187,11,['k'],['d'],Y,,Y,Y,F,20
0,514,514,454,11,['d'],['k'],Y,,Y,Y,F,20
0,515,515,170,11,['k'],['d'],Y,,Y,Y,F,20
0,516,516,542,11,['d'],['k'],Y,,Y,Y,F,20
0,517,517,159,11,['k'],['d'],Y,,Y,Y,F,20
0,518,518,149,11,['k'],['d'],Y,,Y,Y,F,20
0,519,519,158,11,['k'],['d'],Y,,Y,Y,F,20
0,520,520,485,11,['d'],['k'],Y,,Y,Y,F,20
0,521,521,228,11,['k'],['d'],Y,,Y,Y,F,20
0,522,522,59,11,['k'],['d'],Y,,Y,Y,F,20
0,523,523,254,11,['k'],['d'],Y,,Y,Y,F,20
0,524,524,420,11,['d'],['k'],Y,,Y,Y,F,20
0,525,525,243,11,['k'],['d'],Y,,Y,Y,F,20
0,526,526,256,11,['k'],['d'],Y,,Y,Y,F,20
0,527,527,417,11,['d'],['k'],Y,,Y,Y,F,20
0,528,528,17,11,['k'],['d'],Y,,Y,Y,F,20
0,529,529,205,11,['k'],['d'],Y,,Y,Y,F,20
0,530,530,125,11,['k'],['d'],Y,,Y,Y,F,20
0,531,531,309,11,['d'],['k'],Y,,Y,Y,F,20
0,532,532,233,11,['k'],['d'],Y,,Y,Y,F,20
0,533,533,353,11,['d'],['k'],Y,,Y,Y,F,20
0,534,534,445,11,['d'],['k'],Y,,Y,Y,F,20
0,535,535,580,11,['d'],['k'],Y,,Y,Y,F,20
0,536,536,547,11,['d'],['k'],Y,,Y,Y,F,20
0,537,537,528,11,['d'],['k'],Y,,Y,Y,F,20
0,538,538,558,11,['d'],['k'],Y,,Y,Y,F,20
0,539,539,70,11,['k'],['d'],Y,,Y,Y,F,20
0,540,540,151,11,['k'],['d'],Y,,Y,Y,F,20
0,541,541,152,11,['k'],['d'],Y,,Y,Y,F,20
0,542,542,4,11,['k'],['d'],Y,,Y,Y,F,20
0,543,543,401,11,['d'],['k'],Y,,Y,Y,F,20
0,544,544,388,11,['d'],['k'],Y,,Y,Y,F,20
0,545,545,331,11,['d'],['k'],Y,,Y,Y,F,20
0,546,546,441,11,['d'],['k'],Y,,Y,Y,F,20
0,547,547,242,11,['k'],['d'],Y,,Y,Y,F,20
0,548,548,351,11,['d'],['k'],Y,,Y,Y,F,20
0,549,549,456,11,['d'],['k'],Y,,Y,Y,F,20
,,,,,,,50,,,,,
0,550,550,82,12,['k'],['d'],Y,,Y,Y,F,20
0,551,551,208,12,['k'],['d'],Y,,Y,Y,F,20
0,552,552,15,12,['k'],['d'],Y,,Y,Y,F,20
0,553,553,518,12,['d'],['k'],Y,,Y,Y,F,20
0,554,554,323,12,['d'],['k'],Y,,Y,Y,F,20
0,555,555,497,12,['d'],['k'],Y,,Y,Y,F,20
0,556,556,530,12,['d'],['k'],Y,,Y,Y,F,20
0,557,557,231,12,['k'],['d'],Y,,Y,Y,F,20
0,558,558,438,12,['d'],['k'],Y,,Y,Y,F,20
0,559,559,385,12,['d'],['k'],Y,,Y,Y,F,20
0,560,560,512,12,['d'],['k'],Y,,Y,Y,F,20
0,561,561,165,12,['d'],['d'],N,,Y,Y,F,20
0,562,562,2,12,['k'],['d'],Y,,Y,Y,F,20
0,563,563,42,12,['k'],['d'],Y,,Y,Y,F,20
0,564,564,199,12,['k'],['d'],Y,,Y,Y,F,20
0,565,565,61,12,['k'],['d'],Y,,Y,Y,F,20
0,566,566,472,12,['d'],['k'],Y,,Y,Y,F,20
0,567,567,69,12,['k'],['d'],Y,,Y,Y,F,20
0,568,568,399,12,['d'],['k'],Y,,Y,Y,F,20
0,569,569,270,12,['k'],['d'],Y,,Y,Y,F,20
0,570,570,112,12,['k'],['d'],Y,,Y,Y,F,20
0,571,571,493,12,['d'],['k'],Y,,Y,Y,F,20
0,572,572,25,12,['k'],['d'],Y,,Y,Y,F,20
0,573,573,480,12,['d'],['k'],Y,,Y,Y,F,20
0,574,574,267,12,['k'],['d'],Y,,Y,Y,F,20
0,575,575,285,12,['k'],['d'],Y,,Y,Y,F,20
0,576,576,360,12,['d'],['k'],Y,,Y,Y,F,20
0,577,577,207,12,['k'],['d'],Y,,Y,Y,F,20
0,578,578,467,12,['d'],['k'],Y,,Y,Y,F,20
0,579,579,74,12,['k'],['d'],Y,,Y,Y,F,20
0,580,580,171,12,['k'],['d'],Y,,Y,Y,F,20
0,581,581,194,12,['k'],['d'],Y,,Y,Y,F,20
0,582,582,122,12,['k'],['d'],Y,,Y,Y,F,20
0,583,583,230,12,['k'],['d'],Y,,Y,Y,F,20
0,584,584,400,12,['d'],['k'],Y,,Y,Y,F,20
0,585,585,53,12,['k'],['d'],Y,,Y,Y,F,20
0,586,586,126,12,['k'],['d'],Y,,Y,Y,F,20
0,587,587,595,12,['d'],['k'],Y,,Y,Y,F,20
0,588,588,544,12,['d'],['k'],Y,,Y,Y,F,20
0,589,589,427,12,['d'],['k'],Y,,Y,Y,F,20
0,590,590,414,12,['d'],['k'],Y,,Y,Y,F,20
0,591,591,71,12,['k'],['d'],Y,,Y,Y,F,20
0,592,592,529,12,['d'],['k'],Y,,Y,Y,F,20
0,593,593,56,12,['k'],['d'],Y,,Y,Y,F,20
0,594,594,127,12,['k'],['d'],Y,,Y,Y,F,20
0,595,595,33,12,['k'],['d'],Y,,Y,Y,F,20
0,596,596,583,12,['d'],['k'],Y,,Y,Y,F,20
0,597,597,132,12,['k'],['d'],Y,,Y,Y,F,20
0,598,598,259,12,['k'],['d'],Y,,Y,Y,F,20
0,599,599,209,12,['k'],['d'],Y,,Y,Y,F,20
,,,,,,,49,,,,,
