.thisRepN,.thisTrialN,.thisN,.thisIndex,Block Number,Key pressed,Category,Correct?,Button switch shown?,Actually switched?,Fast?,gender,age
0,0,0,308,1,['k'],['k'],Y,,,,Female,21
0,1,1,463,1,['d'],['k'],N,,,,Female,21
0,2,2,3,1,['k'],['d'],N,,,,Female,21
0,3,3,557,1,['d'],['k'],N,,,,Female,21
0,4,4,589,1,['k'],['k'],Y,,,,Female,21
0,5,5,147,1,['k'],['d'],N,,,,Female,21
0,6,6,140,1,['d'],['d'],Y,,,,Female,21
0,7,7,419,1,['k'],['k'],Y,,,,Female,21
0,8,8,438,1,['d'],['k'],N,,,,Female,21
0,9,9,407,1,['k'],['k'],Y,,,,Female,21
0,10,10,265,1,['d'],['d'],Y,,,,Female,21
0,11,11,97,1,['k'],['d'],N,,,,Female,21
0,12,12,309,1,['d'],['k'],N,,,,Female,21
0,13,13,66,1,['k'],['d'],N,,,,Female,21
0,14,14,178,1,['k'],['d'],N,,,,Female,21
0,15,15,206,1,['k'],['d'],N,,,,Female,21
0,16,16,383,1,['d'],['k'],N,,,,Female,21
0,17,17,332,1,['k'],['k'],Y,,,,Female,21
0,18,18,273,1,['d'],['d'],Y,,,,Female,21
0,19,19,415,1,['k'],['k'],Y,,,,Female,21
0,20,20,211,1,['k'],['d'],N,,,,Female,21
0,21,21,164,1,['d'],['d'],Y,,,,Female,21
0,22,22,22,1,['k'],['d'],N,,,,Female,21
0,23,23,143,1,['d'],['d'],Y,,,,Female,21
0,24,24,593,1,['k'],['k'],Y,,,,Female,21
0,25,25,51,1,['d'],['d'],Y,,,,Female,21
0,26,26,489,1,['k'],['k'],Y,,,,Female,21
0,27,27,275,1,['d'],['d'],Y,,,,Female,21
0,28,28,526,1,['k'],['k'],Y,,,,Female,21
0,29,29,323,1,['k'],['k'],Y,,,,Female,21
0,30,30,255,1,['d'],['d'],Y,,,,Female,21
0,31,31,519,1,['k'],['k'],Y,,,,Female,21
0,32,32,474,1,['k'],['k'],Y,,,,Female,21
0,33,33,183,1,['d'],['d'],Y,,,,Female,21
0,34,34,69,1,['d'],['d'],Y,,,,Female,21
0,35,35,95,1,['d'],['d'],Y,,,,Female,21
0,36,36,208,1,['k'],['d'],N,,,,Female,21
0,37,37,10,1,['d'],['d'],Y,,,,Female,21
0,38,38,314,1,['k'],['k'],Y,,,,Female,21
0,39,39,315,1,['k'],['k'],Y,,,,Female,21
0,40,40,173,1,['d'],['d'],Y,,,,Female,21
0,41,41,293,1,['d'],['d'],Y,,,,Female,21
0,42,42,204,1,['d'],['d'],Y,,,,Female,21
0,43,43,256,1,['k'],['d'],N,,,,Female,21
0,44,44,379,1,['d'],['k'],N,,,,Female,21
0,45,45,168,1,['d'],['d'],Y,,,,Female,21
0,46,46,199,1,['d'],['d'],Y,,,,Female,21
0,47,47,249,1,['d'],['d'],Y,,,,Female,21
0,48,48,393,1,['k'],['k'],Y,,,,Female,21
0,49,49,488,1,['k'],['k'],Y,,,,Female,21
,,,,,,,"34, 16",,,,,
0,50,50,368,2,['k'],['k'],Y,,,,Female,21
0,51,51,184,2,['d'],['d'],Y,,,,Female,21
0,52,52,388,2,['k'],['k'],Y,,,,Female,21
0,53,53,1,2,['d'],['d'],Y,,,,Female,21
0,54,54,242,2,['d'],['d'],Y,,,,Female,21
0,55,55,272,2,['d'],['d'],Y,,,,Female,21
0,56,56,99,2,['d'],['d'],Y,,,,Female,21
0,57,57,523,2,['k'],['k'],Y,,,,Female,21
0,58,58,299,2,['d'],['d'],Y,,,,Female,21
0,59,59,26,2,['d'],['d'],Y,,,,Female,21
0,60,60,359,2,['k'],['k'],Y,,,,Female,21
0,61,61,43,2,['d'],['d'],Y,,,,Female,21
0,62,62,93,2,['d'],['d'],Y,,,,Female,21
0,63,63,153,2,['d'],['d'],Y,,,,Female,21
0,64,64,346,2,['k'],['k'],Y,,,,Female,21
0,65,65,341,2,['k'],['k'],Y,,,,Female,21
0,66,66,94,2,['d'],['d'],Y,,,,Female,21
0,67,67,571,2,['k'],['k'],Y,,,,Female,21
0,68,68,333,2,['k'],['k'],Y,,,,Female,21
0,69,69,47,2,['d'],['d'],Y,,,,Female,21
0,70,70,386,2,['k'],['k'],Y,,,,Female,21
0,71,71,116,2,['d'],['d'],Y,,,,Female,21
0,72,72,135,2,['d'],['d'],Y,,,,Female,21
0,73,73,481,2,['k'],['k'],Y,,,,Female,21
0,74,74,358,2,['k'],['k'],Y,,,,Female,21
0,75,75,56,2,['d'],['d'],Y,,,,Female,21
0,76,76,397,2,['k'],['k'],Y,,,,Female,21
0,77,77,582,2,['k'],['k'],Y,,,,Female,21
0,78,78,366,2,['k'],['k'],Y,,,,Female,21
0,79,79,411,2,['k'],['k'],Y,,,,Female,21
0,80,80,427,2,['k'],['k'],Y,,,,Female,21
0,81,81,125,2,['d'],['d'],Y,,,,Female,21
0,82,82,92,2,['d'],['d'],Y,,,,Female,21
0,83,83,63,2,['d'],['d'],Y,,,,Female,21
0,84,84,260,2,['d'],['d'],Y,,,,Female,21
0,85,85,251,2,['d'],['d'],Y,,,,Female,21
0,86,86,521,2,['k'],['k'],Y,,,,Female,21
0,87,87,370,2,['k'],['k'],Y,,,,Female,21
0,88,88,201,2,['d'],['d'],Y,,,,Female,21
0,89,89,371,2,['k'],['k'],Y,,,,Female,21
0,90,90,108,2,['d'],['d'],Y,,,,Female,21
0,91,91,28,2,['d'],['d'],Y,,,,Female,21
0,92,92,191,2,['d'],['d'],Y,,,,Female,21
0,93,93,354,2,['k'],['k'],Y,,,,Female,21
0,94,94,527,2,['k'],['k'],Y,,,,Female,21
0,95,95,296,2,['d'],['d'],Y,,,,Female,21
0,96,96,263,2,['d'],['d'],Y,,,,Female,21
0,97,97,544,2,['k'],['k'],Y,,,,Female,21
0,98,98,205,2,['d'],['d'],Y,,,,Female,21
0,99,99,447,2,['k'],['k'],Y,,,,Female,21
,,,,,,,50,,,,,
0,100,100,424,3,['k'],['k'],Y,,,,Female,21
0,101,101,550,3,['k'],['k'],Y,,,,Female,21
0,102,102,44,3,['d'],['d'],Y,,,,Female,21
0,103,103,380,3,['k'],['k'],Y,,,,Female,21
0,104,104,540,3,['k'],['k'],Y,,,,Female,21
0,105,105,349,3,['k'],['k'],Y,,,,Female,21
0,106,106,261,3,['d'],['d'],Y,,,,Female,21
0,107,107,369,3,['k'],['k'],Y,,,,Female,21
0,108,108,203,3,['d'],['d'],Y,,,,Female,21
0,109,109,5,3,['d'],['d'],Y,,,,Female,21
0,110,110,98,3,['d'],['d'],Y,,,,Female,21
0,111,111,234,3,['d'],['d'],Y,,,,Female,21
0,112,112,384,3,['k'],['k'],Y,,,,Female,21
0,113,113,421,3,['k'],['k'],Y,,,,Female,21
0,114,114,569,3,['k'],['k'],Y,,,,Female,21
0,115,115,304,3,['k'],['k'],Y,,,,Female,21
0,116,116,279,3,['d'],['d'],Y,,,,Female,21
0,117,117,240,3,['d'],['d'],Y,,,,Female,21
0,118,118,476,3,['k'],['k'],Y,,,,Female,21
0,119,119,298,3,['d'],['d'],Y,,,,Female,21
0,120,120,453,3,['k'],['k'],Y,,,,Female,21
0,121,121,472,3,['k'],['k'],Y,,,,Female,21
0,122,122,520,3,['k'],['k'],Y,,,,Female,21
0,123,123,55,3,['d'],['d'],Y,,,,Female,21
0,124,124,24,3,['d'],['d'],Y,,,,Female,21
0,125,125,182,3,['d'],['d'],Y,,,,Female,21
0,126,126,80,3,['d'],['d'],Y,,,,Female,21
0,127,127,528,3,['k'],['k'],Y,,,,Female,21
0,128,128,30,3,['d'],['d'],Y,,,,Female,21
0,129,129,11,3,['d'],['d'],Y,,,,Female,21
0,130,130,425,3,['k'],['k'],Y,,,,Female,21
0,131,131,222,3,['d'],['d'],Y,,,,Female,21
0,132,132,294,3,['d'],['d'],Y,,,,Female,21
0,133,133,377,3,['k'],['k'],Y,,,,Female,21
0,134,134,318,3,['k'],['k'],Y,,,,Female,21
0,135,135,248,3,['d'],['d'],Y,,,,Female,21
0,136,136,468,3,['k'],['k'],Y,,,,Female,21
0,137,137,471,3,['k'],['k'],Y,,,,Female,21
0,138,138,36,3,['d'],['d'],Y,,,,Female,21
0,139,139,502,3,['k'],['k'],Y,,,,Female,21
0,140,140,158,3,['d'],['d'],Y,,,,Female,21
0,141,141,395,3,['k'],['k'],Y,,,,Female,21
0,142,142,599,3,['k'],['k'],Y,,,,Female,21
0,143,143,163,3,['d'],['d'],Y,,,,Female,21
0,144,144,352,3,['k'],['k'],Y,,,,Female,21
0,145,145,555,3,['k'],['k'],Y,,,,Female,21
0,146,146,505,3,['k'],['k'],Y,,,,Female,21
0,147,147,410,3,['k'],['k'],Y,,,,Female,21
0,148,148,214,3,['d'],['d'],Y,,,,Female,21
0,149,149,7,3,['d'],['d'],Y,,,,Female,21
,,,,,,,50,,,,,
0,150,150,464,4,['k'],['k'],Y,,,,Female,21
0,151,151,545,4,['k'],['k'],Y,,,,Female,21
0,152,152,152,4,['d'],['d'],Y,,,,Female,21
0,153,153,406,4,['k'],['k'],Y,,,,Female,21
0,154,154,387,4,['k'],['k'],Y,,,,Female,21
0,155,155,104,4,['d'],['d'],Y,,,,Female,21
0,156,156,54,4,['d'],['d'],Y,,,,Female,21
0,157,157,534,4,['k'],['k'],Y,,,,Female,21
0,158,158,513,4,['k'],['k'],Y,,,,Female,21
0,159,159,567,4,['k'],['k'],Y,,,,Female,21
0,160,160,408,4,['k'],['k'],Y,,,,Female,21
0,161,161,350,4,['k'],['k'],Y,,,,Female,21
0,162,162,133,4,['d'],['d'],Y,,,,Female,21
0,163,163,348,4,['k'],['k'],Y,,,,Female,21
0,164,164,65,4,['d'],['d'],Y,,,,Female,21
0,165,165,227,4,['d'],['d'],Y,,,,Female,21
0,166,166,492,4,['k'],['k'],Y,,,,Female,21
0,167,167,281,4,['d'],['d'],Y,,,,Female,21
0,168,168,12,4,['d'],['d'],Y,,,,Female,21
0,169,169,439,4,['k'],['k'],Y,,,,Female,21
0,170,170,361,4,['k'],['k'],Y,,,,Female,21
0,171,171,543,4,['d'],['k'],N,,,,Female,21
0,172,172,138,4,['k'],['d'],N,,,,Female,21
0,173,173,449,4,['d'],['k'],N,,,,Female,21
0,174,174,114,4,['d'],['d'],Y,,,,Female,21
0,175,175,144,4,['d'],['d'],Y,,,,Female,21
0,176,176,458,4,['k'],['k'],Y,,,,Female,21
0,177,177,264,4,['d'],['d'],Y,,,,Female,21
0,178,178,594,4,['k'],['k'],Y,,,,Female,21
0,179,179,363,4,['k'],['k'],Y,,,,Female,21
0,180,180,302,4,['k'],['k'],Y,,,,Female,21
0,181,181,372,4,['k'],['k'],Y,,,,Female,21
0,182,182,360,4,['k'],['k'],Y,,,,Female,21
0,183,183,551,4,['k'],['k'],Y,,,,Female,21
0,184,184,435,4,['k'],['k'],Y,,,,Female,21
0,185,185,259,4,['d'],['d'],Y,,,,Female,21
0,186,186,524,4,['k'],['k'],Y,,,,Female,21
0,187,187,441,4,['k'],['k'],Y,,,,Female,21
0,188,188,536,4,['k'],['k'],Y,,,,Female,21
0,189,189,278,4,['d'],['d'],Y,,,,Female,21
0,190,190,515,4,['k'],['k'],Y,,,,Female,21
0,191,191,75,4,['d'],['d'],Y,,,,Female,21
0,192,192,142,4,['k'],['d'],N,,,,Female,21
0,193,193,493,4,['k'],['k'],Y,,,,Female,21
0,194,194,510,4,['k'],['k'],Y,,,,Female,21
0,195,195,343,4,['k'],['k'],Y,,,,Female,21
0,196,196,595,4,['k'],['k'],Y,,,,Female,21
0,197,197,507,4,['k'],['k'],Y,,,,Female,21
0,198,198,243,4,['d'],['d'],Y,,,,Female,21
0,199,199,331,4,['k'],['k'],Y,,,,Female,21
,,,,,,,"46, 4",,,,,
0,200,200,84,5,['d'],['d'],Y,,,,Female,21
0,201,201,376,5,['k'],['k'],Y,,,,Female,21
0,202,202,134,5,['d'],['d'],Y,,,,Female,21
0,203,203,231,5,['d'],['d'],Y,,,,Female,21
0,204,204,195,5,['d'],['d'],Y,,,,Female,21
0,205,205,86,5,['d'],['d'],Y,,,,Female,21
0,206,206,389,5,['k'],['k'],Y,,,,Female,21
0,207,207,325,5,['k'],['k'],Y,,,,Female,21
0,208,208,113,5,['d'],['d'],Y,,,,Female,21
0,209,209,77,5,['d'],['d'],Y,,,,Female,21
0,210,210,403,5,['k'],['k'],Y,,,,Female,21
0,211,211,316,5,['k'],['k'],Y,,,,Female,21
0,212,212,266,5,['d'],['d'],Y,,,,Female,21
0,213,213,207,5,['d'],['d'],Y,,,,Female,21
0,214,214,9,5,['k'],['d'],N,,,,Female,21
0,215,215,327,5,['k'],['k'],Y,,,,Female,21
0,216,216,319,5,['k'],['k'],Y,,,,Female,21
0,217,217,226,5,['d'],['d'],Y,,,,Female,21
0,218,218,334,5,['k'],['k'],Y,,,,Female,21
0,219,219,381,5,['k'],['k'],Y,,,,Female,21
0,220,220,85,5,['d'],['d'],Y,,,,Female,21
0,221,221,150,5,['d'],['d'],Y,,,,Female,21
0,222,222,428,5,['k'],['k'],Y,,,,Female,21
0,223,223,38,5,['d'],['d'],Y,,,,Female,21
0,224,224,106,5,['d'],['d'],Y,,,,Female,21
0,225,225,538,5,['k'],['k'],Y,,,,Female,21
0,226,226,62,5,['d'],['d'],Y,,,,Female,21
0,227,227,23,5,['d'],['d'],Y,,,,Female,21
0,228,228,258,5,['d'],['d'],Y,,,,Female,21
0,229,229,257,5,['d'],['d'],Y,,,,Female,21
0,230,230,429,5,['k'],['k'],Y,,,,Female,21
0,231,231,289,5,['d'],['d'],Y,,,,Female,21
0,232,232,412,5,['k'],['k'],Y,,,,Female,21
0,233,233,440,5,['k'],['k'],Y,,,,Female,21
0,234,234,244,5,['d'],['d'],Y,,,,Female,21
0,235,235,122,5,['d'],['d'],Y,,,,Female,21
0,236,236,4,5,['d'],['d'],Y,,,,Female,21
0,237,237,494,5,['k'],['k'],Y,,,,Female,21
0,238,238,233,5,['d'],['d'],Y,,,,Female,21
0,239,239,57,5,['d'],['d'],Y,,,,Female,21
0,240,240,215,5,['d'],['d'],Y,,,,Female,21
0,241,241,245,5,['d'],['d'],Y,,,,Female,21
0,242,242,391,5,['k'],['k'],Y,,,,Female,21
0,243,243,213,5,['d'],['d'],Y,,,,Female,21
0,244,244,517,5,['k'],['k'],Y,,,,Female,21
0,245,245,137,5,['d'],['d'],Y,,,,Female,21
0,246,246,127,5,['d'],['d'],Y,,,,Female,21
0,247,247,574,5,['k'],['k'],Y,,,,Female,21
0,248,248,283,5,['k'],['d'],N,,,,Female,21
0,249,249,356,5,['k'],['k'],Y,,,,Female,21
,,,,,,,"48, 2",,,,,
0,250,250,587,6,['k'],['k'],Y,,,,Female,21
0,251,251,166,6,['d'],['d'],Y,,,,Female,21
0,252,252,375,6,['k'],['k'],Y,,,,Female,21
0,253,253,109,6,['d'],['d'],Y,,,,Female,21
0,254,254,417,6,['k'],['k'],Y,,,,Female,21
0,255,255,330,6,['k'],['k'],Y,,,,Female,21
0,256,256,27,6,['d'],['d'],Y,,,,Female,21
0,257,257,401,6,['k'],['k'],Y,,,,Female,21
0,258,258,365,6,['k'],['k'],Y,,,,Female,21
0,259,259,149,6,['d'],['d'],Y,,,,Female,21
0,260,260,269,6,['d'],['d'],Y,,,,Female,21
0,261,261,6,6,['d'],['d'],Y,,,,Female,21
0,262,262,456,6,['k'],['k'],Y,,,,Female,21
0,263,263,19,6,['d'],['d'],Y,,,,Female,21
0,264,264,130,6,['d'],['d'],Y,,,,Female,21
0,265,265,572,6,['k'],['k'],Y,,,,Female,21
0,266,266,124,6,['k'],['d'],N,,,,Female,21
0,267,267,64,6,['d'],['d'],Y,,,,Female,21
0,268,268,353,6,['k'],['k'],Y,,,,Female,21
0,269,269,274,6,['d'],['d'],Y,,,,Female,21
0,270,270,326,6,['k'],['k'],Y,,,,Female,21
0,271,271,37,6,['d'],['d'],Y,,,,Female,21
0,272,272,484,6,['k'],['k'],Y,,,,Female,21
0,273,273,469,6,['k'],['k'],Y,,,,Female,21
0,274,274,119,6,['d'],['d'],Y,,,,Female,21
0,275,275,385,6,['k'],['k'],Y,,,,Female,21
0,276,276,197,6,['d'],['d'],Y,,,,Female,21
0,277,277,559,6,['k'],['k'],Y,,,,Female,21
0,278,278,529,6,['k'],['k'],Y,,,,Female,21
0,279,279,96,6,['d'],['d'],Y,,,,Female,21
0,280,280,102,6,['d'],['d'],Y,,,,Female,21
0,281,281,165,6,['d'],['d'],Y,,,,Female,21
0,282,282,592,6,['k'],['k'],Y,,,,Female,21
0,283,283,497,6,['k'],['k'],Y,,,,Female,21
0,284,284,87,6,['d'],['d'],Y,,,,Female,21
0,285,285,121,6,['d'],['d'],Y,,,,Female,21
0,286,286,480,6,['k'],['k'],Y,,,,Female,21
0,287,287,287,6,['d'],['d'],Y,,,,Female,21
0,288,288,556,6,['k'],['k'],Y,,,,Female,21
0,289,289,15,6,['d'],['d'],Y,,,,Female,21
0,290,290,190,6,['d'],['d'],Y,,,,Female,21
0,291,291,290,6,['d'],['d'],Y,,,,Female,21
0,292,292,548,6,['k'],['k'],Y,,,,Female,21
0,293,293,151,6,['d'],['d'],Y,,,,Female,21
0,294,294,186,6,['d'],['d'],Y,,,,Female,21
0,295,295,224,6,['d'],['d'],Y,,,,Female,21
0,296,296,500,6,['k'],['k'],Y,,,,Female,21
0,297,297,337,6,['k'],['k'],Y,,,,Female,21
0,298,298,90,6,['d'],['d'],Y,,,,Female,21
0,299,299,457,6,['k'],['k'],Y,,,,Female,21
,,,,,,,"49, 1",,,,,
0,300,300,522,7,['k'],['k'],Y,,,,Female,21
0,301,301,131,7,['d'],['d'],Y,,,,Female,21
0,302,302,115,7,['d'],['d'],Y,,,,Female,21
0,303,303,48,7,['k'],['d'],N,,,,Female,21
0,304,304,409,7,['k'],['k'],Y,,,,Female,21
0,305,305,490,7,['k'],['k'],Y,,,,Female,21
0,306,306,167,7,['d'],['d'],Y,,,,Female,21
0,307,307,68,7,['d'],['d'],Y,,,,Female,21
0,308,308,345,7,['k'],['k'],Y,,,,Female,21
0,309,309,565,7,['k'],['k'],Y,,,,Female,21
0,310,310,344,7,['k'],['k'],Y,,,,Female,21
0,311,311,13,7,['d'],['d'],Y,,,,Female,21
0,312,312,575,7,['k'],['k'],Y,,,,Female,21
0,313,313,123,7,['d'],['d'],Y,,,,Female,21
0,314,314,285,7,['d'],['d'],Y,,,,Female,21
0,315,315,532,7,['k'],['k'],Y,,,,Female,21
0,316,316,198,7,['d'],['d'],Y,,,,Female,21
0,317,317,357,7,['k'],['k'],Y,,,,Female,21
0,318,318,174,7,['d'],['d'],Y,,,,Female,21
0,319,319,282,7,['d'],['d'],Y,,,,Female,21
0,320,320,252,7,['d'],['d'],Y,,,,Female,21
0,321,321,71,7,['d'],['d'],Y,,,,Female,21
0,322,322,570,7,['k'],['k'],Y,,,,Female,21
0,323,323,241,7,['d'],['d'],Y,,,,Female,21
0,324,324,67,7,['d'],['d'],Y,,,,Female,21
0,325,325,171,7,['d'],['d'],Y,,,,Female,21
0,326,326,120,7,['d'],['d'],Y,,,,Female,21
0,327,327,367,7,['k'],['k'],Y,,,,Female,21
0,328,328,128,7,['d'],['d'],Y,,,,Female,21
0,329,329,155,7,['d'],['d'],Y,,,,Female,21
0,330,330,461,7,['k'],['k'],Y,,,,Female,21
0,331,331,509,7,['d'],['k'],N,,,,Female,21
0,332,332,300,7,['k'],['k'],Y,,,,Female,21
0,333,333,188,7,['d'],['d'],Y,,,,Female,21
0,334,334,313,7,['k'],['k'],Y,,,,Female,21
0,335,335,562,7,['k'],['k'],Y,,,,Female,21
0,336,336,159,7,['d'],['d'],Y,,,,Female,21
0,337,337,583,7,['k'],['k'],Y,,,,Female,21
0,338,338,200,7,['d'],['d'],Y,,,,Female,21
0,339,339,392,7,['k'],['k'],Y,,,,Female,21
0,340,340,338,7,['k'],['k'],Y,,,,Female,21
0,341,341,414,7,['k'],['k'],Y,,,,Female,21
0,342,342,531,7,['k'],['k'],Y,,,,Female,21
0,343,343,292,7,['d'],['d'],Y,,,,Female,21
0,344,344,549,7,['k'],['k'],Y,,,,Female,21
0,345,345,475,7,['k'],['k'],Y,,,,Female,21
0,346,346,70,7,['d'],['d'],Y,,,,Female,21
0,347,347,404,7,['d'],['k'],N,,,,Female,21
0,348,348,277,7,['k'],['d'],N,,,,Female,21
0,349,349,295,7,['d'],['d'],Y,,,,Female,21
,,,,,,,"46, 4",,,,,
0,350,350,126,8,['d'],['d'],Y,,,,Female,21
0,351,351,566,8,['k'],['k'],Y,,,,Female,21
0,352,352,351,8,['k'],['k'],Y,,,,Female,21
0,353,353,202,8,['d'],['d'],Y,,,,Female,21
0,354,354,209,8,['d'],['d'],Y,,,,Female,21
0,355,355,362,8,['k'],['k'],Y,,,,Female,21
0,356,356,432,8,['k'],['k'],Y,,,,Female,21
0,357,357,394,8,['k'],['k'],Y,,,,Female,21
0,358,358,312,8,['k'],['k'],Y,,,,Female,21
0,359,359,491,8,['k'],['k'],Y,,,,Female,21
0,360,360,216,8,['d'],['d'],Y,,,,Female,21
0,361,361,225,8,['d'],['d'],Y,,,,Female,21
0,362,362,573,8,['k'],['k'],Y,,,,Female,21
0,363,363,597,8,['k'],['k'],Y,,,,Female,21
0,364,364,271,8,['d'],['d'],Y,,,,Female,21
0,365,365,374,8,['d'],['k'],N,,,,Female,21
0,366,366,268,8,['d'],['d'],Y,,,,Female,21
0,367,367,129,8,['d'],['d'],Y,,,,Female,21
0,368,368,189,8,['d'],['d'],Y,,,,Female,21
0,369,369,499,8,['k'],['k'],Y,,,,Female,21
0,370,370,462,8,['k'],['k'],Y,,,,Female,21
0,371,371,161,8,['d'],['d'],Y,,,,Female,21
0,372,372,503,8,['k'],['k'],Y,,,,Female,21
0,373,373,373,8,['k'],['k'],Y,,,,Female,21
0,374,374,355,8,['k'],['k'],Y,,,,Female,21
0,375,375,418,8,['k'],['k'],Y,,,,Female,21
0,376,376,448,8,['k'],['k'],Y,,,,Female,21
0,377,377,0,8,['d'],['d'],Y,,,,Female,21
0,378,378,473,8,['k'],['k'],Y,,,,Female,21
0,379,379,118,8,['d'],['d'],Y,,,,Female,21
0,380,380,579,8,['k'],['k'],Y,,,,Female,21
0,381,381,180,8,['d'],['d'],Y,,,,Female,21
0,382,382,576,8,['k'],['k'],Y,,,,Female,21
0,383,383,110,8,['d'],['d'],Y,,,,Female,21
0,384,384,267,8,['d'],['d'],Y,,,,Female,21
0,385,385,284,8,['d'],['d'],Y,,,,Female,21
0,386,386,20,8,['d'],['d'],Y,,,,Female,21
0,387,387,496,8,['k'],['k'],Y,,,,Female,21
0,388,388,470,8,['d'],['k'],N,,,,Female,21
0,389,389,454,8,['k'],['k'],Y,,,,Female,21
0,390,390,553,8,['k'],['k'],Y,,,,Female,21
0,391,391,49,8,['d'],['d'],Y,,,,Female,21
0,392,392,157,8,['d'],['d'],Y,,,,Female,21
0,393,393,596,8,['k'],['k'],Y,,,,Female,21
0,394,394,541,8,['k'],['k'],Y,,,,Female,21
0,395,395,310,8,['k'],['k'],Y,,,,Female,21
0,396,396,539,8,['k'],['k'],Y,,,,Female,21
0,397,397,193,8,['d'],['d'],Y,,,,Female,21
0,398,398,558,8,['k'],['k'],Y,,,,Female,21
0,399,399,132,8,['d'],['d'],Y,,,,Female,21
,,,,,,,"48, 2",,,,,
0,400,400,89,9,['d'],['d'],Y,,,,Female,21
0,401,401,459,9,['k'],['k'],Y,,,,Female,21
0,402,402,136,9,['d'],['d'],Y,,,,Female,21
0,403,403,508,9,['k'],['k'],Y,,,,Female,21
0,404,404,34,9,['d'],['d'],Y,,,,Female,21
0,405,405,535,9,['k'],['k'],Y,,,,Female,21
0,406,406,145,9,['d'],['d'],Y,,,,Female,21
0,407,407,554,9,['k'],['k'],Y,,,,Female,21
0,408,408,317,9,['k'],['k'],Y,,,,Female,21
0,409,409,141,9,['d'],['d'],Y,,,,Female,21
0,410,410,21,9,['d'],['d'],Y,,,,Female,21
0,411,411,179,9,['d'],['d'],Y,,,,Female,21
0,412,412,101,9,['d'],['d'],Y,,,,Female,21
0,413,413,286,9,['d'],['d'],Y,,,,Female,21
0,414,414,585,9,['k'],['k'],Y,,,,Female,21
0,415,415,235,9,['d'],['d'],Y,,,,Female,21
0,416,416,340,9,['k'],['k'],Y,,,,Female,21
0,417,417,146,9,['d'],['d'],Y,,,,Female,21
0,418,418,452,9,['k'],['k'],Y,,,,Female,21
0,419,419,42,9,['d'],['d'],Y,,,,Female,21
0,420,420,16,9,['d'],['d'],Y,,,,Female,21
0,421,421,50,9,['d'],['d'],Y,,,,Female,21
0,422,422,212,9,['d'],['d'],Y,,,,Female,21
0,423,423,537,9,['k'],['k'],Y,,,,Female,21
0,424,424,181,9,['d'],['d'],Y,,,,Female,21
0,425,425,223,9,['d'],['d'],Y,,,,Female,21
0,426,426,46,9,['d'],['d'],Y,,,,Female,21
0,427,427,511,9,['k'],['k'],Y,,,,Female,21
0,428,428,154,9,['d'],['d'],Y,,,,Female,21
0,429,429,434,9,['k'],['k'],Y,,,,Female,21
0,430,430,31,9,['d'],['d'],Y,,,,Female,21
0,431,431,455,9,['k'],['k'],Y,,,,Female,21
0,432,432,105,9,['d'],['d'],Y,,,,Female,21
0,433,433,111,9,['k'],['d'],N,,,,Female,21
0,434,434,148,9,['d'],['d'],Y,,,,Female,21
0,435,435,436,9,['k'],['k'],Y,,,,Female,21
0,436,436,506,9,['k'],['k'],Y,,,,Female,21
0,437,437,88,9,['d'],['d'],Y,,,,Female,21
0,438,438,443,9,['k'],['k'],Y,,,,Female,21
0,439,439,339,9,['k'],['k'],Y,,,,Female,21
0,440,440,396,9,['k'],['k'],Y,,,,Female,21
0,441,441,18,9,['d'],['d'],Y,,,,Female,21
0,442,442,591,9,['k'],['k'],Y,,,,Female,21
0,443,443,437,9,['k'],['k'],Y,,,,Female,21
0,444,444,598,9,['k'],['k'],Y,,,,Female,21
0,445,445,486,9,['k'],['k'],Y,,,,Female,21
0,446,446,399,9,['k'],['k'],Y,,,,Female,21
0,447,447,487,9,['k'],['k'],Y,,,,Female,21
0,448,448,568,9,['k'],['k'],Y,,,,Female,21
0,449,449,546,9,['k'],['k'],Y,,,,Female,21
,,,,,,,"49, 1",,,,,
0,450,450,14,10,['d'],['d'],Y,,,,Female,21
0,451,451,413,10,['k'],['k'],Y,,,,Female,21
0,452,452,390,10,['k'],['k'],Y,,,,Female,21
0,453,453,364,10,['k'],['k'],Y,,,,Female,21
0,454,454,581,10,['k'],['k'],Y,,,,Female,21
0,455,455,433,10,['k'],['k'],Y,,,,Female,21
0,456,456,291,10,['d'],['d'],Y,,,,Female,21
0,457,457,254,10,['d'],['d'],Y,,,,Female,21
0,458,458,175,10,['d'],['d'],Y,,,,Female,21
0,459,459,177,10,['d'],['d'],Y,,,,Female,21
0,460,460,8,10,['d'],['d'],Y,,,,Female,21
0,461,461,76,10,['d'],['d'],Y,,,,Female,21
0,462,462,577,10,['k'],['k'],Y,,,,Female,21
0,463,463,560,10,['k'],['k'],Y,,,,Female,21
0,464,464,229,10,['k'],['d'],N,,,,Female,21
0,465,465,466,10,['k'],['k'],Y,,,,Female,21
0,466,466,495,10,['k'],['k'],Y,,,,Female,21
0,467,467,100,10,['d'],['d'],Y,,,,Female,21
0,468,468,518,10,['k'],['k'],Y,,,,Female,21
0,469,469,301,10,['k'],['k'],Y,,,,Female,21
0,470,470,307,10,['k'],['k'],Y,,,,Female,21
0,471,471,479,10,['k'],['k'],Y,,,,Female,21
0,472,472,552,10,['k'],['k'],Y,,,,Female,21
0,473,473,311,10,['k'],['k'],Y,,,,Female,21
0,474,474,236,10,['d'],['d'],Y,,,,Female,21
0,475,475,237,10,['d'],['d'],Y,,,,Female,21
0,476,476,238,10,['d'],['d'],Y,,,,Female,21
0,477,477,416,10,['k'],['k'],Y,,,,Female,21
0,478,478,477,10,['k'],['k'],Y,,,,Female,21
0,479,479,217,10,['d'],['d'],Y,,,,Female,21
0,480,480,347,10,['k'],['k'],Y,,,,Female,21
0,481,481,446,10,['k'],['k'],Y,,,,Female,21
0,482,482,196,10,['k'],['d'],N,,,,Female,21
0,483,483,253,10,['d'],['d'],Y,,,,Female,21
0,484,484,280,10,['d'],['d'],Y,,,,Female,21
0,485,485,342,10,['k'],['k'],Y,,,,Female,21
0,486,486,74,10,['d'],['d'],Y,,,,Female,21
0,487,487,219,10,['d'],['d'],Y,,,,Female,21
0,488,488,465,10,['k'],['k'],Y,,,,Female,21
0,489,489,218,10,['d'],['d'],Y,,,,Female,21
0,490,490,35,10,['d'],['d'],Y,,,,Female,21
0,491,491,297,10,['d'],['d'],Y,,,,Female,21
0,492,492,320,10,['k'],['k'],Y,,,,Female,21
0,493,493,39,10,['d'],['d'],Y,,,,Female,21
0,494,494,187,10,['d'],['d'],Y,,,,Female,21
0,495,495,156,10,['d'],['d'],Y,,,,Female,21
0,496,496,220,10,['d'],['d'],Y,,,,Female,21
0,497,497,514,10,['k'],['k'],Y,,,,Female,21
0,498,498,82,10,['d'],['d'],Y,,,,Female,21
0,499,499,547,10,['k'],['k'],Y,,,,Female,21
,,,,,,,"48, 2",,,,,
0,500,500,185,11,None,,Timed out,Y,Y,Y,Female,21
0,501,501,270,11,['k'],['d'],Y,,Y,Y,Female,21
0,502,502,564,11,['d'],['k'],Y,,Y,Y,Female,21
0,503,503,398,11,['d'],['k'],Y,,Y,Y,Female,21
0,504,504,172,11,['d'],['d'],N,,Y,Y,Female,21
0,505,505,61,11,['k'],['d'],Y,,Y,Y,Female,21
0,506,506,32,11,['k'],['d'],Y,,Y,Y,Female,21
0,507,507,52,11,['k'],['d'],Y,,Y,Y,Female,21
0,508,508,426,11,['d'],['k'],Y,,Y,Y,Female,21
0,509,509,442,11,['d'],['k'],Y,,Y,Y,Female,21
0,510,510,176,11,['k'],['d'],Y,,Y,Y,Female,21
0,511,511,72,11,['k'],['d'],Y,,Y,Y,Female,21
0,512,512,73,11,['k'],['d'],Y,,Y,Y,Female,21
0,513,513,230,11,['k'],['d'],Y,,Y,Y,Female,21
0,514,514,501,11,['d'],['k'],Y,,Y,Y,Female,21
0,515,515,336,11,['d'],['k'],Y,,Y,Y,Female,21
0,516,516,81,11,['d'],['d'],N,,Y,Y,Female,21
0,517,517,210,11,['k'],['d'],Y,,Y,Y,Female,21
0,518,518,59,11,['k'],['d'],Y,,Y,Y,Female,21
0,519,519,561,11,['d'],['k'],Y,,Y,Y,Female,21
0,520,520,103,11,['k'],['d'],Y,,Y,Y,Female,21
0,521,521,194,11,['k'],['d'],Y,,Y,Y,Female,21
0,522,522,29,11,['d'],['d'],N,,Y,Y,Female,21
0,523,523,322,11,['d'],['k'],Y,,Y,Y,Female,21
0,524,524,139,11,['k'],['d'],Y,,Y,Y,Female,21
0,525,525,590,11,['d'],['k'],Y,,Y,Y,Female,21
0,526,526,478,11,['d'],['k'],Y,,Y,Y,Female,21
0,527,527,542,11,['d'],['k'],Y,,Y,Y,Female,21
0,528,528,485,11,['d'],['k'],Y,,Y,Y,Female,21
0,529,529,91,11,['k'],['d'],Y,,Y,Y,Female,21
0,530,530,83,11,['k'],['d'],Y,,Y,Y,Female,21
0,531,531,400,11,['d'],['k'],Y,,Y,Y,Female,21
0,532,532,288,11,['d'],['d'],N,,Y,Y,Female,21
0,533,533,170,11,['k'],['d'],Y,,Y,Y,Female,21
0,534,534,324,11,['d'],['k'],Y,,Y,Y,Female,21
0,535,535,239,11,['k'],['d'],Y,,Y,Y,Female,21
0,536,536,483,11,['k'],['k'],N,,Y,Y,Female,21
0,537,537,45,11,['k'],['d'],Y,,Y,Y,Female,21
0,538,538,162,11,['k'],['d'],Y,,Y,Y,Female,21
0,539,539,160,11,['k'],['d'],Y,,Y,Y,Female,21
0,540,540,584,11,['d'],['k'],Y,,Y,Y,Female,21
0,541,541,578,11,['d'],['k'],Y,,Y,Y,Female,21
0,542,542,563,11,['d'],['k'],Y,,Y,Y,Female,21
0,543,543,460,11,['d'],['k'],Y,,Y,Y,Female,21
0,544,544,78,11,['k'],['d'],Y,,Y,Y,Female,21
0,545,545,41,11,['k'],['d'],Y,,Y,Y,Female,21
0,546,546,232,11,['k'],['d'],Y,,Y,Y,Female,21
0,547,547,305,11,['d'],['k'],Y,,Y,Y,Female,21
0,548,548,112,11,['k'],['d'],Y,,Y,Y,Female,21
0,549,549,60,11,['k'],['d'],Y,,Y,Y,Female,21
,,,,,,,"44, 5, 1",,,,,
0,550,550,423,12,None,,Timed out,,Y,Y,Female,21
0,551,551,262,12,['d'],['d'],N,,Y,Y,Female,21
0,552,552,328,12,['d'],['k'],Y,,Y,Y,Female,21
0,553,553,451,12,['k'],['k'],N,,Y,Y,Female,21
0,554,554,402,12,None,,Timed out,,Y,Y,Female,21
0,555,555,430,12,['d'],['k'],Y,,Y,Y,Female,21
0,556,556,525,12,['d'],['k'],Y,,Y,Y,Female,21
0,557,557,467,12,['d'],['k'],Y,,Y,Y,Female,21
0,558,558,586,12,['d'],['k'],Y,,Y,Y,Female,21
0,559,559,335,12,['d'],['k'],Y,,Y,Y,Female,21
0,560,560,306,12,['d'],['k'],Y,,Y,Y,Female,21
0,561,561,498,12,['d'],['k'],Y,,Y,Y,Female,21
0,562,562,444,12,['d'],['k'],Y,,Y,Y,Female,21
0,563,563,33,12,['k'],['d'],Y,,Y,Y,Female,21
0,564,564,378,12,['d'],['k'],Y,,Y,Y,Female,21
0,565,565,276,12,['d'],['d'],N,,Y,Y,Female,21
0,566,566,450,12,['d'],['k'],Y,,Y,Y,Female,21
0,567,567,530,12,['d'],['k'],Y,,Y,Y,Female,21
0,568,568,228,12,['k'],['d'],Y,,Y,Y,Female,21
0,569,569,382,12,['d'],['k'],Y,,Y,Y,Female,21
0,570,570,58,12,['k'],['d'],Y,,Y,Y,Female,21
0,571,571,580,12,['d'],['k'],Y,,Y,Y,Female,21
0,572,572,405,12,['d'],['k'],Y,,Y,Y,Female,21
0,573,573,221,12,['k'],['d'],Y,,Y,Y,Female,21
0,574,574,533,12,['d'],['k'],Y,,Y,Y,Female,21
0,575,575,504,12,['d'],['k'],Y,,Y,Y,Female,21
0,576,576,321,12,['k'],['k'],N,,Y,Y,Female,21
0,577,577,588,12,['d'],['k'],Y,,Y,Y,Female,21
0,578,578,516,12,['d'],['k'],Y,,Y,Y,Female,21
0,579,579,246,12,['k'],['d'],Y,,Y,Y,Female,21
0,580,580,422,12,['d'],['k'],Y,,Y,Y,Female,21
0,581,581,482,12,['d'],['k'],Y,,Y,Y,Female,21
0,582,582,40,12,['k'],['d'],Y,,Y,Y,Female,21
0,583,583,247,12,['k'],['d'],Y,,Y,Y,Female,21
0,584,584,303,12,['d'],['k'],Y,,Y,Y,Female,21
0,585,585,445,12,['d'],['k'],Y,,Y,Y,Female,21
0,586,586,17,12,['k'],['d'],Y,,Y,Y,Female,21
0,587,587,329,12,['d'],['k'],Y,,Y,Y,Female,21
0,588,588,117,12,['k'],['d'],Y,,Y,Y,Female,21
0,589,589,53,12,['k'],['d'],Y,,Y,Y,Female,21
0,590,590,431,12,['d'],['k'],Y,,Y,Y,Female,21
0,591,591,250,12,['k'],['d'],Y,,Y,Y,Female,21
0,592,592,79,12,None,,Timed out,,Y,Y,Female,21
0,593,593,25,12,['k'],['d'],Y,,Y,Y,Female,21
0,594,594,169,12,['k'],['d'],Y,,Y,Y,Female,21
0,595,595,107,12,['k'],['d'],Y,,Y,Y,Female,21
0,596,596,512,12,['d'],['k'],Y,,Y,Y,Female,21
0,597,597,192,12,['k'],['d'],Y,,Y,Y,Female,21
0,598,598,420,12,['d'],['k'],Y,,Y,Y,Female,21
0,599,599,2,12,['k'],['d'],Y,,Y,Y,Female,21
,,,,,,,"43, 4, 3",,,,,
