.thisRepN,.thisTrialN,.thisN,.thisIndex,Block Number,Key pressed,Category,Correct?,Button switch shown?,Actually switched?,Fast?,gender,age
0,0,0,203,1,['k'],['d'],N,,,,Female,18
0,1,1,555,1,['k'],['k'],Y,,,,Female,18
0,2,2,88,1,['k'],['d'],N,,,,Female,18
0,3,3,254,1,['d'],['d'],Y,,,,Female,18
0,4,4,592,1,['k'],['k'],Y,,,,Female,18
0,5,5,173,1,['d'],['d'],Y,,,,Female,18
0,6,6,101,1,['d'],['d'],Y,,,,Female,18
0,7,7,500,1,['k'],['k'],Y,,,,Female,18
0,8,8,253,1,['d'],['d'],Y,,,,Female,18
0,9,9,220,1,['k'],['d'],N,,,,Female,18
0,10,10,125,1,['k'],['d'],N,,,,Female,18
0,11,11,313,1,['d'],['k'],N,,,,Female,18
0,12,12,282,1,['k'],['d'],N,,,,Female,18
0,13,13,135,1,['d'],['d'],Y,,,,Female,18
0,14,14,412,1,['k'],['k'],Y,,,,Female,18
0,15,15,168,1,['d'],['d'],Y,,,,Female,18
0,16,16,561,1,['k'],['k'],Y,,,,Female,18
0,17,17,591,1,['k'],['k'],Y,,,,Female,18
0,18,18,480,1,['k'],['k'],Y,,,,Female,18
0,19,19,100,1,['d'],['d'],Y,,,,Female,18
0,20,20,311,1,['k'],['k'],Y,,,,Female,18
0,21,21,8,1,['k'],['d'],N,,,,Female,18
0,22,22,59,1,['k'],['d'],N,,,,Female,18
0,23,23,427,1,['k'],['k'],Y,,,,Female,18
0,24,24,46,1,['k'],['d'],N,,,,Female,18
0,25,25,339,1,['d'],['k'],N,,,,Female,18
0,26,26,306,1,['k'],['k'],Y,,,,Female,18
0,27,27,440,1,['k'],['k'],Y,,,,Female,18
0,28,28,365,1,['k'],['k'],Y,,,,Female,18
0,29,29,57,1,['d'],['d'],Y,,,,Female,18
0,30,30,571,1,['k'],['k'],Y,,,,Female,18
0,31,31,441,1,['k'],['k'],Y,,,,Female,18
0,32,32,9,1,['d'],['d'],Y,,,,Female,18
0,33,33,196,1,['d'],['d'],Y,,,,Female,18
0,34,34,34,1,['d'],['d'],Y,,,,Female,18
0,35,35,535,1,['k'],['k'],Y,,,,Female,18
0,36,36,82,1,['d'],['d'],Y,,,,Female,18
0,37,37,396,1,['k'],['k'],Y,,,,Female,18
0,38,38,180,1,['d'],['d'],Y,,,,Female,18
0,39,39,449,1,['k'],['k'],Y,,,,Female,18
0,40,40,584,1,['k'],['k'],Y,,,,Female,18
0,41,41,293,1,['d'],['d'],Y,,,,Female,18
0,42,42,237,1,['d'],['d'],Y,,,,Female,18
0,43,43,116,1,['d'],['d'],Y,,,,Female,18
0,44,44,530,1,['k'],['k'],Y,,,,Female,18
0,45,45,209,1,['d'],['d'],Y,,,,Female,18
0,46,46,322,1,['k'],['k'],Y,,,,Female,18
0,47,47,241,1,['d'],['d'],Y,,,,Female,18
0,48,48,12,1,['d'],['d'],Y,,,,Female,18
0,49,49,156,1,['d'],['d'],Y,,,,Female,18
,,,,,,,"40, 10",,,,,
0,50,50,354,2,['k'],['k'],Y,,,,Female,18
0,51,51,575,2,['k'],['k'],Y,,,,Female,18
0,52,52,495,2,['k'],['k'],Y,,,,Female,18
0,53,53,291,2,['d'],['d'],Y,,,,Female,18
0,54,54,536,2,['k'],['k'],Y,,,,Female,18
0,55,55,302,2,['k'],['k'],Y,,,,Female,18
0,56,56,391,2,['k'],['k'],Y,,,,Female,18
0,57,57,69,2,['d'],['d'],Y,,,,Female,18
0,58,58,258,2,['d'],['d'],Y,,,,Female,18
0,59,59,331,2,['k'],['k'],Y,,,,Female,18
0,60,60,553,2,['k'],['k'],Y,,,,Female,18
0,61,61,44,2,['k'],['d'],N,,,,Female,18
0,62,62,81,2,['d'],['d'],Y,,,,Female,18
0,63,63,428,2,['k'],['k'],Y,,,,Female,18
0,64,64,296,2,['d'],['d'],Y,,,,Female,18
0,65,65,295,2,['d'],['d'],Y,,,,Female,18
0,66,66,143,2,['k'],['d'],N,,,,Female,18
0,67,67,309,2,['k'],['k'],Y,,,,Female,18
0,68,68,33,2,['d'],['d'],Y,,,,Female,18
0,69,69,470,2,['k'],['k'],Y,,,,Female,18
0,70,70,195,2,['d'],['d'],Y,,,,Female,18
0,71,71,486,2,['k'],['k'],Y,,,,Female,18
0,72,72,200,2,['d'],['d'],Y,,,,Female,18
0,73,73,45,2,['d'],['d'],Y,,,,Female,18
0,74,74,366,2,['k'],['k'],Y,,,,Female,18
0,75,75,586,2,['k'],['k'],Y,,,,Female,18
0,76,76,155,2,['k'],['d'],N,,,,Female,18
0,77,77,520,2,['k'],['k'],Y,,,,Female,18
0,78,78,569,2,['k'],['k'],Y,,,,Female,18
0,79,79,150,2,['d'],['d'],Y,,,,Female,18
0,80,80,312,2,['k'],['k'],Y,,,,Female,18
0,81,81,263,2,['d'],['d'],Y,,,,Female,18
0,82,82,292,2,['d'],['d'],Y,,,,Female,18
0,83,83,362,2,['k'],['k'],Y,,,,Female,18
0,84,84,407,2,['k'],['k'],Y,,,,Female,18
0,85,85,514,2,['k'],['k'],Y,,,,Female,18
0,86,86,245,2,['d'],['d'],Y,,,,Female,18
0,87,87,158,2,['d'],['d'],Y,,,,Female,18
0,88,88,477,2,['k'],['k'],Y,,,,Female,18
0,89,89,493,2,['k'],['k'],Y,,,,Female,18
0,90,90,471,2,['k'],['k'],Y,,,,Female,18
0,91,91,289,2,['d'],['d'],Y,,,,Female,18
0,92,92,39,2,['d'],['d'],Y,,,,Female,18
0,93,93,142,2,['d'],['d'],Y,,,,Female,18
0,94,94,317,2,['k'],['k'],Y,,,,Female,18
0,95,95,49,2,['d'],['d'],Y,,,,Female,18
0,96,96,349,2,['k'],['k'],Y,,,,Female,18
0,97,97,172,2,['k'],['d'],N,,,,Female,18
0,98,98,328,2,['k'],['k'],Y,,,,Female,18
0,99,99,469,2,['k'],['k'],Y,,,,Female,18
,,,,,,,"46, 4",,,,,
0,100,100,458,3,['k'],['k'],Y,,,,Female,18
0,101,101,94,3,['d'],['d'],Y,,,,Female,18
0,102,102,260,3,['d'],['d'],Y,,,,Female,18
0,103,103,492,3,['k'],['k'],Y,,,,Female,18
0,104,104,54,3,['d'],['d'],Y,,,,Female,18
0,105,105,346,3,['k'],['k'],Y,,,,Female,18
0,106,106,489,3,['k'],['k'],Y,,,,Female,18
0,107,107,563,3,['k'],['k'],Y,,,,Female,18
0,108,108,394,3,['k'],['k'],Y,,,,Female,18
0,109,109,557,3,['k'],['k'],Y,,,,Female,18
0,110,110,544,3,['k'],['k'],Y,,,,Female,18
0,111,111,265,3,['d'],['d'],Y,,,,Female,18
0,112,112,424,3,['k'],['k'],Y,,,,Female,18
0,113,113,119,3,['d'],['d'],Y,,,,Female,18
0,114,114,478,3,['k'],['k'],Y,,,,Female,18
0,115,115,435,3,['k'],['k'],Y,,,,Female,18
0,116,116,36,3,['d'],['d'],Y,,,,Female,18
0,117,117,78,3,['d'],['d'],Y,,,,Female,18
0,118,118,305,3,['k'],['k'],Y,,,,Female,18
0,119,119,505,3,['k'],['k'],Y,,,,Female,18
0,120,120,373,3,['k'],['k'],Y,,,,Female,18
0,121,121,194,3,['d'],['d'],Y,,,,Female,18
0,122,122,456,3,['k'],['k'],Y,,,,Female,18
0,123,123,166,3,['k'],['d'],N,,,,Female,18
0,124,124,399,3,['k'],['k'],Y,,,,Female,18
0,125,125,527,3,['k'],['k'],Y,,,,Female,18
0,126,126,573,3,['k'],['k'],Y,,,,Female,18
0,127,127,113,3,['d'],['d'],Y,,,,Female,18
0,128,128,227,3,['d'],['d'],Y,,,,Female,18
0,129,129,176,3,['d'],['d'],Y,,,,Female,18
0,130,130,210,3,['d'],['d'],Y,,,,Female,18
0,131,131,409,3,['k'],['k'],Y,,,,Female,18
0,132,132,502,3,['k'],['k'],Y,,,,Female,18
0,133,133,402,3,['k'],['k'],Y,,,,Female,18
0,134,134,111,3,['d'],['d'],Y,,,,Female,18
0,135,135,432,3,['k'],['k'],Y,,,,Female,18
0,136,136,279,3,['d'],['d'],Y,,,,Female,18
0,137,137,517,3,['k'],['k'],Y,,,,Female,18
0,138,138,547,3,['k'],['k'],Y,,,,Female,18
0,139,139,372,3,['k'],['k'],Y,,,,Female,18
0,140,140,558,3,['k'],['k'],Y,,,,Female,18
0,141,141,576,3,['k'],['k'],Y,,,,Female,18
0,142,142,494,3,['k'],['k'],Y,,,,Female,18
0,143,143,287,3,['d'],['d'],Y,,,,Female,18
0,144,144,221,3,['d'],['d'],Y,,,,Female,18
0,145,145,381,3,['k'],['k'],Y,,,,Female,18
0,146,146,48,3,['d'],['d'],Y,,,,Female,18
0,147,147,529,3,['k'],['k'],Y,,,,Female,18
0,148,148,205,3,['d'],['d'],Y,,,,Female,18
0,149,149,222,3,['d'],['d'],Y,,,,Female,18
,,,,,,,"49, 1",,,,,
0,150,150,582,4,['k'],['k'],Y,,,,Female,18
0,151,151,524,4,['k'],['k'],Y,,,,Female,18
0,152,152,447,4,['k'],['k'],Y,,,,Female,18
0,153,153,297,4,['d'],['d'],Y,,,,Female,18
0,154,154,43,4,['d'],['d'],Y,,,,Female,18
0,155,155,278,4,['d'],['d'],Y,,,,Female,18
0,156,156,124,4,['d'],['d'],Y,,,,Female,18
0,157,157,395,4,['k'],['k'],Y,,,,Female,18
0,158,158,572,4,['k'],['k'],Y,,,,Female,18
0,159,159,108,4,['d'],['d'],Y,,,,Female,18
0,160,160,336,4,['k'],['k'],Y,,,,Female,18
0,161,161,363,4,['k'],['k'],Y,,,,Female,18
0,162,162,107,4,['d'],['d'],Y,,,,Female,18
0,163,163,10,4,['d'],['d'],Y,,,,Female,18
0,164,164,110,4,['d'],['d'],Y,,,,Female,18
0,165,165,465,4,['k'],['k'],Y,,,,Female,18
0,166,166,448,4,['k'],['k'],Y,,,,Female,18
0,167,167,187,4,['k'],['d'],N,,,,Female,18
0,168,168,121,4,['d'],['d'],Y,,,,Female,18
0,169,169,56,4,['d'],['d'],Y,,,,Female,18
0,170,170,233,4,['d'],['d'],Y,,,,Female,18
0,171,171,485,4,['k'],['k'],Y,,,,Female,18
0,172,172,474,4,['k'],['k'],Y,,,,Female,18
0,173,173,382,4,['k'],['k'],Y,,,,Female,18
0,174,174,228,4,['d'],['d'],Y,,,,Female,18
0,175,175,367,4,['k'],['k'],Y,,,,Female,18
0,176,176,417,4,['k'],['k'],Y,,,,Female,18
0,177,177,103,4,['d'],['d'],Y,,,,Female,18
0,178,178,271,4,['d'],['d'],Y,,,,Female,18
0,179,179,398,4,['k'],['k'],Y,,,,Female,18
0,180,180,507,4,['k'],['k'],Y,,,,Female,18
0,181,181,242,4,['d'],['d'],Y,,,,Female,18
0,182,182,244,4,['d'],['d'],Y,,,,Female,18
0,183,183,330,4,['k'],['k'],Y,,,,Female,18
0,184,184,32,4,['d'],['d'],Y,,,,Female,18
0,185,185,388,4,['k'],['k'],Y,,,,Female,18
0,186,186,27,4,['d'],['d'],Y,,,,Female,18
0,187,187,401,4,['k'],['k'],Y,,,,Female,18
0,188,188,51,4,['d'],['d'],Y,,,,Female,18
0,189,189,5,4,['d'],['d'],Y,,,,Female,18
0,190,190,434,4,['k'],['k'],Y,,,,Female,18
0,191,191,594,4,['d'],['k'],N,,,,Female,18
0,192,192,133,4,['d'],['d'],Y,,,,Female,18
0,193,193,460,4,['k'],['k'],Y,,,,Female,18
0,194,194,393,4,['k'],['k'],Y,,,,Female,18
0,195,195,463,4,['k'],['k'],Y,,,,Female,18
0,196,196,213,4,['d'],['d'],Y,,,,Female,18
0,197,197,333,4,['k'],['k'],Y,,,,Female,18
0,198,198,356,4,['k'],['k'],Y,,,,Female,18
0,199,199,276,4,['d'],['d'],Y,,,,Female,18
,,,,,,,"48, 2",,,,,
0,200,200,562,5,['k'],['k'],Y,,,,Female,18
0,201,201,503,5,['k'],['k'],Y,,,,Female,18
0,202,202,400,5,['k'],['k'],Y,,,,Female,18
0,203,203,506,5,['k'],['k'],Y,,,,Female,18
0,204,204,335,5,['k'],['k'],Y,,,,Female,18
0,205,205,177,5,['d'],['d'],Y,,,,Female,18
0,206,206,436,5,['k'],['k'],Y,,,,Female,18
0,207,207,89,5,['d'],['d'],Y,,,,Female,18
0,208,208,589,5,['k'],['k'],Y,,,,Female,18
0,209,209,252,5,['d'],['d'],Y,,,,Female,18
0,210,210,266,5,['d'],['d'],Y,,,,Female,18
0,211,211,355,5,['k'],['k'],Y,,,,Female,18
0,212,212,60,5,['k'],['d'],N,,,,Female,18
0,213,213,476,5,['k'],['k'],Y,,,,Female,18
0,214,214,225,5,['k'],['d'],N,,,,Female,18
0,215,215,184,5,['k'],['d'],N,,,,Female,18
0,216,216,431,5,['k'],['k'],Y,,,,Female,18
0,217,217,16,5,['d'],['d'],Y,,,,Female,18
0,218,218,496,5,['k'],['k'],Y,,,,Female,18
0,219,219,115,5,['d'],['d'],Y,,,,Female,18
0,220,220,414,5,['k'],['k'],Y,,,,Female,18
0,221,221,596,5,['k'],['k'],Y,,,,Female,18
0,222,222,350,5,['k'],['k'],Y,,,,Female,18
0,223,223,224,5,['k'],['d'],N,,,,Female,18
0,224,224,374,5,['d'],['k'],N,,,,Female,18
0,225,225,231,5,['d'],['d'],Y,,,,Female,18
0,226,226,479,5,['k'],['k'],Y,,,,Female,18
0,227,227,274,5,['d'],['d'],Y,,,,Female,18
0,228,228,114,5,['d'],['d'],Y,,,,Female,18
0,229,229,64,5,['k'],['d'],N,,,,Female,18
0,230,230,138,5,['k'],['d'],N,,,,Female,18
0,231,231,559,5,['k'],['k'],Y,,,,Female,18
0,232,232,560,5,['k'],['k'],Y,,,,Female,18
0,233,233,270,5,['d'],['d'],Y,,,,Female,18
0,234,234,257,5,['d'],['d'],Y,,,,Female,18
0,235,235,208,5,['d'],['d'],Y,,,,Female,18
0,236,236,429,5,['k'],['k'],Y,,,,Female,18
0,237,237,509,5,['k'],['k'],Y,,,,Female,18
0,238,238,157,5,['d'],['d'],Y,,,,Female,18
0,239,239,198,5,['d'],['d'],Y,,,,Female,18
0,240,240,404,5,['d'],['k'],N,,,,Female,18
0,241,241,464,5,['k'],['k'],Y,,,,Female,18
0,242,242,63,5,['d'],['d'],Y,,,,Female,18
0,243,243,522,5,['k'],['k'],Y,,,,Female,18
0,244,244,68,5,['d'],['d'],Y,,,,Female,18
0,245,245,360,5,['k'],['k'],Y,,,,Female,18
0,246,246,261,5,['d'],['d'],Y,,,,Female,18
0,247,247,86,5,['d'],['d'],Y,,,,Female,18
0,248,248,219,5,['d'],['d'],Y,,,,Female,18
0,249,249,375,5,['k'],['k'],Y,,,,Female,18
,,,,,,,"42, 8",,,,,
0,250,250,511,6,['d'],['k'],N,,,,Female,18
0,251,251,147,6,['d'],['d'],Y,,,,Female,18
0,252,252,281,6,['d'],['d'],Y,,,,Female,18
0,253,253,216,6,['d'],['d'],Y,,,,Female,18
0,254,254,40,6,['d'],['d'],Y,,,,Female,18
0,255,255,466,6,['k'],['k'],Y,,,,Female,18
0,256,256,17,6,['d'],['d'],Y,,,,Female,18
0,257,257,443,6,['k'],['k'],Y,,,,Female,18
0,258,258,73,6,['d'],['d'],Y,,,,Female,18
0,259,259,343,6,['k'],['k'],Y,,,,Female,18
0,260,260,0,6,['d'],['d'],Y,,,,Female,18
0,261,261,197,6,['d'],['d'],Y,,,,Female,18
0,262,262,581,6,['k'],['k'],Y,,,,Female,18
0,263,263,53,6,['d'],['d'],Y,,,,Female,18
0,264,264,451,6,['k'],['k'],Y,,,,Female,18
0,265,265,87,6,['d'],['d'],Y,,,,Female,18
0,266,266,418,6,['k'],['k'],Y,,,,Female,18
0,267,267,62,6,['d'],['d'],Y,,,,Female,18
0,268,268,587,6,['k'],['k'],Y,,,,Female,18
0,269,269,450,6,['k'],['k'],Y,,,,Female,18
0,270,270,574,6,['k'],['k'],Y,,,,Female,18
0,271,271,473,6,['k'],['k'],Y,,,,Female,18
0,272,272,65,6,['d'],['d'],Y,,,,Female,18
0,273,273,262,6,['d'],['d'],Y,,,,Female,18
0,274,274,461,6,['k'],['k'],Y,,,,Female,18
0,275,275,284,6,['d'],['d'],Y,,,,Female,18
0,276,276,416,6,['k'],['k'],Y,,,,Female,18
0,277,277,18,6,['d'],['d'],Y,,,,Female,18
0,278,278,442,6,['k'],['k'],Y,,,,Female,18
0,279,279,24,6,['d'],['d'],Y,,,,Female,18
0,280,280,334,6,['k'],['k'],Y,,,,Female,18
0,281,281,95,6,['d'],['d'],Y,,,,Female,18
0,282,282,597,6,['k'],['k'],Y,,,,Female,18
0,283,283,3,6,['d'],['d'],Y,,,,Female,18
0,284,284,191,6,['d'],['d'],Y,,,,Female,18
0,285,285,35,6,['d'],['d'],Y,,,,Female,18
0,286,286,145,6,['d'],['d'],Y,,,,Female,18
0,287,287,127,6,['d'],['d'],Y,,,,Female,18
0,288,288,566,6,['k'],['k'],Y,,,,Female,18
0,289,289,240,6,['d'],['d'],Y,,,,Female,18
0,290,290,4,6,['d'],['d'],Y,,,,Female,18
0,291,291,37,6,['d'],['d'],Y,,,,Female,18
0,292,292,347,6,['k'],['k'],Y,,,,Female,18
0,293,293,153,6,['d'],['d'],Y,,,,Female,18
0,294,294,545,6,['k'],['k'],Y,,,,Female,18
0,295,295,144,6,['d'],['d'],Y,,,,Female,18
0,296,296,578,6,['k'],['k'],Y,,,,Female,18
0,297,297,361,6,['k'],['k'],Y,,,,Female,18
0,298,298,389,6,['k'],['k'],Y,,,,Female,18
0,299,299,462,6,['k'],['k'],Y,,,,Female,18
,,,,,,,49,,,,,
0,300,300,247,7,['d'],['d'],Y,,,,Female,18
0,301,301,483,7,['k'],['k'],Y,,,,Female,18
0,302,302,272,7,['d'],['d'],Y,,,,Female,18
0,303,303,102,7,['d'],['d'],Y,,,,Female,18
0,304,304,202,7,['d'],['d'],Y,,,,Female,18
0,305,305,348,7,['k'],['k'],Y,,,,Female,18
0,306,306,20,7,['d'],['d'],Y,,,,Female,18
0,307,307,568,7,['k'],['k'],Y,,,,Female,18
0,308,308,243,7,['d'],['d'],Y,,,,Female,18
0,309,309,251,7,['d'],['d'],Y,,,,Female,18
0,310,310,28,7,['d'],['d'],Y,,,,Female,18
0,311,311,580,7,['k'],['k'],Y,,,,Female,18
0,312,312,298,7,['d'],['d'],Y,,,,Female,18
0,313,313,326,7,['k'],['k'],Y,,,,Female,18
0,314,314,169,7,['d'],['d'],Y,,,,Female,18
0,315,315,521,7,['k'],['k'],Y,,,,Female,18
0,316,316,314,7,['k'],['k'],Y,,,,Female,18
0,317,317,491,7,['k'],['k'],Y,,,,Female,18
0,318,318,324,7,['k'],['k'],Y,,,,Female,18
0,319,319,325,7,['k'],['k'],Y,,,,Female,18
0,320,320,129,7,['d'],['d'],Y,,,,Female,18
0,321,321,353,7,['k'],['k'],Y,,,,Female,18
0,322,322,534,7,['k'],['k'],Y,,,,Female,18
0,323,323,345,7,['k'],['k'],Y,,,,Female,18
0,324,324,285,7,['d'],['d'],Y,,,,Female,18
0,325,325,1,7,['d'],['d'],Y,,,,Female,18
0,326,326,13,7,['d'],['d'],Y,,,,Female,18
0,327,327,269,7,['d'],['d'],Y,,,,Female,18
0,328,328,420,7,['k'],['k'],Y,,,,Female,18
0,329,329,422,7,['k'],['k'],Y,,,,Female,18
0,330,330,455,7,['k'],['k'],Y,,,,Female,18
0,331,331,425,7,['k'],['k'],Y,,,,Female,18
0,332,332,264,7,['d'],['d'],Y,,,,Female,18
0,333,333,117,7,['d'],['d'],Y,,,,Female,18
0,334,334,452,7,['k'],['k'],Y,,,,Female,18
0,335,335,380,7,['k'],['k'],Y,,,,Female,18
0,336,336,552,7,['k'],['k'],Y,,,,Female,18
0,337,337,93,7,['d'],['d'],Y,,,,Female,18
0,338,338,538,7,['k'],['k'],Y,,,,Female,18
0,339,339,235,7,['d'],['d'],Y,,,,Female,18
0,340,340,482,7,['k'],['k'],Y,,,,Female,18
0,341,341,445,7,['k'],['k'],Y,,,,Female,18
0,342,342,533,7,['k'],['k'],Y,,,,Female,18
0,343,343,403,7,['k'],['k'],Y,,,,Female,18
0,344,344,50,7,['d'],['d'],Y,,,,Female,18
0,345,345,207,7,['d'],['d'],Y,,,,Female,18
0,346,346,548,7,['k'],['k'],Y,,,,Female,18
0,347,347,384,7,['k'],['k'],Y,,,,Female,18
0,348,348,541,7,['k'],['k'],Y,,,,Female,18
0,349,349,52,7,['d'],['d'],Y,,,,Female,18
,,,,,,,50,,,,,
0,350,350,76,8,['d'],['d'],Y,,,,Female,18
0,351,351,551,8,['k'],['k'],Y,,,,Female,18
0,352,352,358,8,['k'],['k'],Y,,,,Female,18
0,353,353,29,8,['d'],['d'],Y,,,,Female,18
0,354,354,75,8,['d'],['d'],Y,,,,Female,18
0,355,355,141,8,['d'],['d'],Y,,,,Female,18
0,356,356,79,8,['d'],['d'],Y,,,,Female,18
0,357,357,512,8,['k'],['k'],Y,,,,Female,18
0,358,358,337,8,['k'],['k'],Y,,,,Female,18
0,359,359,58,8,['d'],['d'],Y,,,,Female,18
0,360,360,342,8,['k'],['k'],Y,,,,Female,18
0,361,361,316,8,['k'],['k'],Y,,,,Female,18
0,362,362,516,8,['k'],['k'],Y,,,,Female,18
0,363,363,351,8,['k'],['k'],Y,,,,Female,18
0,364,364,411,8,['k'],['k'],Y,,,,Female,18
0,365,365,497,8,['k'],['k'],Y,,,,Female,18
0,366,366,201,8,['d'],['d'],Y,,,,Female,18
0,367,367,136,8,['d'],['d'],Y,,,,Female,18
0,368,368,190,8,['d'],['d'],Y,,,,Female,18
0,369,369,183,8,['d'],['d'],Y,,,,Female,18
0,370,370,30,8,['d'],['d'],Y,,,,Female,18
0,371,371,234,8,['d'],['d'],Y,,,,Female,18
0,372,372,377,8,['k'],['k'],Y,,,,Female,18
0,373,373,61,8,['d'],['d'],Y,,,,Female,18
0,374,374,290,8,['d'],['d'],Y,,,,Female,18
0,375,375,137,8,['d'],['d'],Y,,,,Female,18
0,376,376,585,8,['k'],['k'],Y,,,,Female,18
0,377,377,47,8,['d'],['d'],Y,,,,Female,18
0,378,378,499,8,['k'],['k'],Y,,,,Female,18
0,379,379,15,8,['d'],['d'],Y,,,,Female,18
0,380,380,303,8,['k'],['k'],Y,,,,Female,18
0,381,381,148,8,['d'],['d'],Y,,,,Female,18
0,382,382,385,8,['k'],['k'],Y,,,,Female,18
0,383,383,406,8,['k'],['k'],Y,,,,Female,18
0,384,384,280,8,['d'],['d'],Y,,,,Female,18
0,385,385,531,8,['k'],['k'],Y,,,,Female,18
0,386,386,376,8,['k'],['k'],Y,,,,Female,18
0,387,387,344,8,['k'],['k'],Y,,,,Female,18
0,388,388,564,8,['k'],['k'],Y,,,,Female,18
0,389,389,77,8,['d'],['d'],Y,,,,Female,18
0,390,390,206,8,['d'],['d'],Y,,,,Female,18
0,391,391,300,8,['k'],['k'],Y,,,,Female,18
0,392,392,214,8,['d'],['d'],Y,,,,Female,18
0,393,393,340,8,['k'],['k'],Y,,,,Female,18
0,394,394,540,8,['k'],['k'],Y,,,,Female,18
0,395,395,188,8,['d'],['d'],Y,,,,Female,18
0,396,396,118,8,['d'],['d'],Y,,,,Female,18
0,397,397,164,8,['d'],['d'],Y,,,,Female,18
0,398,398,238,8,['d'],['d'],Y,,,,Female,18
0,399,399,368,8,['k'],['k'],Y,,,,Female,18
,,,,,,,50,,,,,
0,400,400,556,9,['k'],['k'],Y,,,,Female,18
0,401,401,97,9,['d'],['d'],Y,,,,Female,18
0,402,402,481,9,['k'],['k'],Y,,,,Female,18
0,403,403,299,9,['d'],['d'],Y,,,,Female,18
0,404,404,323,9,['k'],['k'],Y,,,,Female,18
0,405,405,248,9,['d'],['d'],Y,,,,Female,18
0,406,406,321,9,['k'],['k'],Y,,,,Female,18
0,407,407,182,9,['d'],['d'],Y,,,,Female,18
0,408,408,567,9,['k'],['k'],Y,,,,Female,18
0,409,409,577,9,['k'],['k'],Y,,,,Female,18
0,410,410,475,9,['k'],['k'],Y,,,,Female,18
0,411,411,159,9,['d'],['d'],Y,,,,Female,18
0,412,412,570,9,['k'],['k'],Y,,,,Female,18
0,413,413,329,9,['k'],['k'],Y,,,,Female,18
0,414,414,91,9,['d'],['d'],Y,,,,Female,18
0,415,415,22,9,['d'],['d'],Y,,,,Female,18
0,416,416,112,9,['d'],['d'],Y,,,,Female,18
0,417,417,223,9,['d'],['d'],Y,,,,Female,18
0,418,418,413,9,['k'],['k'],Y,,,,Female,18
0,419,419,542,9,['k'],['k'],Y,,,,Female,18
0,420,420,131,9,['d'],['d'],Y,,,,Female,18
0,421,421,588,9,['k'],['k'],Y,,,,Female,18
0,422,422,185,9,['d'],['d'],Y,,,,Female,18
0,423,423,256,9,['d'],['d'],Y,,,,Female,18
0,424,424,457,9,['k'],['k'],Y,,,,Female,18
0,425,425,304,9,['k'],['k'],Y,,,,Female,18
0,426,426,217,9,['d'],['d'],Y,,,,Female,18
0,427,427,508,9,['k'],['k'],Y,,,,Female,18
0,428,428,92,9,['d'],['d'],Y,,,,Female,18
0,429,429,70,9,['d'],['d'],Y,,,,Female,18
0,430,430,106,9,['d'],['d'],Y,,,,Female,18
0,431,431,249,9,['d'],['d'],Y,,,,Female,18
0,432,432,546,9,['k'],['k'],Y,,,,Female,18
0,433,433,501,9,['k'],['k'],Y,,,,Female,18
0,434,434,528,9,['k'],['k'],Y,,,,Female,18
0,435,435,419,9,['k'],['k'],Y,,,,Female,18
0,436,436,423,9,['k'],['k'],Y,,,,Female,18
0,437,437,539,9,['k'],['k'],Y,,,,Female,18
0,438,438,232,9,['d'],['d'],Y,,,,Female,18
0,439,439,255,9,['d'],['d'],Y,,,,Female,18
0,440,440,165,9,['d'],['d'],Y,,,,Female,18
0,441,441,229,9,['d'],['d'],Y,,,,Female,18
0,442,442,453,9,['k'],['k'],Y,,,,Female,18
0,443,443,472,9,['k'],['k'],Y,,,,Female,18
0,444,444,320,9,['k'],['k'],Y,,,,Female,18
0,445,445,146,9,['d'],['d'],Y,,,,Female,18
0,446,446,239,9,['d'],['d'],Y,,,,Female,18
0,447,447,7,9,['d'],['d'],Y,,,,Female,18
0,448,448,204,9,['d'],['d'],Y,,,,Female,18
0,449,449,352,9,['k'],['k'],Y,,,,Female,18
,,,,,,,50,,,,,
0,450,450,98,10,['d'],['d'],Y,,,,Female,18
0,451,451,415,10,['k'],['k'],Y,,,,Female,18
0,452,452,193,10,['d'],['d'],Y,,,,Female,18
0,453,453,595,10,['k'],['k'],Y,,,,Female,18
0,454,454,410,10,['k'],['k'],Y,,,,Female,18
0,455,455,359,10,['k'],['k'],Y,,,,Female,18
0,456,456,178,10,['d'],['d'],Y,,,,Female,18
0,457,457,212,10,['d'],['d'],Y,,,,Female,18
0,458,458,488,10,['k'],['k'],Y,,,,Female,18
0,459,459,319,10,['k'],['k'],Y,,,,Female,18
0,460,460,515,10,['k'],['k'],Y,,,,Female,18
0,461,461,383,10,['k'],['k'],Y,,,,Female,18
0,462,462,268,10,['d'],['d'],Y,,,,Female,18
0,463,463,175,10,['d'],['d'],Y,,,,Female,18
0,464,464,273,10,['d'],['d'],Y,,,,Female,18
0,465,465,84,10,['d'],['d'],Y,,,,Female,18
0,466,466,405,10,['k'],['k'],Y,,,,Female,18
0,467,467,513,10,['k'],['k'],Y,,,,Female,18
0,468,468,250,10,['d'],['d'],Y,,,,Female,18
0,469,469,459,10,['k'],['k'],Y,,,,Female,18
0,470,470,38,10,['d'],['d'],Y,,,,Female,18
0,471,471,120,10,['d'],['d'],Y,,,,Female,18
0,472,472,55,10,['d'],['d'],Y,,,,Female,18
0,473,473,160,10,['d'],['d'],Y,,,,Female,18
0,474,474,378,10,['k'],['k'],Y,,,,Female,18
0,475,475,6,10,['d'],['d'],Y,,,,Female,18
0,476,476,421,10,['k'],['k'],Y,,,,Female,18
0,477,477,549,10,['k'],['k'],Y,,,,Female,18
0,478,478,510,10,['k'],['k'],Y,,,,Female,18
0,479,479,523,10,['k'],['k'],Y,,,,Female,18
0,480,480,90,10,['d'],['d'],Y,,,,Female,18
0,481,481,211,10,['d'],['d'],Y,,,,Female,18
0,482,482,171,10,['d'],['d'],Y,,,,Female,18
0,483,483,543,10,['k'],['k'],Y,,,,Female,18
0,484,484,109,10,['d'],['d'],Y,,,,Female,18
0,485,485,294,10,['d'],['d'],Y,,,,Female,18
0,486,486,554,10,['k'],['k'],Y,,,,Female,18
0,487,487,152,10,['d'],['d'],Y,,,,Female,18
0,488,488,498,10,['k'],['k'],Y,,,,Female,18
0,489,489,468,10,['k'],['k'],Y,,,,Female,18
0,490,490,550,10,['k'],['k'],Y,,,,Female,18
0,491,491,308,10,['k'],['k'],Y,,,,Female,18
0,492,492,599,10,['k'],['k'],Y,,,,Female,18
0,493,493,170,10,['d'],['d'],Y,,,,Female,18
0,494,494,67,10,['d'],['d'],Y,,,,Female,18
0,495,495,364,10,['k'],['k'],Y,,,,Female,18
0,496,496,386,10,['k'],['k'],Y,,,,Female,18
0,497,497,140,10,['d'],['d'],Y,,,,Female,18
0,498,498,218,10,['d'],['d'],Y,,,,Female,18
0,499,499,286,10,['d'],['d'],Y,,,,Female,18
,,,,,,,50,,,,,
0,500,500,149,11,['k'],['d'],Y,Y,Y,Y,Female,18
0,501,501,126,11,['k'],['d'],Y,,Y,Y,Female,18
0,502,502,41,11,['k'],['d'],Y,,Y,Y,Female,18
0,503,503,26,11,['k'],['d'],Y,,Y,Y,Female,18
0,504,504,80,11,None,,Timed out,,Y,Y,Female,18
0,505,505,14,11,['k'],['d'],Y,,Y,Y,Female,18
0,506,506,307,11,['d'],['k'],Y,,Y,Y,Female,18
0,507,507,74,11,['k'],['d'],Y,,Y,Y,Female,18
0,508,508,504,11,['d'],['k'],Y,,Y,Y,Female,18
0,509,509,371,11,['d'],['k'],Y,,Y,Y,Female,18
0,510,510,11,11,['k'],['d'],Y,,Y,Y,Female,18
0,511,511,532,11,['d'],['k'],Y,,Y,Y,Female,18
0,512,512,397,11,['d'],['k'],Y,,Y,Y,Female,18
0,513,513,526,11,['d'],['k'],Y,,Y,Y,Female,18
0,514,514,236,11,['k'],['d'],Y,,Y,Y,Female,18
0,515,515,369,11,['d'],['k'],Y,,Y,Y,Female,18
0,516,516,579,11,['d'],['k'],Y,,Y,Y,Female,18
0,517,517,332,11,['d'],['k'],Y,,Y,Y,Female,18
0,518,518,215,11,['k'],['d'],Y,,Y,Y,Female,18
0,519,519,246,11,['k'],['d'],Y,,Y,Y,Female,18
0,520,520,163,11,['k'],['d'],Y,,Y,Y,Female,18
0,521,521,85,11,['d'],['d'],N,,Y,Y,Female,18
0,522,522,96,11,['d'],['d'],N,,Y,Y,Female,18
0,523,523,25,11,['k'],['d'],Y,,Y,Y,Female,18
0,524,524,525,11,['d'],['k'],Y,,Y,Y,Female,18
0,525,525,151,11,['k'],['d'],Y,,Y,Y,Female,18
0,526,526,277,11,['k'],['d'],Y,,Y,Y,Female,18
0,527,527,275,11,['k'],['d'],Y,,Y,Y,Female,18
0,528,528,179,11,['k'],['d'],Y,,Y,Y,Female,18
0,529,529,154,11,['k'],['d'],Y,,Y,Y,Female,18
0,530,530,19,11,['k'],['d'],Y,,Y,Y,Female,18
0,531,531,72,11,['k'],['d'],Y,,Y,Y,Female,18
0,532,532,130,11,['k'],['d'],Y,,Y,Y,Female,18
0,533,533,301,11,['d'],['k'],Y,,Y,Y,Female,18
0,534,534,444,11,['d'],['k'],Y,,Y,Y,Female,18
0,535,535,439,11,['d'],['k'],Y,,Y,Y,Female,18
0,536,536,454,11,['d'],['k'],Y,,Y,Y,Female,18
0,537,537,226,11,['k'],['d'],Y,,Y,Y,Female,18
0,538,538,105,11,['k'],['d'],Y,,Y,Y,Female,18
0,539,539,2,11,['k'],['d'],Y,,Y,Y,Female,18
0,540,540,66,11,['k'],['d'],Y,,Y,Y,Female,18
0,541,541,174,11,['k'],['d'],Y,,Y,Y,Female,18
0,542,542,437,11,['d'],['k'],Y,,Y,Y,Female,18
0,543,543,490,11,['d'],['k'],Y,,Y,Y,Female,18
0,544,544,519,11,['d'],['k'],Y,,Y,Y,Female,18
0,545,545,230,11,['d'],['d'],N,,Y,Y,Female,18
0,546,546,31,11,['k'],['d'],Y,,Y,Y,Female,18
0,547,547,583,11,['d'],['k'],Y,,Y,Y,Female,18
0,548,548,438,11,['d'],['k'],Y,,Y,Y,Female,18
0,549,549,132,11,['k'],['d'],Y,,Y,Y,Female,18
,,,,,,,"46, 3, 1",,,,,
0,550,550,122,12,['k'],['d'],Y,,Y,Y,Female,18
0,551,551,189,12,['k'],['d'],Y,,Y,Y,Female,18
0,552,552,192,12,['k'],['d'],Y,,Y,Y,Female,18
0,553,553,430,12,['d'],['k'],Y,,Y,Y,Female,18
0,554,554,487,12,['d'],['k'],Y,,Y,Y,Female,18
0,555,555,104,12,['k'],['d'],Y,,Y,Y,Female,18
0,556,556,537,12,['d'],['k'],Y,,Y,Y,Female,18
0,557,557,21,12,['k'],['d'],Y,,Y,Y,Female,18
0,558,558,518,12,['d'],['k'],Y,,Y,Y,Female,18
0,559,559,134,12,['k'],['d'],Y,,Y,Y,Female,18
0,560,560,123,12,['k'],['d'],Y,,Y,Y,Female,18
0,561,561,267,12,['k'],['d'],Y,,Y,Y,Female,18
0,562,562,71,12,['k'],['d'],Y,,Y,Y,Female,18
0,563,563,390,12,['d'],['k'],Y,,Y,Y,Female,18
0,564,564,593,12,['d'],['k'],Y,,Y,Y,Female,18
0,565,565,446,12,['d'],['k'],Y,,Y,Y,Female,18
0,566,566,590,12,['d'],['k'],Y,,Y,Y,Female,18
0,567,567,139,12,['k'],['d'],Y,,Y,Y,Female,18
0,568,568,162,12,['k'],['d'],Y,,Y,Y,Female,18
0,569,569,484,12,['d'],['k'],Y,,Y,Y,Female,18
0,570,570,379,12,['k'],['k'],N,,Y,Y,Female,18
0,571,571,357,12,['d'],['k'],Y,,Y,Y,Female,18
0,572,572,408,12,['d'],['k'],Y,,Y,Y,Female,18
0,573,573,259,12,['d'],['d'],N,,Y,Y,Female,18
0,574,574,283,12,['k'],['d'],Y,,Y,Y,Female,18
0,575,575,99,12,['k'],['d'],Y,,Y,Y,Female,18
0,576,576,433,12,['d'],['k'],Y,,Y,Y,Female,18
0,577,577,341,12,['d'],['k'],Y,,Y,Y,Female,18
0,578,578,199,12,['k'],['d'],Y,,Y,Y,Female,18
0,579,579,42,12,['k'],['d'],Y,,Y,Y,Female,18
0,580,580,338,12,['d'],['k'],Y,,Y,Y,Female,18
0,581,581,186,12,['k'],['d'],Y,,Y,Y,Female,18
0,582,582,167,12,['k'],['d'],Y,,Y,Y,Female,18
0,583,583,598,12,['d'],['k'],Y,,Y,Y,Female,18
0,584,584,128,12,['k'],['d'],Y,,Y,Y,Female,18
0,585,585,467,12,['k'],['k'],N,,Y,Y,Female,18
0,586,586,426,12,['d'],['k'],Y,,Y,Y,Female,18
0,587,587,392,12,['d'],['k'],Y,,Y,Y,Female,18
0,588,588,83,12,['d'],['d'],N,,Y,Y,Female,18
0,589,589,161,12,['d'],['d'],N,,Y,Y,Female,18
0,590,590,310,12,['d'],['k'],Y,,Y,Y,Female,18
0,591,591,565,12,['d'],['k'],Y,,Y,Y,Female,18
0,592,592,181,12,['k'],['d'],Y,,Y,Y,Female,18
0,593,593,370,12,['d'],['k'],Y,,Y,Y,Female,18
0,594,594,315,12,['d'],['k'],Y,,Y,Y,Female,18
0,595,595,387,12,['d'],['k'],Y,,Y,Y,Female,18
0,596,596,318,12,['d'],['k'],Y,,Y,Y,Female,18
0,597,597,288,12,['k'],['d'],Y,,Y,Y,Female,18
0,598,598,327,12,['d'],['k'],Y,,Y,Y,Female,18
0,599,599,23,12,['k'],['d'],Y,,Y,Y,Female,18
,,,,,,,"45, 5",,,,,
