.thisRepN,.thisTrialN,.thisN,.thisIndex,Block Number,Key pressed,Category,Correct?,Button switch shown?,Actually switched?,Fast?,gender,age
0,0,0,494,1,['k'],['k'],Y,,,,Male,20
0,1,1,582,1,['k'],['k'],Y,,,,Male,20
0,2,2,496,1,['k'],['k'],Y,,,,Male,20
0,3,3,515,1,['k'],['k'],Y,,,,Male,20
0,4,4,124,1,['k'],['d'],N,,,,Male,20
0,5,5,341,1,['k'],['k'],Y,,,,Male,20
0,6,6,344,1,['d'],['k'],N,,,,Male,20
0,7,7,286,1,['k'],['d'],N,,,,Male,20
0,8,8,47,1,['d'],['d'],Y,,,,Male,20
0,9,9,330,1,['k'],['k'],Y,,,,Male,20
0,10,10,102,1,['k'],['d'],N,,,,Male,20
0,11,11,16,1,['d'],['d'],Y,,,,Male,20
0,12,12,350,1,['k'],['k'],Y,,,,Male,20
0,13,13,521,1,['k'],['k'],Y,,,,Male,20
0,14,14,129,1,['d'],['d'],Y,,,,Male,20
0,15,15,247,1,['k'],['d'],N,,,,Male,20
0,16,16,458,1,['k'],['k'],Y,,,,Male,20
0,17,17,351,1,['k'],['k'],Y,,,,Male,20
0,18,18,284,1,None,,Timed out,,,,Male,20
0,19,19,255,1,['k'],['d'],N,,,,Male,20
0,20,20,586,1,['d'],['k'],N,,,,Male,20
0,21,21,40,1,['k'],['d'],N,,,,Male,20
0,22,22,487,1,['d'],['k'],N,,,,Male,20
0,23,23,219,1,['k'],['d'],N,,,,Male,20
0,24,24,188,1,['k'],['d'],N,,,,Male,20
0,25,25,31,1,['k'],['d'],N,,,,Male,20
0,26,26,587,1,['k'],['k'],Y,,,,Male,20
0,27,27,5,1,['d'],['d'],Y,,,,Male,20
0,28,28,408,1,['k'],['k'],Y,,,,Male,20
0,29,29,18,1,['d'],['d'],Y,,,,Male,20
0,30,30,4,1,['d'],['d'],Y,,,,Male,20
0,31,31,346,1,['d'],['k'],N,,,,Male,20
0,32,32,193,1,['d'],['d'],Y,,,,Male,20
0,33,33,397,1,['d'],['k'],N,,,,Male,20
0,34,34,379,1,['k'],['k'],Y,,,,Male,20
0,35,35,343,1,['k'],['k'],Y,,,,Male,20
0,36,36,460,1,['d'],['k'],N,,,,Male,20
0,37,37,204,1,['k'],['d'],N,,,,Male,20
0,38,38,118,1,['d'],['d'],Y,,,,Male,20
0,39,39,308,1,['k'],['k'],Y,,,,Male,20
0,40,40,433,1,['k'],['k'],Y,,,,Male,20
0,41,41,271,1,['d'],['d'],Y,,,,Male,20
0,42,42,365,1,['k'],['k'],Y,,,,Male,20
0,43,43,63,1,['k'],['d'],N,,,,Male,20
0,44,44,452,1,['d'],['k'],N,,,,Male,20
0,45,45,75,1,['k'],['d'],N,,,,Male,20
0,46,46,87,1,['k'],['d'],N,,,,Male,20
0,47,47,566,1,['k'],['k'],Y,,,,Male,20
0,48,48,392,1,['k'],['k'],Y,,,,Male,20
0,49,49,419,1,['k'],['k'],Y,,,,Male,20
,,,,,,,"29, 20, 1",,,,,
0,50,50,360,2,['k'],['k'],Y,,,,Male,20
0,51,51,558,2,['k'],['k'],Y,,,,Male,20
0,52,52,36,2,['d'],['d'],Y,,,,Male,20
0,53,53,569,2,['d'],['k'],N,,,,Male,20
0,54,54,48,2,['k'],['d'],N,,,,Male,20
0,55,55,111,2,['k'],['d'],N,,,,Male,20
0,56,56,306,2,['k'],['k'],Y,,,,Male,20
0,57,57,545,2,['k'],['k'],Y,,,,Male,20
0,58,58,417,2,['k'],['k'],Y,,,,Male,20
0,59,59,168,2,['d'],['d'],Y,,,,Male,20
0,60,60,405,2,['d'],['k'],N,,,,Male,20
0,61,61,212,2,['d'],['d'],Y,,,,Male,20
0,62,62,526,2,['d'],['k'],N,,,,Male,20
0,63,63,479,2,['k'],['k'],Y,,,,Male,20
0,64,64,55,2,['d'],['d'],Y,,,,Male,20
0,65,65,276,2,['d'],['d'],Y,,,,Male,20
0,66,66,291,2,['d'],['d'],Y,,,,Male,20
0,67,67,536,2,['d'],['k'],N,,,,Male,20
0,68,68,432,2,['k'],['k'],Y,,,,Male,20
0,69,69,268,2,['d'],['d'],Y,,,,Male,20
0,70,70,45,2,['k'],['d'],N,,,,Male,20
0,71,71,267,2,['d'],['d'],Y,,,,Male,20
0,72,72,451,2,['k'],['k'],Y,,,,Male,20
0,73,73,322,2,['d'],['k'],N,,,,Male,20
0,74,74,245,2,['k'],['d'],N,,,,Male,20
0,75,75,491,2,['d'],['k'],N,,,,Male,20
0,76,76,202,2,['d'],['d'],Y,,,,Male,20
0,77,77,252,2,['d'],['d'],Y,,,,Male,20
0,78,78,485,2,['d'],['k'],N,,,,Male,20
0,79,79,484,2,['k'],['k'],Y,,,,Male,20
0,80,80,11,2,['d'],['d'],Y,,,,Male,20
0,81,81,262,2,['d'],['d'],Y,,,,Male,20
0,82,82,538,2,['k'],['k'],Y,,,,Male,20
0,83,83,375,2,['d'],['k'],N,,,,Male,20
0,84,84,57,2,['d'],['d'],Y,,,,Male,20
0,85,85,46,2,['d'],['d'],Y,,,,Male,20
0,86,86,578,2,['d'],['k'],N,,,,Male,20
0,87,87,475,2,['k'],['k'],Y,,,,Male,20
0,88,88,514,2,['k'],['k'],Y,,,,Male,20
0,89,89,122,2,['d'],['d'],Y,,,,Male,20
0,90,90,441,2,['k'],['k'],Y,,,,Male,20
0,91,91,501,2,['d'],['k'],N,,,,Male,20
0,92,92,93,2,['k'],['d'],N,,,,Male,20
0,93,93,337,2,['k'],['k'],Y,,,,Male,20
0,94,94,535,2,['k'],['k'],Y,,,,Male,20
0,95,95,364,2,['k'],['k'],Y,,,,Male,20
0,96,96,574,2,['k'],['k'],Y,,,,Male,20
0,97,97,232,2,['k'],['d'],N,,,,Male,20
0,98,98,450,2,['k'],['k'],Y,,,,Male,20
0,99,99,320,2,['k'],['k'],Y,,,,Male,20
,,,,,,,"34, 16",,,,,
0,100,100,274,3,['k'],['d'],N,,,,Male,20
0,101,101,151,3,['d'],['d'],Y,,,,Male,20
0,102,102,488,3,['k'],['k'],Y,,,,Male,20
0,103,103,1,3,['d'],['d'],Y,,,,Male,20
0,104,104,302,3,['k'],['k'],Y,,,,Male,20
0,105,105,435,3,['k'],['k'],Y,,,,Male,20
0,106,106,258,3,['d'],['d'],Y,,,,Male,20
0,107,107,531,3,['k'],['k'],Y,,,,Male,20
0,108,108,318,3,['k'],['k'],Y,,,,Male,20
0,109,109,465,3,['k'],['k'],Y,,,,Male,20
0,110,110,263,3,['d'],['d'],Y,,,,Male,20
0,111,111,550,3,['k'],['k'],Y,,,,Male,20
0,112,112,176,3,['d'],['d'],Y,,,,Male,20
0,113,113,120,3,['d'],['d'],Y,,,,Male,20
0,114,114,22,3,['k'],['d'],N,,,,Male,20
0,115,115,349,3,['d'],['k'],N,,,,Male,20
0,116,116,0,3,['d'],['d'],Y,,,,Male,20
0,117,117,112,3,['d'],['d'],Y,,,,Male,20
0,118,118,556,3,['k'],['k'],Y,,,,Male,20
0,119,119,121,3,['d'],['d'],Y,,,,Male,20
0,120,120,211,3,['d'],['d'],Y,,,,Male,20
0,121,121,568,3,['k'],['k'],Y,,,,Male,20
0,122,122,473,3,['k'],['k'],Y,,,,Male,20
0,123,123,135,3,['d'],['d'],Y,,,,Male,20
0,124,124,293,3,['d'],['d'],Y,,,,Male,20
0,125,125,476,3,['k'],['k'],Y,,,,Male,20
0,126,126,99,3,['d'],['d'],Y,,,,Male,20
0,127,127,423,3,['k'],['k'],Y,,,,Male,20
0,128,128,292,3,['d'],['d'],Y,,,,Male,20
0,129,129,170,3,['d'],['d'],Y,,,,Male,20
0,130,130,560,3,['k'],['k'],Y,,,,Male,20
0,131,131,429,3,['k'],['k'],Y,,,,Male,20
0,132,132,169,3,['d'],['d'],Y,,,,Male,20
0,133,133,581,3,['k'],['k'],Y,,,,Male,20
0,134,134,91,3,['d'],['d'],Y,,,,Male,20
0,135,135,150,3,['d'],['d'],Y,,,,Male,20
0,136,136,357,3,['k'],['k'],Y,,,,Male,20
0,137,137,315,3,['k'],['k'],Y,,,,Male,20
0,138,138,598,3,['k'],['k'],Y,,,,Male,20
0,139,139,265,3,['d'],['d'],Y,,,,Male,20
0,140,140,599,3,['k'],['k'],Y,,,,Male,20
0,141,141,76,3,['d'],['d'],Y,,,,Male,20
0,142,142,68,3,['d'],['d'],Y,,,,Male,20
0,143,143,555,3,['k'],['k'],Y,,,,Male,20
0,144,144,132,3,['d'],['d'],Y,,,,Male,20
0,145,145,19,3,['d'],['d'],Y,,,,Male,20
0,146,146,8,3,['k'],['d'],N,,,,Male,20
0,147,147,400,3,['k'],['k'],Y,,,,Male,20
0,148,148,573,3,['k'],['k'],Y,,,,Male,20
0,149,149,454,3,['k'],['k'],Y,,,,Male,20
,,,,,,,"46, 4",,,,,
0,150,150,59,4,['d'],['d'],Y,,,,Male,20
0,151,151,131,4,['d'],['d'],Y,,,,Male,20
0,152,152,319,4,['k'],['k'],Y,,,,Male,20
0,153,153,414,4,['k'],['k'],Y,,,,Male,20
0,154,154,305,4,['k'],['k'],Y,,,,Male,20
0,155,155,222,4,['d'],['d'],Y,,,,Male,20
0,156,156,347,4,['k'],['k'],Y,,,,Male,20
0,157,157,418,4,['k'],['k'],Y,,,,Male,20
0,158,158,279,4,['d'],['d'],Y,,,,Male,20
0,159,159,12,4,['k'],['d'],N,,,,Male,20
0,160,160,113,4,['d'],['d'],Y,,,,Male,20
0,161,161,249,4,['d'],['d'],Y,,,,Male,20
0,162,162,500,4,['k'],['k'],Y,,,,Male,20
0,163,163,179,4,['d'],['d'],Y,,,,Male,20
0,164,164,579,4,['k'],['k'],Y,,,,Male,20
0,165,165,523,4,['k'],['k'],Y,,,,Male,20
0,166,166,38,4,['d'],['d'],Y,,,,Male,20
0,167,167,329,4,['k'],['k'],Y,,,,Male,20
0,168,168,7,4,['d'],['d'],Y,,,,Male,20
0,169,169,520,4,['k'],['k'],Y,,,,Male,20
0,170,170,248,4,['d'],['d'],Y,,,,Male,20
0,171,171,489,4,['k'],['k'],Y,,,,Male,20
0,172,172,436,4,['k'],['k'],Y,,,,Male,20
0,173,173,65,4,['d'],['d'],Y,,,,Male,20
0,174,174,23,4,['d'],['d'],Y,,,,Male,20
0,175,175,480,4,['k'],['k'],Y,,,,Male,20
0,176,176,434,4,['k'],['k'],Y,,,,Male,20
0,177,177,471,4,['k'],['k'],Y,,,,Male,20
0,178,178,510,4,['k'],['k'],Y,,,,Male,20
0,179,179,468,4,['k'],['k'],Y,,,,Male,20
0,180,180,438,4,['k'],['k'],Y,,,,Male,20
0,181,181,542,4,['k'],['k'],Y,,,,Male,20
0,182,182,505,4,['k'],['k'],Y,,,,Male,20
0,183,183,421,4,['k'],['k'],Y,,,,Male,20
0,184,184,325,4,['k'],['k'],Y,,,,Male,20
0,185,185,282,4,['d'],['d'],Y,,,,Male,20
0,186,186,239,4,['d'],['d'],Y,,,,Male,20
0,187,187,283,4,['k'],['d'],N,,,,Male,20
0,188,188,504,4,['k'],['k'],Y,,,,Male,20
0,189,189,571,4,['k'],['k'],Y,,,,Male,20
0,190,190,367,4,['k'],['k'],Y,,,,Male,20
0,191,191,546,4,['k'],['k'],Y,,,,Male,20
0,192,192,77,4,['d'],['d'],Y,,,,Male,20
0,193,193,390,4,['k'],['k'],Y,,,,Male,20
0,194,194,116,4,['d'],['d'],Y,,,,Male,20
0,195,195,187,4,['k'],['d'],N,,,,Male,20
0,196,196,79,4,['d'],['d'],Y,,,,Male,20
0,197,197,597,4,['k'],['k'],Y,,,,Male,20
0,198,198,323,4,['d'],['k'],N,,,,Male,20
0,199,199,236,4,['d'],['d'],Y,,,,Male,20
,,,,,,,"46, 4",,,,,
0,200,200,507,5,['k'],['k'],Y,,,,Male,20
0,201,201,17,5,['d'],['d'],Y,,,,Male,20
0,202,202,205,5,['d'],['d'],Y,,,,Male,20
0,203,203,157,5,['d'],['d'],Y,,,,Male,20
0,204,204,101,5,['d'],['d'],Y,,,,Male,20
0,205,205,461,5,['k'],['k'],Y,,,,Male,20
0,206,206,395,5,['k'],['k'],Y,,,,Male,20
0,207,207,139,5,['d'],['d'],Y,,,,Male,20
0,208,208,174,5,['d'],['d'],Y,,,,Male,20
0,209,209,467,5,['k'],['k'],Y,,,,Male,20
0,210,210,85,5,['d'],['d'],Y,,,,Male,20
0,211,211,251,5,['d'],['d'],Y,,,,Male,20
0,212,212,201,5,['d'],['d'],Y,,,,Male,20
0,213,213,562,5,['k'],['k'],Y,,,,Male,20
0,214,214,404,5,['k'],['k'],Y,,,,Male,20
0,215,215,217,5,['d'],['d'],Y,,,,Male,20
0,216,216,165,5,['k'],['d'],N,,,,Male,20
0,217,217,266,5,['d'],['d'],Y,,,,Male,20
0,218,218,154,5,['d'],['d'],Y,,,,Male,20
0,219,219,109,5,['d'],['d'],Y,,,,Male,20
0,220,220,144,5,['d'],['d'],Y,,,,Male,20
0,221,221,69,5,['d'],['d'],Y,,,,Male,20
0,222,222,215,5,['d'],['d'],Y,,,,Male,20
0,223,223,539,5,['k'],['k'],Y,,,,Male,20
0,224,224,406,5,['k'],['k'],Y,,,,Male,20
0,225,225,203,5,['d'],['d'],Y,,,,Male,20
0,226,226,137,5,['d'],['d'],Y,,,,Male,20
0,227,227,9,5,['d'],['d'],Y,,,,Male,20
0,228,228,326,5,['d'],['k'],N,,,,Male,20
0,229,229,172,5,['k'],['d'],N,,,,Male,20
0,230,230,393,5,['k'],['k'],Y,,,,Male,20
0,231,231,243,5,['d'],['d'],Y,,,,Male,20
0,232,232,324,5,['k'],['k'],Y,,,,Male,20
0,233,233,178,5,['d'],['d'],Y,,,,Male,20
0,234,234,24,5,['d'],['d'],Y,,,,Male,20
0,235,235,228,5,['d'],['d'],Y,,,,Male,20
0,236,236,519,5,['k'],['k'],Y,,,,Male,20
0,237,237,214,5,['d'],['d'],Y,,,,Male,20
0,238,238,96,5,['d'],['d'],Y,,,,Male,20
0,239,239,455,5,['k'],['k'],Y,,,,Male,20
0,240,240,522,5,['k'],['k'],Y,,,,Male,20
0,241,241,314,5,['k'],['k'],Y,,,,Male,20
0,242,242,223,5,['d'],['d'],Y,,,,Male,20
0,243,243,287,5,['d'],['d'],Y,,,,Male,20
0,244,244,334,5,['k'],['k'],Y,,,,Male,20
0,245,245,444,5,['k'],['k'],Y,,,,Male,20
0,246,246,366,5,['k'],['k'],Y,,,,Male,20
0,247,247,470,5,['k'],['k'],Y,,,,Male,20
0,248,248,177,5,['d'],['d'],Y,,,,Male,20
0,249,249,226,5,['d'],['d'],Y,,,,Male,20
,,,,,,,"47, 3",,,,,
0,250,250,107,6,['d'],['d'],Y,,,,Male,20
0,251,251,130,6,['d'],['d'],Y,,,,Male,20
0,252,252,234,6,['d'],['d'],Y,,,,Male,20
0,253,253,385,6,['k'],['k'],Y,,,,Male,20
0,254,254,230,6,['d'],['d'],Y,,,,Male,20
0,255,255,272,6,['d'],['d'],Y,,,,Male,20
0,256,256,275,6,['d'],['d'],Y,,,,Male,20
0,257,257,553,6,['k'],['k'],Y,,,,Male,20
0,258,258,370,6,['k'],['k'],Y,,,,Male,20
0,259,259,78,6,['d'],['d'],Y,,,,Male,20
0,260,260,143,6,['d'],['d'],Y,,,,Male,20
0,261,261,238,6,['d'],['d'],Y,,,,Male,20
0,262,262,160,6,['d'],['d'],Y,,,,Male,20
0,263,263,551,6,['k'],['k'],Y,,,,Male,20
0,264,264,33,6,['d'],['d'],Y,,,,Male,20
0,265,265,237,6,['d'],['d'],Y,,,,Male,20
0,266,266,54,6,['d'],['d'],Y,,,,Male,20
0,267,267,431,6,['k'],['k'],Y,,,,Male,20
0,268,268,70,6,['d'],['d'],Y,,,,Male,20
0,269,269,250,6,['d'],['d'],Y,,,,Male,20
0,270,270,164,6,['d'],['d'],Y,,,,Male,20
0,271,271,313,6,['k'],['k'],Y,,,,Male,20
0,272,272,92,6,['d'],['d'],Y,,,,Male,20
0,273,273,447,6,['k'],['k'],Y,,,,Male,20
0,274,274,224,6,['d'],['d'],Y,,,,Male,20
0,275,275,378,6,['k'],['k'],Y,,,,Male,20
0,276,276,449,6,['d'],['k'],N,,,,Male,20
0,277,277,506,6,['k'],['k'],Y,,,,Male,20
0,278,278,210,6,['d'],['d'],Y,,,,Male,20
0,279,279,105,6,['d'],['d'],Y,,,,Male,20
0,280,280,430,6,['k'],['k'],Y,,,,Male,20
0,281,281,104,6,['d'],['d'],Y,,,,Male,20
0,282,282,524,6,['k'],['k'],Y,,,,Male,20
0,283,283,380,6,['k'],['k'],Y,,,,Male,20
0,284,284,264,6,['d'],['d'],Y,,,,Male,20
0,285,285,242,6,['d'],['d'],Y,,,,Male,20
0,286,286,95,6,['d'],['d'],Y,,,,Male,20
0,287,287,25,6,['d'],['d'],Y,,,,Male,20
0,288,288,126,6,['d'],['d'],Y,,,,Male,20
0,289,289,183,6,['d'],['d'],Y,,,,Male,20
0,290,290,72,6,['k'],['d'],N,,,,Male,20
0,291,291,246,6,['d'],['d'],Y,,,,Male,20
0,292,292,142,6,['d'],['d'],Y,,,,Male,20
0,293,293,231,6,['d'],['d'],Y,,,,Male,20
0,294,294,527,6,['k'],['k'],Y,,,,Male,20
0,295,295,384,6,['k'],['k'],Y,,,,Male,20
0,296,296,280,6,['k'],['d'],N,,,,Male,20
0,297,297,41,6,['d'],['d'],Y,,,,Male,20
0,298,298,463,6,['k'],['k'],Y,,,,Male,20
0,299,299,409,6,['k'],['k'],Y,,,,Male,20
,,,,,,,"47, 3",,,,,
0,300,300,89,7,['d'],['d'],Y,,,,Male,20
0,301,301,30,7,['d'],['d'],Y,,,,Male,20
0,302,302,552,7,['k'],['k'],Y,,,,Male,20
0,303,303,493,7,['k'],['k'],Y,,,,Male,20
0,304,304,490,7,['k'],['k'],Y,,,,Male,20
0,305,305,235,7,['d'],['d'],Y,,,,Male,20
0,306,306,399,7,['k'],['k'],Y,,,,Male,20
0,307,307,289,7,['d'],['d'],Y,,,,Male,20
0,308,308,462,7,['k'],['k'],Y,,,,Male,20
0,309,309,391,7,['k'],['k'],Y,,,,Male,20
0,310,310,387,7,['k'],['k'],Y,,,,Male,20
0,311,311,398,7,['k'],['k'],Y,,,,Male,20
0,312,312,191,7,['d'],['d'],Y,,,,Male,20
0,313,313,309,7,['k'],['k'],Y,,,,Male,20
0,314,314,416,7,['k'],['k'],Y,,,,Male,20
0,315,315,192,7,['d'],['d'],Y,,,,Male,20
0,316,316,464,7,['k'],['k'],Y,,,,Male,20
0,317,317,533,7,['k'],['k'],Y,,,,Male,20
0,318,318,97,7,['d'],['d'],Y,,,,Male,20
0,319,319,115,7,['d'],['d'],Y,,,,Male,20
0,320,320,128,7,['d'],['d'],Y,,,,Male,20
0,321,321,374,7,['d'],['k'],N,,,,Male,20
0,322,322,108,7,['k'],['d'],N,,,,Male,20
0,323,323,317,7,['k'],['k'],Y,,,,Male,20
0,324,324,345,7,['k'],['k'],Y,,,,Male,20
0,325,325,58,7,['d'],['d'],Y,,,,Male,20
0,326,326,241,7,['d'],['d'],Y,,,,Male,20
0,327,327,382,7,['k'],['k'],Y,,,,Male,20
0,328,328,518,7,['k'],['k'],Y,,,,Male,20
0,329,329,194,7,['d'],['d'],Y,,,,Male,20
0,330,330,200,7,['d'],['d'],Y,,,,Male,20
0,331,331,125,7,['d'],['d'],Y,,,,Male,20
0,332,332,98,7,['d'],['d'],Y,,,,Male,20
0,333,333,153,7,['d'],['d'],Y,,,,Male,20
0,334,334,596,7,['k'],['k'],Y,,,,Male,20
0,335,335,260,7,['d'],['d'],Y,,,,Male,20
0,336,336,482,7,['k'],['k'],Y,,,,Male,20
0,337,337,420,7,['k'],['k'],Y,,,,Male,20
0,338,338,197,7,['d'],['d'],Y,,,,Male,20
0,339,339,593,7,['k'],['k'],Y,,,,Male,20
0,340,340,198,7,['d'],['d'],Y,,,,Male,20
0,341,341,127,7,['d'],['d'],Y,,,,Male,20
0,342,342,186,7,['d'],['d'],Y,,,,Male,20
0,343,343,389,7,['k'],['k'],Y,,,,Male,20
0,344,344,411,7,['k'],['k'],Y,,,,Male,20
0,345,345,84,7,['d'],['d'],Y,,,,Male,20
0,346,346,100,7,['d'],['d'],Y,,,,Male,20
0,347,347,335,7,['k'],['k'],Y,,,,Male,20
0,348,348,529,7,['k'],['k'],Y,,,,Male,20
0,349,349,13,7,['d'],['d'],Y,,,,Male,20
,,,,,,,"48, 2",,,,,
0,350,350,563,8,['k'],['k'],Y,,,,Male,20
0,351,351,10,8,['d'],['d'],Y,,,,Male,20
0,352,352,21,8,['k'],['d'],N,,,,Male,20
0,353,353,156,8,['d'],['d'],Y,,,,Male,20
0,354,354,580,8,['k'],['k'],Y,,,,Male,20
0,355,355,301,8,['k'],['k'],Y,,,,Male,20
0,356,356,171,8,['d'],['d'],Y,,,,Male,20
0,357,357,159,8,['d'],['d'],Y,,,,Male,20
0,358,358,588,8,['k'],['k'],Y,,,,Male,20
0,359,359,62,8,['d'],['d'],Y,,,,Male,20
0,360,360,81,8,['d'],['d'],Y,,,,Male,20
0,361,361,138,8,['d'],['d'],Y,,,,Male,20
0,362,362,413,8,['k'],['k'],Y,,,,Male,20
0,363,363,554,8,['k'],['k'],Y,,,,Male,20
0,364,364,481,8,['k'],['k'],Y,,,,Male,20
0,365,365,583,8,['k'],['k'],Y,,,,Male,20
0,366,366,396,8,['k'],['k'],Y,,,,Male,20
0,367,367,352,8,['k'],['k'],Y,,,,Male,20
0,368,368,386,8,['k'],['k'],Y,,,,Male,20
0,369,369,567,8,['d'],['k'],N,,,,Male,20
0,370,370,402,8,['k'],['k'],Y,,,,Male,20
0,371,371,589,8,['k'],['k'],Y,,,,Male,20
0,372,372,256,8,['d'],['d'],Y,,,,Male,20
0,373,373,388,8,['k'],['k'],Y,,,,Male,20
0,374,374,167,8,['d'],['d'],Y,,,,Male,20
0,375,375,503,8,['k'],['k'],Y,,,,Male,20
0,376,376,457,8,['k'],['k'],Y,,,,Male,20
0,377,377,80,8,['d'],['d'],Y,,,,Male,20
0,378,378,410,8,['k'],['k'],Y,,,,Male,20
0,379,379,141,8,['d'],['d'],Y,,,,Male,20
0,380,380,561,8,['d'],['k'],N,,,,Male,20
0,381,381,316,8,['k'],['k'],Y,,,,Male,20
0,382,382,456,8,['k'],['k'],Y,,,,Male,20
0,383,383,240,8,['d'],['d'],Y,,,,Male,20
0,384,384,446,8,['k'],['k'],Y,,,,Male,20
0,385,385,233,8,['d'],['d'],Y,,,,Male,20
0,386,386,83,8,['d'],['d'],Y,,,,Male,20
0,387,387,312,8,['k'],['k'],Y,,,,Male,20
0,388,388,56,8,['d'],['d'],Y,,,,Male,20
0,389,389,49,8,['d'],['d'],Y,,,,Male,20
0,390,390,425,8,['k'],['k'],Y,,,,Male,20
0,391,391,564,8,['k'],['k'],Y,,,,Male,20
0,392,392,565,8,['k'],['k'],Y,,,,Male,20
0,393,393,103,8,['d'],['d'],Y,,,,Male,20
0,394,394,52,8,['d'],['d'],Y,,,,Male,20
0,395,395,297,8,['d'],['d'],Y,,,,Male,20
0,396,396,369,8,['k'],['k'],Y,,,,Male,20
0,397,397,354,8,['k'],['k'],Y,,,,Male,20
0,398,398,327,8,['k'],['k'],Y,,,,Male,20
0,399,399,199,8,['d'],['d'],Y,,,,Male,20
,,,,,,,"47, 3",,,,,
0,400,400,453,9,['k'],['k'],Y,,,,Male,20
0,401,401,61,9,['d'],['d'],Y,,,,Male,20
0,402,402,90,9,['d'],['d'],Y,,,,Male,20
0,403,403,415,9,['k'],['k'],Y,,,,Male,20
0,404,404,134,9,['d'],['d'],Y,,,,Male,20
0,405,405,42,9,['d'],['d'],Y,,,,Male,20
0,406,406,338,9,['k'],['k'],Y,,,,Male,20
0,407,407,254,9,['d'],['d'],Y,,,,Male,20
0,408,408,281,9,['d'],['d'],Y,,,,Male,20
0,409,409,426,9,['k'],['k'],Y,,,,Male,20
0,410,410,161,9,['d'],['d'],Y,,,,Male,20
0,411,411,537,9,['k'],['k'],Y,,,,Male,20
0,412,412,227,9,['d'],['d'],Y,,,,Male,20
0,413,413,285,9,['d'],['d'],Y,,,,Male,20
0,414,414,478,9,['k'],['k'],Y,,,,Male,20
0,415,415,88,9,['d'],['d'],Y,,,,Male,20
0,416,416,359,9,['k'],['k'],Y,,,,Male,20
0,417,417,439,9,['d'],['k'],N,,,,Male,20
0,418,418,495,9,['k'],['k'],Y,,,,Male,20
0,419,419,299,9,['k'],['d'],N,,,,Male,20
0,420,420,368,9,['k'],['k'],Y,,,,Male,20
0,421,421,123,9,['d'],['d'],Y,,,,Male,20
0,422,422,373,9,['k'],['k'],Y,,,,Male,20
0,423,423,74,9,['d'],['d'],Y,,,,Male,20
0,424,424,332,9,['k'],['k'],Y,,,,Male,20
0,425,425,307,9,['k'],['k'],Y,,,,Male,20
0,426,426,336,9,['k'],['k'],Y,,,,Male,20
0,427,427,106,9,['d'],['d'],Y,,,,Male,20
0,428,428,427,9,['k'],['k'],Y,,,,Male,20
0,429,429,372,9,['k'],['k'],Y,,,,Male,20
0,430,430,196,9,['d'],['d'],Y,,,,Male,20
0,431,431,331,9,['k'],['k'],Y,,,,Male,20
0,432,432,513,9,['k'],['k'],Y,,,,Male,20
0,433,433,353,9,['k'],['k'],Y,,,,Male,20
0,434,434,218,9,['k'],['d'],N,,,,Male,20
0,435,435,424,9,['k'],['k'],Y,,,,Male,20
0,436,436,512,9,['k'],['k'],Y,,,,Male,20
0,437,437,575,9,['k'],['k'],Y,,,,Male,20
0,438,438,253,9,['d'],['d'],Y,,,,Male,20
0,439,439,448,9,['k'],['k'],Y,,,,Male,20
0,440,440,585,9,['k'],['k'],Y,,,,Male,20
0,441,441,497,9,['k'],['k'],Y,,,,Male,20
0,442,442,32,9,['d'],['d'],Y,,,,Male,20
0,443,443,28,9,['d'],['d'],Y,,,,Male,20
0,444,444,572,9,['k'],['k'],Y,,,,Male,20
0,445,445,355,9,['k'],['k'],Y,,,,Male,20
0,446,446,311,9,['k'],['k'],Y,,,,Male,20
0,447,447,477,9,['k'],['k'],Y,,,,Male,20
0,448,448,225,9,['d'],['d'],Y,,,,Male,20
0,449,449,71,9,['d'],['d'],Y,,,,Male,20
,,,,,,,"47, 3",,,,,
0,450,450,158,10,['d'],['d'],Y,,,,Male,20
0,451,451,155,10,['k'],['d'],N,,,,Male,20
0,452,452,442,10,['k'],['k'],Y,,,,Male,20
0,453,453,295,10,['d'],['d'],Y,,,,Male,20
0,454,454,175,10,['d'],['d'],Y,,,,Male,20
0,455,455,509,10,['k'],['k'],Y,,,,Male,20
0,456,456,6,10,['d'],['d'],Y,,,,Male,20
0,457,457,145,10,['d'],['d'],Y,,,,Male,20
0,458,458,511,10,['k'],['k'],Y,,,,Male,20
0,459,459,383,10,['k'],['k'],Y,,,,Male,20
0,460,460,498,10,['k'],['k'],Y,,,,Male,20
0,461,461,492,10,['d'],['k'],N,,,,Male,20
0,462,462,595,10,['k'],['k'],Y,,,,Male,20
0,463,463,296,10,['d'],['d'],Y,,,,Male,20
0,464,464,213,10,['d'],['d'],Y,,,,Male,20
0,465,465,547,10,['k'],['k'],Y,,,,Male,20
0,466,466,356,10,['k'],['k'],Y,,,,Male,20
0,467,467,269,10,['d'],['d'],Y,,,,Male,20
0,468,468,549,10,['k'],['k'],Y,,,,Male,20
0,469,469,221,10,['d'],['d'],Y,,,,Male,20
0,470,470,377,10,['k'],['k'],Y,,,,Male,20
0,471,471,466,10,['k'],['k'],Y,,,,Male,20
0,472,472,516,10,['k'],['k'],Y,,,,Male,20
0,473,473,147,10,['d'],['d'],Y,,,,Male,20
0,474,474,339,10,['k'],['k'],Y,,,,Male,20
0,475,475,358,10,['k'],['k'],Y,,,,Male,20
0,476,476,486,10,['k'],['k'],Y,,,,Male,20
0,477,477,50,10,['d'],['d'],Y,,,,Male,20
0,478,478,110,10,['d'],['d'],Y,,,,Male,20
0,479,479,394,10,['k'],['k'],Y,,,,Male,20
0,480,480,517,10,['d'],['k'],N,,,,Male,20
0,481,481,300,10,['k'],['k'],Y,,,,Male,20
0,482,482,534,10,['k'],['k'],Y,,,,Male,20
0,483,483,149,10,['d'],['d'],Y,,,,Male,20
0,484,484,94,10,['d'],['d'],Y,,,,Male,20
0,485,485,184,10,['d'],['d'],Y,,,,Male,20
0,486,486,502,10,['k'],['k'],Y,,,,Male,20
0,487,487,407,10,['k'],['k'],Y,,,,Male,20
0,488,488,412,10,['k'],['k'],Y,,,,Male,20
0,489,489,39,10,['d'],['d'],Y,,,,Male,20
0,490,490,220,10,['d'],['d'],Y,,,,Male,20
0,491,491,60,10,['d'],['d'],Y,,,,Male,20
0,492,492,261,10,['d'],['d'],Y,,,,Male,20
0,493,493,528,10,['k'],['k'],Y,,,,Male,20
0,494,494,290,10,['d'],['d'],Y,,,,Male,20
0,495,495,594,10,['k'],['k'],Y,,,,Male,20
0,496,496,381,10,['k'],['k'],Y,,,,Male,20
0,497,497,361,10,['k'],['k'],Y,,,,Male,20
0,498,498,82,10,['d'],['d'],Y,,,,Male,20
0,499,499,181,10,['d'],['d'],Y,,,,Male,20
,,,,,,,"47, 3",,,,,
0,500,500,146,11,['k'],['d'],Y,Y,Y,Y,Male,20
0,501,501,208,11,['k'],['d'],Y,,Y,Y,Male,20
0,502,502,189,11,['k'],['d'],Y,,Y,Y,Male,20
0,503,503,163,11,['k'],['d'],Y,,Y,Y,Male,20
0,504,504,530,11,['d'],['k'],Y,,Y,Y,Male,20
0,505,505,29,11,['k'],['d'],Y,,Y,Y,Male,20
0,506,506,577,11,['d'],['k'],Y,,Y,Y,Male,20
0,507,507,363,11,['d'],['k'],Y,,Y,Y,Male,20
0,508,508,273,11,['k'],['d'],Y,,Y,Y,Male,20
0,509,509,321,11,['d'],['k'],Y,,Y,Y,Male,20
0,510,510,541,11,['d'],['k'],Y,,Y,Y,Male,20
0,511,511,133,11,['k'],['d'],Y,,Y,Y,Male,20
0,512,512,483,11,['k'],['k'],N,,Y,Y,Male,20
0,513,513,182,11,['d'],['d'],N,,Y,Y,Male,20
0,514,514,591,11,['d'],['k'],Y,,Y,Y,Male,20
0,515,515,209,11,['k'],['d'],Y,,Y,Y,Male,20
0,516,516,437,11,['d'],['k'],Y,,Y,Y,Male,20
0,517,517,474,11,['d'],['k'],Y,,Y,Y,Male,20
0,518,518,288,11,['k'],['d'],Y,,Y,Y,Male,20
0,519,519,544,11,['d'],['k'],Y,,Y,Y,Male,20
0,520,520,140,11,['k'],['d'],Y,,Y,Y,Male,20
0,521,521,342,11,['d'],['k'],Y,,Y,Y,Male,20
0,522,522,333,11,['d'],['k'],Y,,Y,Y,Male,20
0,523,523,557,11,['d'],['k'],Y,,Y,Y,Male,20
0,524,524,428,11,['d'],['k'],Y,,Y,Y,Male,20
0,525,525,53,11,['k'],['d'],Y,,Y,Y,Male,20
0,526,526,257,11,['k'],['d'],Y,,Y,Y,Male,20
0,527,527,592,11,['d'],['k'],Y,,Y,Y,Male,20
0,528,528,195,11,['k'],['d'],Y,,Y,Y,Male,20
0,529,529,443,11,['d'],['k'],Y,,Y,Y,Male,20
0,530,530,43,11,['k'],['d'],Y,,Y,Y,Male,20
0,531,531,136,11,['k'],['d'],Y,,Y,Y,Male,20
0,532,532,298,11,['k'],['d'],Y,,Y,Y,Male,20
0,533,533,180,11,['k'],['d'],Y,,Y,Y,Male,20
0,534,534,403,11,['d'],['k'],Y,,Y,Y,Male,20
0,535,535,27,11,['k'],['d'],Y,,Y,Y,Male,20
0,536,536,26,11,['k'],['d'],Y,,Y,Y,Male,20
0,537,537,548,11,['k'],['k'],N,,Y,Y,Male,20
0,538,538,162,11,['k'],['d'],Y,,Y,Y,Male,20
0,539,539,459,11,['d'],['k'],Y,,Y,Y,Male,20
0,540,540,117,11,['k'],['d'],Y,,Y,Y,Male,20
0,541,541,277,11,['k'],['d'],Y,,Y,Y,Male,20
0,542,542,73,11,['k'],['d'],Y,,Y,Y,Male,20
0,543,543,499,11,['d'],['k'],Y,,Y,Y,Male,20
0,544,544,15,11,['k'],['d'],Y,,Y,Y,Male,20
0,545,545,114,11,['k'],['d'],Y,,Y,Y,Male,20
0,546,546,20,11,['k'],['d'],Y,,Y,Y,Male,20
0,547,547,440,11,['d'],['k'],Y,,Y,Y,Male,20
0,548,548,469,11,['d'],['k'],Y,,Y,Y,Male,20
0,549,549,532,11,['d'],['k'],Y,,Y,Y,Male,20
,,,,,,,"47, 3",,,,,
0,550,550,44,12,['d'],['d'],N,,Y,Y,Male,20
0,551,551,148,12,['k'],['d'],Y,,Y,Y,Male,20
0,552,552,166,12,['k'],['d'],Y,,Y,Y,Male,20
0,553,553,206,12,['k'],['d'],Y,,Y,Y,Male,20
0,554,554,278,12,['k'],['d'],Y,,Y,Y,Male,20
0,555,555,401,12,['d'],['k'],Y,,Y,Y,Male,20
0,556,556,190,12,['k'],['d'],Y,,Y,Y,Male,20
0,557,557,543,12,['d'],['k'],Y,,Y,Y,Male,20
0,558,558,362,12,['d'],['k'],Y,,Y,Y,Male,20
0,559,559,216,12,['k'],['d'],Y,,Y,Y,Male,20
0,560,560,303,12,['d'],['k'],Y,,Y,Y,Male,20
0,561,561,559,12,['k'],['k'],N,,Y,Y,Male,20
0,562,562,576,12,['d'],['k'],Y,,Y,Y,Male,20
0,563,563,67,12,['k'],['d'],Y,,Y,Y,Male,20
0,564,564,173,12,['k'],['d'],Y,,Y,Y,Male,20
0,565,565,244,12,['k'],['d'],Y,,Y,Y,Male,20
0,566,566,508,12,['d'],['k'],Y,,Y,Y,Male,20
0,567,567,340,12,['d'],['k'],Y,,Y,Y,Male,20
0,568,568,472,12,['d'],['k'],Y,,Y,Y,Male,20
0,569,569,3,12,['k'],['d'],Y,,Y,Y,Male,20
0,570,570,590,12,['d'],['k'],Y,,Y,Y,Male,20
0,571,571,64,12,['k'],['d'],Y,,Y,Y,Male,20
0,572,572,207,12,['k'],['d'],Y,,Y,Y,Male,20
0,573,573,348,12,['d'],['k'],Y,,Y,Y,Male,20
0,574,574,445,12,['d'],['k'],Y,,Y,Y,Male,20
0,575,575,152,12,['k'],['d'],Y,,Y,Y,Male,20
0,576,576,119,12,['k'],['d'],Y,,Y,Y,Male,20
0,577,577,310,12,['d'],['k'],Y,,Y,Y,Male,20
0,578,578,229,12,['k'],['d'],Y,,Y,Y,Male,20
0,579,579,270,12,['k'],['d'],Y,,Y,Y,Male,20
0,580,580,51,12,['d'],['d'],N,,Y,Y,Male,20
0,581,581,371,12,['d'],['k'],Y,,Y,Y,Male,20
0,582,582,34,12,['k'],['d'],Y,,Y,Y,Male,20
0,583,583,14,12,['k'],['d'],Y,,Y,Y,Male,20
0,584,584,259,12,['k'],['d'],Y,,Y,Y,Male,20
0,585,585,570,12,['d'],['k'],Y,,Y,Y,Male,20
0,586,586,2,12,['k'],['d'],Y,,Y,Y,Male,20
0,587,587,422,12,['d'],['k'],Y,,Y,Y,Male,20
0,588,588,86,12,['k'],['d'],Y,,Y,Y,Male,20
0,589,589,376,12,['d'],['k'],Y,,Y,Y,Male,20
0,590,590,525,12,['d'],['k'],Y,,Y,Y,Male,20
0,591,591,328,12,['d'],['k'],Y,,Y,Y,Male,20
0,592,592,66,12,['k'],['d'],Y,,Y,Y,Male,20
0,593,593,304,12,['d'],['k'],Y,,Y,Y,Male,20
0,594,594,37,12,['k'],['d'],Y,,Y,Y,Male,20
0,595,595,35,12,['k'],['d'],Y,,Y,Y,Male,20
0,596,596,540,12,['d'],['k'],Y,,Y,Y,Male,20
0,597,597,185,12,['k'],['d'],Y,,Y,Y,Male,20
0,598,598,584,12,['d'],['k'],Y,,Y,Y,Male,20
0,599,599,294,12,['k'],['d'],Y,,Y,Y,Male,20
,,,,,,,"47, 3",,,,,
