.thisRepN,.thisTrialN,.thisN,.thisIndex,Block Number,Key pressed,Category,Correct?,Button switch shown?,Actually switched?,Fast?,gender,age
0,0,0,569,1,['d'],['k'],N,,,,Male,18
0,1,1,41,1,['k'],['d'],N,,,,Male,18
0,2,2,304,1,['d'],['k'],N,,,,Male,18
0,3,3,285,1,['d'],['d'],Y,,,,Male,18
0,4,4,339,1,['k'],['k'],Y,,,,Male,18
0,5,5,418,1,['k'],['k'],Y,,,,Male,18
0,6,6,502,1,['d'],['k'],N,,,,Male,18
0,7,7,586,1,['d'],['k'],N,,,,Male,18
0,8,8,18,1,['k'],['d'],N,,,,Male,18
0,9,9,302,1,['d'],['k'],N,,,,Male,18
0,10,10,66,1,['k'],['d'],N,,,,Male,18
0,11,11,340,1,['k'],['k'],Y,,,,Male,18
0,12,12,211,1,['d'],['d'],Y,,,,Male,18
0,13,13,180,1,['k'],['d'],N,,,,Male,18
0,14,14,475,1,['k'],['k'],Y,,,,Male,18
0,15,15,282,1,['d'],['d'],Y,,,,Male,18
0,16,16,298,1,['k'],['d'],N,,,,Male,18
0,17,17,595,1,['d'],['k'],N,,,,Male,18
0,18,18,291,1,['d'],['d'],Y,,,,Male,18
0,19,19,199,1,['d'],['d'],Y,,,,Male,18
0,20,20,230,1,['d'],['d'],Y,,,,Male,18
0,21,21,587,1,['k'],['k'],Y,,,,Male,18
0,22,22,152,1,['d'],['d'],Y,,,,Male,18
0,23,23,523,1,['k'],['k'],Y,,,,Male,18
0,24,24,440,1,['k'],['k'],Y,,,,Male,18
0,25,25,540,1,['k'],['k'],Y,,,,Male,18
0,26,26,410,1,['d'],['k'],N,,,,Male,18
0,27,27,105,1,['d'],['d'],Y,,,,Male,18
0,28,28,254,1,['k'],['d'],N,,,,Male,18
0,29,29,145,1,['k'],['d'],N,,,,Male,18
0,30,30,7,1,['d'],['d'],Y,,,,Male,18
0,31,31,392,1,['k'],['k'],Y,,,,Male,18
0,32,32,116,1,['d'],['d'],Y,,,,Male,18
0,33,33,524,1,['k'],['k'],Y,,,,Male,18
0,34,34,146,1,['d'],['d'],Y,,,,Male,18
0,35,35,160,1,['d'],['d'],Y,,,,Male,18
0,36,36,460,1,['k'],['k'],Y,,,,Male,18
0,37,37,183,1,['d'],['d'],Y,,,,Male,18
0,38,38,447,1,['k'],['k'],Y,,,,Male,18
0,39,39,446,1,['k'],['k'],Y,,,,Male,18
0,40,40,482,1,['k'],['k'],Y,,,,Male,18
0,41,41,252,1,['d'],['d'],Y,,,,Male,18
0,42,42,222,1,['d'],['d'],Y,,,,Male,18
0,43,43,396,1,['k'],['k'],Y,,,,Male,18
0,44,44,177,1,['d'],['d'],Y,,,,Male,18
0,45,45,2,1,['k'],['d'],N,,,,Male,18
0,46,46,71,1,['d'],['d'],Y,,,,Male,18
0,47,47,588,1,['k'],['k'],Y,,,,Male,18
0,48,48,103,1,['d'],['d'],Y,,,,Male,18
0,49,49,342,1,['k'],['k'],Y,,,,Male,18
,,,,,,,"35, 15",,,,,
0,50,50,182,2,['d'],['d'],Y,,,,Male,18
0,51,51,8,2,['d'],['d'],Y,,,,Male,18
0,52,52,327,2,['k'],['k'],Y,,,,Male,18
0,53,53,73,2,['d'],['d'],Y,,,,Male,18
0,54,54,163,2,['d'],['d'],Y,,,,Male,18
0,55,55,270,2,['d'],['d'],Y,,,,Male,18
0,56,56,462,2,['k'],['k'],Y,,,,Male,18
0,57,57,306,2,['k'],['k'],Y,,,,Male,18
0,58,58,402,2,['k'],['k'],Y,,,,Male,18
0,59,59,258,2,['d'],['d'],Y,,,,Male,18
0,60,60,156,2,['d'],['d'],Y,,,,Male,18
0,61,61,25,2,['k'],['d'],N,,,,Male,18
0,62,62,283,2,['d'],['d'],Y,,,,Male,18
0,63,63,480,2,['k'],['k'],Y,,,,Male,18
0,64,64,247,2,['d'],['d'],Y,,,,Male,18
0,65,65,155,2,['d'],['d'],Y,,,,Male,18
0,66,66,426,2,['k'],['k'],Y,,,,Male,18
0,67,67,1,2,['d'],['d'],Y,,,,Male,18
0,68,68,287,2,['d'],['d'],Y,,,,Male,18
0,69,69,576,2,['k'],['k'],Y,,,,Male,18
0,70,70,506,2,['k'],['k'],Y,,,,Male,18
0,71,71,380,2,['k'],['k'],Y,,,,Male,18
0,72,72,121,2,['d'],['d'],Y,,,,Male,18
0,73,73,516,2,['k'],['k'],Y,,,,Male,18
0,74,74,33,2,['d'],['d'],Y,,,,Male,18
0,75,75,355,2,['k'],['k'],Y,,,,Male,18
0,76,76,487,2,['k'],['k'],Y,,,,Male,18
0,77,77,203,2,['d'],['d'],Y,,,,Male,18
0,78,78,519,2,['k'],['k'],Y,,,,Male,18
0,79,79,119,2,['d'],['d'],Y,,,,Male,18
0,80,80,571,2,['k'],['k'],Y,,,,Male,18
0,81,81,455,2,['k'],['k'],Y,,,,Male,18
0,82,82,543,2,['k'],['k'],Y,,,,Male,18
0,83,83,9,2,['d'],['d'],Y,,,,Male,18
0,84,84,6,2,['d'],['d'],Y,,,,Male,18
0,85,85,368,2,['k'],['k'],Y,,,,Male,18
0,86,86,30,2,['d'],['d'],Y,,,,Male,18
0,87,87,512,2,['k'],['k'],Y,,,,Male,18
0,88,88,452,2,['k'],['k'],Y,,,,Male,18
0,89,89,231,2,['d'],['d'],Y,,,,Male,18
0,90,90,190,2,['k'],['d'],N,,,,Male,18
0,91,91,272,2,['d'],['d'],Y,,,,Male,18
0,92,92,349,2,['k'],['k'],Y,,,,Male,18
0,93,93,458,2,['k'],['k'],Y,,,,Male,18
0,94,94,265,2,['d'],['d'],Y,,,,Male,18
0,95,95,147,2,['d'],['d'],Y,,,,Male,18
0,96,96,573,2,['k'],['k'],Y,,,,Male,18
0,97,97,133,2,['d'],['d'],Y,,,,Male,18
0,98,98,437,2,['k'],['k'],Y,,,,Male,18
0,99,99,204,2,['d'],['d'],Y,,,,Male,18
,,,,,,,"48, 2",,,,,
0,100,100,530,3,['k'],['k'],Y,,,,Male,18
0,101,101,405,3,['k'],['k'],Y,,,,Male,18
0,102,102,489,3,['k'],['k'],Y,,,,Male,18
0,103,103,129,3,['d'],['d'],Y,,,,Male,18
0,104,104,503,3,['k'],['k'],Y,,,,Male,18
0,105,105,78,3,['d'],['d'],Y,,,,Male,18
0,106,106,498,3,['k'],['k'],Y,,,,Male,18
0,107,107,559,3,['k'],['k'],Y,,,,Male,18
0,108,108,358,3,['k'],['k'],Y,,,,Male,18
0,109,109,548,3,['k'],['k'],Y,,,,Male,18
0,110,110,444,3,['k'],['k'],Y,,,,Male,18
0,111,111,111,3,['d'],['d'],Y,,,,Male,18
0,112,112,499,3,['k'],['k'],Y,,,,Male,18
0,113,113,274,3,['d'],['d'],Y,,,,Male,18
0,114,114,423,3,['k'],['k'],Y,,,,Male,18
0,115,115,197,3,['k'],['d'],N,,,,Male,18
0,116,116,256,3,['d'],['d'],Y,,,,Male,18
0,117,117,81,3,['d'],['d'],Y,,,,Male,18
0,118,118,324,3,['k'],['k'],Y,,,,Male,18
0,119,119,12,3,['k'],['d'],N,,,,Male,18
0,120,120,412,3,['k'],['k'],Y,,,,Male,18
0,121,121,294,3,['d'],['d'],Y,,,,Male,18
0,122,122,191,3,['d'],['d'],Y,,,,Male,18
0,123,123,70,3,['d'],['d'],Y,,,,Male,18
0,124,124,509,3,['k'],['k'],Y,,,,Male,18
0,125,125,562,3,['k'],['k'],Y,,,,Male,18
0,126,126,26,3,['d'],['d'],Y,,,,Male,18
0,127,127,175,3,['d'],['d'],Y,,,,Male,18
0,128,128,510,3,['k'],['k'],Y,,,,Male,18
0,129,129,234,3,['d'],['d'],Y,,,,Male,18
0,130,130,474,3,['k'],['k'],Y,,,,Male,18
0,131,131,118,3,['d'],['d'],Y,,,,Male,18
0,132,132,470,3,['k'],['k'],Y,,,,Male,18
0,133,133,467,3,['k'],['k'],Y,,,,Male,18
0,134,134,337,3,['k'],['k'],Y,,,,Male,18
0,135,135,262,3,['d'],['d'],Y,,,,Male,18
0,136,136,445,3,['k'],['k'],Y,,,,Male,18
0,137,137,477,3,['k'],['k'],Y,,,,Male,18
0,138,138,305,3,['k'],['k'],Y,,,,Male,18
0,139,139,328,3,['k'],['k'],Y,,,,Male,18
0,140,140,314,3,['k'],['k'],Y,,,,Male,18
0,141,141,399,3,['k'],['k'],Y,,,,Male,18
0,142,142,217,3,['d'],['d'],Y,,,,Male,18
0,143,143,430,3,['d'],['k'],N,,,,Male,18
0,144,144,166,3,['d'],['d'],Y,,,,Male,18
0,145,145,589,3,['k'],['k'],Y,,,,Male,18
0,146,146,253,3,['d'],['d'],Y,,,,Male,18
0,147,147,556,3,['k'],['k'],Y,,,,Male,18
0,148,148,165,3,['d'],['d'],Y,,,,Male,18
0,149,149,322,3,['k'],['k'],Y,,,,Male,18
,,,,,,,"47, 3",,,,,
0,150,150,185,4,['d'],['d'],Y,,,,Male,18
0,151,151,209,4,['d'],['d'],Y,,,,Male,18
0,152,152,90,4,['d'],['d'],Y,,,,Male,18
0,153,153,297,4,['d'],['d'],Y,,,,Male,18
0,154,154,542,4,['k'],['k'],Y,,,,Male,18
0,155,155,227,4,['d'],['d'],Y,,,,Male,18
0,156,156,205,4,['d'],['d'],Y,,,,Male,18
0,157,157,535,4,['k'],['k'],Y,,,,Male,18
0,158,158,561,4,['k'],['k'],Y,,,,Male,18
0,159,159,161,4,['d'],['d'],Y,,,,Male,18
0,160,160,521,4,['k'],['k'],Y,,,,Male,18
0,161,161,213,4,['d'],['d'],Y,,,,Male,18
0,162,162,0,4,['d'],['d'],Y,,,,Male,18
0,163,163,383,4,['k'],['k'],Y,,,,Male,18
0,164,164,348,4,['k'],['k'],Y,,,,Male,18
0,165,165,341,4,['k'],['k'],Y,,,,Male,18
0,166,166,421,4,['k'],['k'],Y,,,,Male,18
0,167,167,481,4,['k'],['k'],Y,,,,Male,18
0,168,168,56,4,['d'],['d'],Y,,,,Male,18
0,169,169,42,4,['d'],['d'],Y,,,,Male,18
0,170,170,236,4,['d'],['d'],Y,,,,Male,18
0,171,171,289,4,['d'],['d'],Y,,,,Male,18
0,172,172,417,4,['k'],['k'],Y,,,,Male,18
0,173,173,225,4,['k'],['d'],N,,,,Male,18
0,174,174,263,4,['d'],['d'],Y,,,,Male,18
0,175,175,389,4,['k'],['k'],Y,,,,Male,18
0,176,176,232,4,['d'],['d'],Y,,,,Male,18
0,177,177,89,4,['d'],['d'],Y,,,,Male,18
0,178,178,219,4,['d'],['d'],Y,,,,Male,18
0,179,179,344,4,['k'],['k'],Y,,,,Male,18
0,180,180,599,4,['k'],['k'],Y,,,,Male,18
0,181,181,364,4,['k'],['k'],Y,,,,Male,18
0,182,182,568,4,['k'],['k'],Y,,,,Male,18
0,183,183,436,4,['k'],['k'],Y,,,,Male,18
0,184,184,303,4,['k'],['k'],Y,,,,Male,18
0,185,185,580,4,['k'],['k'],Y,,,,Male,18
0,186,186,388,4,['k'],['k'],Y,,,,Male,18
0,187,187,176,4,['d'],['d'],Y,,,,Male,18
0,188,188,511,4,['k'],['k'],Y,,,,Male,18
0,189,189,186,4,['d'],['d'],Y,,,,Male,18
0,190,190,23,4,['d'],['d'],Y,,,,Male,18
0,191,191,36,4,['d'],['d'],Y,,,,Male,18
0,192,192,88,4,['d'],['d'],Y,,,,Male,18
0,193,193,564,4,['k'],['k'],Y,,,,Male,18
0,194,194,331,4,['k'],['k'],Y,,,,Male,18
0,195,195,326,4,['k'],['k'],Y,,,,Male,18
0,196,196,528,4,['k'],['k'],Y,,,,Male,18
0,197,197,416,4,['k'],['k'],Y,,,,Male,18
0,198,198,84,4,['d'],['d'],Y,,,,Male,18
0,199,199,469,4,['k'],['k'],Y,,,,Male,18
,,,,,,,"49, 1",,,,,
0,200,200,92,5,['d'],['d'],Y,,,,Male,18
0,201,201,50,5,['d'],['d'],Y,,,,Male,18
0,202,202,558,5,['k'],['k'],Y,,,,Male,18
0,203,203,122,5,['d'],['d'],Y,,,,Male,18
0,204,204,577,5,['k'],['k'],Y,,,,Male,18
0,205,205,250,5,['d'],['d'],Y,,,,Male,18
0,206,206,429,5,['k'],['k'],Y,,,,Male,18
0,207,207,508,5,['k'],['k'],Y,,,,Male,18
0,208,208,592,5,['k'],['k'],Y,,,,Male,18
0,209,209,308,5,['k'],['k'],Y,,,,Male,18
0,210,210,537,5,['k'],['k'],Y,,,,Male,18
0,211,211,87,5,['d'],['d'],Y,,,,Male,18
0,212,212,411,5,['k'],['k'],Y,,,,Male,18
0,213,213,95,5,['d'],['d'],Y,,,,Male,18
0,214,214,319,5,['k'],['k'],Y,,,,Male,18
0,215,215,97,5,['d'],['d'],Y,,,,Male,18
0,216,216,309,5,['k'],['k'],Y,,,,Male,18
0,217,217,171,5,['d'],['d'],Y,,,,Male,18
0,218,218,299,5,['d'],['d'],Y,,,,Male,18
0,219,219,295,5,['d'],['d'],Y,,,,Male,18
0,220,220,438,5,['k'],['k'],Y,,,,Male,18
0,221,221,292,5,['d'],['d'],Y,,,,Male,18
0,222,222,124,5,['k'],['d'],N,,,,Male,18
0,223,223,547,5,['k'],['k'],Y,,,,Male,18
0,224,224,301,5,['k'],['k'],Y,,,,Male,18
0,225,225,381,5,['k'],['k'],Y,,,,Male,18
0,226,226,167,5,['d'],['d'],Y,,,,Male,18
0,227,227,259,5,['d'],['d'],Y,,,,Male,18
0,228,228,77,5,['d'],['d'],Y,,,,Male,18
0,229,229,413,5,['k'],['k'],Y,,,,Male,18
0,230,230,51,5,['d'],['d'],Y,,,,Male,18
0,231,231,382,5,['k'],['k'],Y,,,,Male,18
0,232,232,493,5,['k'],['k'],Y,,,,Male,18
0,233,233,91,5,['d'],['d'],Y,,,,Male,18
0,234,234,456,5,['k'],['k'],Y,,,,Male,18
0,235,235,20,5,['d'],['d'],Y,,,,Male,18
0,236,236,96,5,['d'],['d'],Y,,,,Male,18
0,237,237,107,5,['d'],['d'],Y,,,,Male,18
0,238,238,80,5,['d'],['d'],Y,,,,Male,18
0,239,239,495,5,['k'],['k'],Y,,,,Male,18
0,240,240,5,5,['k'],['d'],N,,,,Male,18
0,241,241,279,5,['d'],['d'],Y,,,,Male,18
0,242,242,82,5,['d'],['d'],Y,,,,Male,18
0,243,243,174,5,['d'],['d'],Y,,,,Male,18
0,244,244,591,5,['k'],['k'],Y,,,,Male,18
0,245,245,372,5,['k'],['k'],Y,,,,Male,18
0,246,246,16,5,['d'],['d'],Y,,,,Male,18
0,247,247,170,5,['d'],['d'],Y,,,,Male,18
0,248,248,320,5,['k'],['k'],Y,,,,Male,18
0,249,249,442,5,['k'],['k'],Y,,,,Male,18
,,,,,,,"48, 2",,,,,
0,250,250,267,6,['d'],['d'],Y,,,,Male,18
0,251,251,193,6,['d'],['d'],Y,,,,Male,18
0,252,252,491,6,['k'],['k'],Y,,,,Male,18
0,253,253,354,6,['k'],['k'],Y,,,,Male,18
0,254,254,518,6,['k'],['k'],Y,,,,Male,18
0,255,255,17,6,['d'],['d'],Y,,,,Male,18
0,256,256,473,6,['k'],['k'],Y,,,,Male,18
0,257,257,457,6,['k'],['k'],Y,,,,Male,18
0,258,258,334,6,['k'],['k'],Y,,,,Male,18
0,259,259,45,6,['d'],['d'],Y,,,,Male,18
0,260,260,514,6,['k'],['k'],Y,,,,Male,18
0,261,261,555,6,['k'],['k'],Y,,,,Male,18
0,262,262,333,6,['k'],['k'],Y,,,,Male,18
0,263,263,465,6,['k'],['k'],Y,,,,Male,18
0,264,264,34,6,['d'],['d'],Y,,,,Male,18
0,265,265,93,6,['d'],['d'],Y,,,,Male,18
0,266,266,37,6,['d'],['d'],Y,,,,Male,18
0,267,267,72,6,['d'],['d'],Y,,,,Male,18
0,268,268,425,6,['k'],['k'],Y,,,,Male,18
0,269,269,100,6,['d'],['d'],Y,,,,Male,18
0,270,270,476,6,['k'],['k'],Y,,,,Male,18
0,271,271,226,6,['d'],['d'],Y,,,,Male,18
0,272,272,11,6,['d'],['d'],Y,,,,Male,18
0,273,273,47,6,['d'],['d'],Y,,,,Male,18
0,274,274,545,6,['k'],['k'],Y,,,,Male,18
0,275,275,581,6,['k'],['k'],Y,,,,Male,18
0,276,276,360,6,['k'],['k'],Y,,,,Male,18
0,277,277,278,6,['d'],['d'],Y,,,,Male,18
0,278,278,393,6,['k'],['k'],Y,,,,Male,18
0,279,279,46,6,['d'],['d'],Y,,,,Male,18
0,280,280,579,6,['k'],['k'],Y,,,,Male,18
0,281,281,585,6,['k'],['k'],Y,,,,Male,18
0,282,282,117,6,['d'],['d'],Y,,,,Male,18
0,283,283,35,6,['d'],['d'],Y,,,,Male,18
0,284,284,48,6,['d'],['d'],Y,,,,Male,18
0,285,285,517,6,['k'],['k'],Y,,,,Male,18
0,286,286,101,6,['d'],['d'],Y,,,,Male,18
0,287,287,362,6,['k'],['k'],Y,,,,Male,18
0,288,288,479,6,['d'],['k'],N,,,,Male,18
0,289,289,148,6,['d'],['d'],Y,,,,Male,18
0,290,290,492,6,['k'],['k'],Y,,,,Male,18
0,291,291,330,6,['k'],['k'],Y,,,,Male,18
0,292,292,244,6,['d'],['d'],Y,,,,Male,18
0,293,293,563,6,['k'],['k'],Y,,,,Male,18
0,294,294,288,6,['d'],['d'],Y,,,,Male,18
0,295,295,126,6,['d'],['d'],Y,,,,Male,18
0,296,296,415,6,['k'],['k'],Y,,,,Male,18
0,297,297,347,6,['k'],['k'],Y,,,,Male,18
0,298,298,441,6,['k'],['k'],Y,,,,Male,18
0,299,299,397,6,['k'],['k'],Y,,,,Male,18
,,,,,,,"49, 1",,,,,
0,300,300,335,7,['k'],['k'],Y,,,,Male,18
0,301,301,488,7,['k'],['k'],Y,,,,Male,18
0,302,302,57,7,['d'],['d'],Y,,,,Male,18
0,303,303,422,7,['k'],['k'],Y,,,,Male,18
0,304,304,28,7,['d'],['d'],Y,,,,Male,18
0,305,305,3,7,['k'],['d'],N,,,,Male,18
0,306,306,505,7,['k'],['k'],Y,,,,Male,18
0,307,307,64,7,['k'],['d'],N,,,,Male,18
0,308,308,241,7,['d'],['d'],Y,,,,Male,18
0,309,309,106,7,['d'],['d'],Y,,,,Male,18
0,310,310,65,7,['d'],['d'],Y,,,,Male,18
0,311,311,10,7,['d'],['d'],Y,,,,Male,18
0,312,312,245,7,['d'],['d'],Y,,,,Male,18
0,313,313,454,7,['k'],['k'],Y,,,,Male,18
0,314,314,366,7,['k'],['k'],Y,,,,Male,18
0,315,315,157,7,['d'],['d'],Y,,,,Male,18
0,316,316,434,7,['k'],['k'],Y,,,,Male,18
0,317,317,494,7,['k'],['k'],Y,,,,Male,18
0,318,318,202,7,['d'],['d'],Y,,,,Male,18
0,319,319,539,7,['k'],['k'],Y,,,,Male,18
0,320,320,214,7,['d'],['d'],Y,,,,Male,18
0,321,321,128,7,['d'],['d'],Y,,,,Male,18
0,322,322,532,7,['k'],['k'],Y,,,,Male,18
0,323,323,374,7,['d'],['k'],N,,,,Male,18
0,324,324,401,7,['k'],['k'],Y,,,,Male,18
0,325,325,318,7,['k'],['k'],Y,,,,Male,18
0,326,326,143,7,['d'],['d'],Y,,,,Male,18
0,327,327,385,7,['k'],['k'],Y,,,,Male,18
0,328,328,239,7,['d'],['d'],Y,,,,Male,18
0,329,329,550,7,['k'],['k'],Y,,,,Male,18
0,330,330,451,7,['k'],['k'],Y,,,,Male,18
0,331,331,136,7,['d'],['d'],Y,,,,Male,18
0,332,332,55,7,['d'],['d'],Y,,,,Male,18
0,333,333,130,7,['d'],['d'],Y,,,,Male,18
0,334,334,208,7,['d'],['d'],Y,,,,Male,18
0,335,335,159,7,['d'],['d'],Y,,,,Male,18
0,336,336,194,7,['d'],['d'],Y,,,,Male,18
0,337,337,570,7,['d'],['k'],N,,,,Male,18
0,338,338,554,7,['k'],['k'],Y,,,,Male,18
0,339,339,74,7,['d'],['d'],Y,,,,Male,18
0,340,340,19,7,['d'],['d'],Y,,,,Male,18
0,341,341,139,7,['d'],['d'],Y,,,,Male,18
0,342,342,526,7,['k'],['k'],Y,,,,Male,18
0,343,343,345,7,['k'],['k'],Y,,,,Male,18
0,344,344,261,7,['d'],['d'],Y,,,,Male,18
0,345,345,541,7,['k'],['k'],Y,,,,Male,18
0,346,346,310,7,['k'],['k'],Y,,,,Male,18
0,347,347,224,7,['d'],['d'],Y,,,,Male,18
0,348,348,296,7,['d'],['d'],Y,,,,Male,18
0,349,349,463,7,['k'],['k'],Y,,,,Male,18
,,,,,,,"46, 4",,,,,
0,350,350,560,8,['k'],['k'],Y,,,,Male,18
0,351,351,357,8,['k'],['k'],Y,,,,Male,18
0,352,352,184,8,['d'],['d'],Y,,,,Male,18
0,353,353,150,8,['d'],['d'],Y,,,,Male,18
0,354,354,497,8,['k'],['k'],Y,,,,Male,18
0,355,355,49,8,['d'],['d'],Y,,,,Male,18
0,356,356,394,8,['k'],['k'],Y,,,,Male,18
0,357,357,427,8,['k'],['k'],Y,,,,Male,18
0,358,358,369,8,['k'],['k'],Y,,,,Male,18
0,359,359,276,8,['d'],['d'],Y,,,,Male,18
0,360,360,431,8,['k'],['k'],Y,,,,Male,18
0,361,361,464,8,['k'],['k'],Y,,,,Male,18
0,362,362,142,8,['d'],['d'],Y,,,,Male,18
0,363,363,284,8,['d'],['d'],Y,,,,Male,18
0,364,364,501,8,['k'],['k'],Y,,,,Male,18
0,365,365,114,8,['d'],['d'],Y,,,,Male,18
0,366,366,164,8,['d'],['d'],Y,,,,Male,18
0,367,367,242,8,['d'],['d'],Y,,,,Male,18
0,368,368,352,8,['k'],['k'],Y,,,,Male,18
0,369,369,235,8,['d'],['d'],Y,,,,Male,18
0,370,370,471,8,['k'],['k'],Y,,,,Male,18
0,371,371,353,8,['k'],['k'],Y,,,,Male,18
0,372,372,196,8,['d'],['d'],Y,,,,Male,18
0,373,373,527,8,['k'],['k'],Y,,,,Male,18
0,374,374,403,8,['k'],['k'],Y,,,,Male,18
0,375,375,32,8,['d'],['d'],Y,,,,Male,18
0,376,376,179,8,['d'],['d'],Y,,,,Male,18
0,377,377,317,8,['k'],['k'],Y,,,,Male,18
0,378,378,504,8,['k'],['k'],Y,,,,Male,18
0,379,379,206,8,['d'],['d'],Y,,,,Male,18
0,380,380,215,8,['d'],['d'],Y,,,,Male,18
0,381,381,414,8,['k'],['k'],Y,,,,Male,18
0,382,382,316,8,['k'],['k'],Y,,,,Male,18
0,383,383,582,8,['k'],['k'],Y,,,,Male,18
0,384,384,290,8,['d'],['d'],Y,,,,Male,18
0,385,385,59,8,['d'],['d'],Y,,,,Male,18
0,386,386,44,8,['k'],['d'],N,,,,Male,18
0,387,387,94,8,['d'],['d'],Y,,,,Male,18
0,388,388,367,8,['k'],['k'],Y,,,,Male,18
0,389,389,69,8,['d'],['d'],Y,,,,Male,18
0,390,390,216,8,['d'],['d'],Y,,,,Male,18
0,391,391,120,8,['d'],['d'],Y,,,,Male,18
0,392,392,593,8,['k'],['k'],Y,,,,Male,18
0,393,393,24,8,['d'],['d'],Y,,,,Male,18
0,394,394,83,8,['d'],['d'],Y,,,,Male,18
0,395,395,277,8,['d'],['d'],Y,,,,Male,18
0,396,396,125,8,['d'],['d'],Y,,,,Male,18
0,397,397,266,8,['d'],['d'],Y,,,,Male,18
0,398,398,566,8,['k'],['k'],Y,,,,Male,18
0,399,399,359,8,['k'],['k'],Y,,,,Male,18
,,,,,,,"49, 1",,,,,
0,400,400,419,9,['k'],['k'],Y,,,,Male,18
0,401,401,99,9,['d'],['d'],Y,,,,Male,18
0,402,402,565,9,['k'],['k'],Y,,,,Male,18
0,403,403,243,9,['d'],['d'],Y,,,,Male,18
0,404,404,313,9,['k'],['k'],Y,,,,Male,18
0,405,405,127,9,['d'],['d'],Y,,,,Male,18
0,406,406,485,9,['k'],['k'],Y,,,,Male,18
0,407,407,315,9,['k'],['k'],Y,,,,Male,18
0,408,408,375,9,['k'],['k'],Y,,,,Male,18
0,409,409,439,9,['k'],['k'],Y,,,,Male,18
0,410,410,14,9,['d'],['d'],Y,,,,Male,18
0,411,411,529,9,['k'],['k'],Y,,,,Male,18
0,412,412,594,9,['k'],['k'],Y,,,,Male,18
0,413,413,370,9,['k'],['k'],Y,,,,Male,18
0,414,414,138,9,['k'],['d'],N,,,,Male,18
0,415,415,264,9,['d'],['d'],Y,,,,Male,18
0,416,416,531,9,['k'],['k'],Y,,,,Male,18
0,417,417,371,9,['k'],['k'],Y,,,,Male,18
0,418,418,140,9,['d'],['d'],Y,,,,Male,18
0,419,419,574,9,['k'],['k'],Y,,,,Male,18
0,420,420,257,9,['d'],['d'],Y,,,,Male,18
0,421,421,109,9,['d'],['d'],Y,,,,Male,18
0,422,422,153,9,['d'],['d'],Y,,,,Male,18
0,423,423,249,9,['d'],['d'],Y,,,,Male,18
0,424,424,102,9,['d'],['d'],Y,,,,Male,18
0,425,425,386,9,['k'],['k'],Y,,,,Male,18
0,426,426,31,9,['d'],['d'],Y,,,,Male,18
0,427,427,229,9,['d'],['d'],Y,,,,Male,18
0,428,428,149,9,['d'],['d'],Y,,,,Male,18
0,429,429,379,9,['k'],['k'],Y,,,,Male,18
0,430,430,351,9,['k'],['k'],Y,,,,Male,18
0,431,431,515,9,['k'],['k'],Y,,,,Male,18
0,432,432,108,9,['d'],['d'],Y,,,,Male,18
0,433,433,201,9,['d'],['d'],Y,,,,Male,18
0,434,434,207,9,['d'],['d'],Y,,,,Male,18
0,435,435,76,9,['d'],['d'],Y,,,,Male,18
0,436,436,590,9,['k'],['k'],Y,,,,Male,18
0,437,437,390,9,['k'],['k'],Y,,,,Male,18
0,438,438,218,9,['d'],['d'],Y,,,,Male,18
0,439,439,428,9,['k'],['k'],Y,,,,Male,18
0,440,440,273,9,['d'],['d'],Y,,,,Male,18
0,441,441,223,9,['d'],['d'],Y,,,,Male,18
0,442,442,192,9,['d'],['d'],Y,,,,Male,18
0,443,443,507,9,['k'],['k'],Y,,,,Male,18
0,444,444,323,9,['k'],['k'],Y,,,,Male,18
0,445,445,578,9,['k'],['k'],Y,,,,Male,18
0,446,446,188,9,['d'],['d'],Y,,,,Male,18
0,447,447,538,9,['k'],['k'],Y,,,,Male,18
0,448,448,151,9,['d'],['d'],Y,,,,Male,18
0,449,449,113,9,['d'],['d'],Y,,,,Male,18
,,,,,,,"49, 1",,,,,
0,450,450,251,10,['d'],['d'],Y,,,,Male,18
0,451,451,408,10,['k'],['k'],Y,,,,Male,18
0,452,452,365,10,['k'],['k'],Y,,,,Male,18
0,453,453,478,10,['k'],['k'],Y,,,,Male,18
0,454,454,144,10,['d'],['d'],Y,,,,Male,18
0,455,455,141,10,['d'],['d'],Y,,,,Male,18
0,456,456,131,10,['d'],['d'],Y,,,,Male,18
0,457,457,486,10,['k'],['k'],Y,,,,Male,18
0,458,458,169,10,['d'],['d'],Y,,,,Male,18
0,459,459,168,10,['d'],['d'],Y,,,,Male,18
0,460,460,15,10,['d'],['d'],Y,,,,Male,18
0,461,461,115,10,['d'],['d'],Y,,,,Male,18
0,462,462,432,10,['k'],['k'],Y,,,,Male,18
0,463,463,321,10,['k'],['k'],Y,,,,Male,18
0,464,464,237,10,['d'],['d'],Y,,,,Male,18
0,465,465,395,10,['k'],['k'],Y,,,,Male,18
0,466,466,356,10,['k'],['k'],Y,,,,Male,18
0,467,467,98,10,['d'],['d'],Y,,,,Male,18
0,468,468,312,10,['k'],['k'],Y,,,,Male,18
0,469,469,39,10,['d'],['d'],Y,,,,Male,18
0,470,470,468,10,['k'],['k'],Y,,,,Male,18
0,471,471,406,10,['k'],['k'],Y,,,,Male,18
0,472,472,575,10,['k'],['k'],Y,,,,Male,18
0,473,473,67,10,['d'],['d'],Y,,,,Male,18
0,474,474,212,10,['d'],['d'],Y,,,,Male,18
0,475,475,551,10,['k'],['k'],Y,,,,Male,18
0,476,476,162,10,['d'],['d'],Y,,,,Male,18
0,477,477,583,10,['k'],['k'],Y,,,,Male,18
0,478,478,513,10,['k'],['k'],Y,,,,Male,18
0,479,479,325,10,['k'],['k'],Y,,,,Male,18
0,480,480,60,10,['d'],['d'],Y,,,,Male,18
0,481,481,198,10,['d'],['d'],Y,,,,Male,18
0,482,482,135,10,['d'],['d'],Y,,,,Male,18
0,483,483,21,10,['d'],['d'],Y,,,,Male,18
0,484,484,448,10,['k'],['k'],Y,,,,Male,18
0,485,485,450,10,['d'],['k'],N,,,,Male,18
0,486,486,40,10,['d'],['d'],Y,,,,Male,18
0,487,487,43,10,['d'],['d'],Y,,,,Male,18
0,488,488,311,10,['d'],['k'],N,,,,Male,18
0,489,489,181,10,['d'],['d'],Y,,,,Male,18
0,490,490,248,10,['d'],['d'],Y,,,,Male,18
0,491,491,52,10,['d'],['d'],Y,,,,Male,18
0,492,492,86,10,['d'],['d'],Y,,,,Male,18
0,493,493,466,10,['k'],['k'],Y,,,,Male,18
0,494,494,271,10,['d'],['d'],Y,,,,Male,18
0,495,495,459,10,['k'],['k'],Y,,,,Male,18
0,496,496,293,10,['d'],['d'],Y,,,,Male,18
0,497,497,346,10,['k'],['k'],Y,,,,Male,18
0,498,498,483,10,['d'],['k'],N,,,,Male,18
0,499,499,584,10,['k'],['k'],Y,,,,Male,18
,,,,,,,"47, 3",,,,,
0,500,500,38,11,['k'],['d'],Y,Y,Y,Y,Male,18
0,501,501,13,11,['k'],['d'],Y,,Y,Y,Male,18
0,502,502,61,11,['k'],['d'],Y,,Y,Y,Male,18
0,503,503,567,11,['d'],['k'],Y,,Y,Y,Male,18
0,504,504,363,11,['d'],['k'],Y,,Y,Y,Male,18
0,505,505,195,11,['k'],['d'],Y,,Y,Y,Male,18
0,506,506,255,11,['d'],['d'],N,,Y,Y,Male,18
0,507,507,376,11,['d'],['k'],Y,,Y,Y,Male,18
0,508,508,53,11,['k'],['d'],Y,,Y,Y,Male,18
0,509,509,435,11,['d'],['k'],Y,,Y,Y,Male,18
0,510,510,536,11,['d'],['k'],Y,,Y,Y,Male,18
0,511,511,307,11,['d'],['k'],Y,,Y,Y,Male,18
0,512,512,275,11,['k'],['d'],Y,,Y,Y,Male,18
0,513,513,63,11,['k'],['d'],Y,,Y,Y,Male,18
0,514,514,453,11,['d'],['k'],Y,,Y,Y,Male,18
0,515,515,154,11,['k'],['d'],Y,,Y,Y,Male,18
0,516,516,68,11,['k'],['d'],Y,,Y,Y,Male,18
0,517,517,424,11,['d'],['k'],Y,,Y,Y,Male,18
0,518,518,221,11,['k'],['d'],Y,,Y,Y,Male,18
0,519,519,233,11,['k'],['d'],Y,,Y,Y,Male,18
0,520,520,377,11,['d'],['k'],Y,,Y,Y,Male,18
0,521,521,597,11,None,,Timed out,,Y,Y,Male,18
0,522,522,472,11,['d'],['k'],Y,,Y,Y,Male,18
0,523,523,189,11,['k'],['d'],Y,,Y,Y,Male,18
0,524,524,85,11,['k'],['d'],Y,,Y,Y,Male,18
0,525,525,500,11,['d'],['k'],Y,,Y,Y,Male,18
0,526,526,123,11,['k'],['d'],Y,,Y,Y,Male,18
0,527,527,329,11,['d'],['k'],Y,,Y,Y,Male,18
0,528,528,596,11,['d'],['k'],Y,,Y,Y,Male,18
0,529,529,520,11,['d'],['k'],Y,,Y,Y,Male,18
0,530,530,534,11,['d'],['k'],Y,,Y,Y,Male,18
0,531,531,228,11,['k'],['d'],Y,,Y,Y,Male,18
0,532,532,62,11,['k'],['d'],Y,,Y,Y,Male,18
0,533,533,75,11,['k'],['d'],Y,,Y,Y,Male,18
0,534,534,557,11,['d'],['k'],Y,,Y,Y,Male,18
0,535,535,404,11,['d'],['k'],Y,,Y,Y,Male,18
0,536,536,187,11,['k'],['d'],Y,,Y,Y,Male,18
0,537,537,173,11,['k'],['d'],Y,,Y,Y,Male,18
0,538,538,132,11,['k'],['d'],Y,,Y,Y,Male,18
0,539,539,544,11,['d'],['k'],Y,,Y,Y,Male,18
0,540,540,496,11,['d'],['k'],Y,,Y,Y,Male,18
0,541,541,409,11,['d'],['k'],Y,,Y,Y,Male,18
0,542,542,449,11,['d'],['k'],Y,,Y,Y,Male,18
0,543,543,178,11,['k'],['d'],Y,,Y,Y,Male,18
0,544,544,158,11,['k'],['d'],Y,,Y,Y,Male,18
0,545,545,400,11,['d'],['k'],Y,,Y,Y,Male,18
0,546,546,27,11,['k'],['d'],Y,,Y,Y,Male,18
0,547,547,79,11,['k'],['d'],Y,,Y,Y,Male,18
0,548,548,238,11,['k'],['d'],Y,,Y,Y,Male,18
0,549,549,200,11,['k'],['d'],Y,,Y,Y,Male,18
,,,,,,,"48, 1, 1",,,,,
0,550,550,240,12,['k'],['d'],Y,,Y,Y,Male,18
0,551,551,137,12,['k'],['d'],Y,,Y,Y,Male,18
0,552,552,110,12,['k'],['d'],Y,,Y,Y,Male,18
0,553,553,443,12,['d'],['k'],Y,,Y,Y,Male,18
0,554,554,391,12,['d'],['k'],Y,,Y,Y,Male,18
0,555,555,525,12,['d'],['k'],Y,,Y,Y,Male,18
0,556,556,598,12,['d'],['k'],Y,,Y,Y,Male,18
0,557,557,22,12,['k'],['d'],Y,,Y,Y,Male,18
0,558,558,378,12,['d'],['k'],Y,,Y,Y,Male,18
0,559,559,350,12,['d'],['k'],Y,,Y,Y,Male,18
0,560,560,433,12,['d'],['k'],Y,,Y,Y,Male,18
0,561,561,332,12,['d'],['k'],Y,,Y,Y,Male,18
0,562,562,4,12,['k'],['d'],Y,,Y,Y,Male,18
0,563,563,484,12,['d'],['k'],Y,,Y,Y,Male,18
0,564,564,553,12,['d'],['k'],Y,,Y,Y,Male,18
0,565,565,336,12,['d'],['k'],Y,,Y,Y,Male,18
0,566,566,246,12,['k'],['d'],Y,,Y,Y,Male,18
0,567,567,398,12,['d'],['k'],Y,,Y,Y,Male,18
0,568,568,210,12,['k'],['d'],Y,,Y,Y,Male,18
0,569,569,546,12,['d'],['k'],Y,,Y,Y,Male,18
0,570,570,112,12,['k'],['d'],Y,,Y,Y,Male,18
0,571,571,490,12,['d'],['k'],Y,,Y,Y,Male,18
0,572,572,281,12,['k'],['d'],Y,,Y,Y,Male,18
0,573,573,54,12,['k'],['d'],Y,,Y,Y,Male,18
0,574,574,361,12,['d'],['k'],Y,,Y,Y,Male,18
0,575,575,58,12,['k'],['d'],Y,,Y,Y,Male,18
0,576,576,420,12,['d'],['k'],Y,,Y,Y,Male,18
0,577,577,220,12,['k'],['d'],Y,,Y,Y,Male,18
0,578,578,280,12,['k'],['d'],Y,,Y,Y,Male,18
0,579,579,522,12,['d'],['k'],Y,,Y,Y,Male,18
0,580,580,461,12,['d'],['k'],Y,,Y,Y,Male,18
0,581,581,407,12,['d'],['k'],Y,,Y,Y,Male,18
0,582,582,533,12,['d'],['k'],Y,,Y,Y,Male,18
0,583,583,172,12,['k'],['d'],Y,,Y,Y,Male,18
0,584,584,572,12,['d'],['k'],Y,,Y,Y,Male,18
0,585,585,549,12,['d'],['k'],Y,,Y,Y,Male,18
0,586,586,373,12,['d'],['k'],Y,,Y,Y,Male,18
0,587,587,286,12,['k'],['d'],Y,,Y,Y,Male,18
0,588,588,268,12,['k'],['d'],Y,,Y,Y,Male,18
0,589,589,343,12,['d'],['k'],Y,,Y,Y,Male,18
0,590,590,338,12,['d'],['k'],Y,,Y,Y,Male,18
0,591,591,260,12,['k'],['d'],Y,,Y,Y,Male,18
0,592,592,134,12,['d'],['d'],N,,Y,Y,Male,18
0,593,593,552,12,['d'],['k'],Y,,Y,Y,Male,18
0,594,594,269,12,['k'],['d'],Y,,Y,Y,Male,18
0,595,595,29,12,['k'],['d'],Y,,Y,Y,Male,18
0,596,596,384,12,['d'],['k'],Y,,Y,Y,Male,18
0,597,597,300,12,['d'],['k'],Y,,Y,Y,Male,18
0,598,598,104,12,['k'],['d'],Y,,Y,Y,Male,18
0,599,599,387,12,['d'],['k'],Y,,Y,Y,Male,18
,,,,,,,"49, 1",,,,,
