.thisRepN,.thisTrialN,.thisN,.thisIndex,.thisTrial,Block Number,Key pressed,Correct?,Category,Int Match?,Int Response,Int Correct?,Line Accuracy,Interference Accuracy,Matching Interferences,New instruction shown?,Buttons switched?,Fast?,gender,age,
0,0,0,3,3,1,None,Timed out,,,,,,,,,,,,,
0,1,1,7,7,1,['d'],N,['k'],,,,,,,,,,,,
0,2,2,9,9,1,['d'],Y,['d'],N,None,Y,,,,,,,,,
0,3,3,4,4,1,['k'],N,['d'],Y,None,N,,,,,,,,,
0,4,4,9,9,1,['d'],N,['k'],N,None,Y,,,,,,,,,
0,5,5,1,1,1,['d'],N,['k'],N,None,Y,,,,,,,,,
0,6,6,2,2,1,['d'],Y,['d'],N,None,Y,,,,,,,,,
0,7,7,8,8,1,['k'],N,['d'],N,None,Y,,,,,,,,,
0,8,8,5,5,1,['d'],N,['k'],N,None,Y,,,,,,,,,
0,9,9,8,8,1,['k'],Y,['k'],Y,None,N,,,,,,,,,
0,10,10,0,0,1,['k'],N,['d'],N,None,Y,,,,,,,,,
1,0,11,8,8,1,['d'],Y,['d'],N,None,Y,,,,,,,,,
1,1,12,9,9,1,['k'],N,['d'],N,None,Y,,,,,,,,,
1,2,13,2,2,1,['k'],Y,['k'],N,None,Y,,,,,,,,,
1,3,14,2,2,1,['k'],Y,['k'],N,None,Y,,,,,,,,,
1,4,15,10,10,1,['k'],Y,['k'],Y,None,N,,,,,,,,,
1,5,16,2,2,1,['d'],Y,['d'],N,None,Y,,,,,,,,,
1,6,17,6,6,1,['k'],Y,['k'],Y,['space'],Y,,,,,,,,,
1,7,18,4,4,1,['k'],N,['d'],N,None,Y,,,,,,,,,
1,8,19,2,2,1,['k'],Y,['k'],Y,None,N,,,,,,,,,
1,9,20,6,6,1,['d'],N,['k'],N,None,Y,,,,,,,,,
1,10,21,5,5,1,['k'],N,['d'],Y,None,N,,,,,,,,,
2,0,22,3,3,1,['k'],N,['d'],N,None,Y,,,,,,,,,
2,1,23,10,10,1,['k'],Y,['k'],Y,['space'],Y,,,,,,,,,
2,2,24,7,7,1,['k'],Y,['k'],N,None,Y,,,,,,,,,
2,3,25,3,3,1,['k'],N,['d'],Y,None,N,,,,,,,,,
2,4,26,8,8,1,['k'],Y,['k'],Y,None,N,,,,,,,,,
2,5,27,4,4,1,['k'],N,['d'],N,None,Y,,,,,,,,,
2,6,28,4,4,1,['d'],N,['k'],Y,None,N,,,,,,,,,
2,7,29,6,6,1,['k'],Y,['k'],Y,['k'],N,,,,,,,,,
2,8,30,7,7,1,['k'],Y,['k'],N,None,Y,,,,,,,,,
2,9,31,3,3,1,['k'],N,['d'],N,None,Y,,,,,,,,,
2,10,32,4,4,1,['k'],N,['d'],Y,None,N,,,,,,,,,
3,0,33,4,4,1,['d'],N,['k'],N,['d'],N,,,,,,,,,
3,1,34,9,9,1,['k'],N,['d'],N,None,Y,,,,,,,,,
3,2,35,1,1,1,['k'],Y,['k'],Y,['k'],N,,,,,,,,,
3,3,36,7,7,1,['k'],Y,['k'],Y,None,N,,,,,,,,,
3,4,37,10,10,1,['d'],N,['k'],N,None,Y,,,,,,,,,
3,5,38,6,6,1,['d'],N,['k'],N,['k'],N,,,,,,,,,
3,6,39,3,3,1,['k'],N,['d'],Y,None,N,,,,,,,,,
3,7,40,0,0,1,['k'],Y,['k'],N,None,Y,,,,,,,,,
3,8,41,0,0,1,['k'],N,['d'],Y,None,N,,,,,,,,,
3,9,42,10,10,1,['d'],N,['k'],Y,None,N,,,,,,,,,
3,10,43,9,9,1,['k'],Y,['k'],N,None,Y,,,,,,,,,
4,0,44,7,7,1,['d'],N,['k'],Y,None,N,,,,,,,,,
4,1,45,3,3,1,['k'],Y,['k'],N,None,Y,,,,,,,,,
4,2,46,1,1,1,['k'],Y,['k'],Y,None,N,,,,,,,,,
4,3,47,9,9,1,['d'],N,['k'],Y,['space'],Y,,,,,,,,,
4,4,48,10,10,1,['k'],Y,['k'],N,None,Y,,,,,,,,,
4,5,49,0,0,1,['k'],Y,['k'],N,None,Y,23,29,20,,,,,,
4,6,50,0,0,2,['k'],N,['d'],,,,,,,,,,,,
4,7,51,3,3,2,['d'],N,['k'],,,,,,,,,,,,
4,8,52,5,5,2,['k'],Y,['k'],N,None,Y,,,,,,,,,
4,9,53,5,5,2,['d'],Y,['d'],N,['space'],N,,,,,,,,,
4,10,54,1,1,2,['k'],N,['d'],N,None,Y,,,,,,,,,
5,0,55,0,0,2,['d'],N,['k'],N,None,Y,,,,,,,,,
5,1,56,9,9,2,['k'],N,['d'],N,None,Y,,,,,,,,,
5,2,57,5,5,2,['d'],N,['k'],Y,['space'],Y,,,,,,,,,
5,3,58,5,5,2,['d'],Y,['d'],N,None,Y,,,,,,,,,
5,4,59,8,8,2,['k'],N,['d'],Y,None,N,,,,,,,,,
5,5,60,0,0,2,['d'],Y,['d'],N,['space'],N,,,,,,,,,
5,6,61,7,7,2,['d'],Y,['d'],N,None,Y,,,,,,,,,
5,7,62,8,8,2,['k'],Y,['k'],N,None,Y,,,,,,,,,
5,8,63,8,8,2,['d'],Y,['d'],Y,['space'],Y,,,,,,,,,
5,9,64,8,8,2,['k'],Y,['k'],N,None,Y,,,,,,,,,
5,10,65,7,7,2,['d'],Y,['d'],Y,['space'],Y,,,,,,,,,
6,0,66,9,9,2,['k'],Y,['k'],N,None,Y,,,,,,,,,
6,1,67,1,1,2,['k'],N,['d'],Y,None,N,,,,,,,,,
6,2,68,3,3,2,['d'],N,['k'],N,None,Y,,,,,,,,,
6,3,69,7,7,2,['k'],N,['d'],N,None,Y,,,,,,,,,
6,4,70,8,8,2,['k'],N,['d'],N,None,Y,,,,,,,,,
6,5,71,2,2,2,['d'],N,['k'],N,None,Y,,,,,,,,,
6,6,72,4,4,2,['k'],Y,['k'],N,None,Y,,,,,,,,,
6,7,73,0,0,2,['d'],N,['k'],Y,None,N,,,,,,,,,
6,8,74,3,3,2,['k'],Y,['k'],Y,['space'],Y,,,,,,,,,
6,9,75,9,9,2,['k'],N,['d'],N,None,Y,,,,,,,,,
6,10,76,0,0,2,['k'],N,['d'],Y,None,N,,,,,,,,,
7,0,77,7,7,2,['k'],N,['d'],Y,['space'],Y,,,,,,,,,
7,1,78,9,9,2,['d'],Y,['d'],Y,None,N,,,,,,,,,
7,2,79,4,4,2,['k'],N,['d'],N,None,Y,,,,,,,,,
7,3,80,5,5,2,['k'],Y,['k'],Y,['space'],Y,,,,,,,,,
7,4,81,0,0,2,['d'],Y,['d'],N,None,Y,,,,,,,,,
7,5,82,7,7,2,['d'],N,['k'],N,None,Y,,,,,,,,,
7,6,83,8,8,2,['k'],N,['d'],Y,['space'],Y,,,,,,,,,
7,7,84,2,2,2,['d'],Y,['d'],N,None,Y,,,,,,,,,
7,8,85,4,4,2,['k'],Y,['k'],Y,None,N,,,,,,,,,
7,9,86,4,4,2,['k'],N,['d'],N,None,Y,,,,,,,,,
7,10,87,0,0,2,['d'],Y,['d'],N,None,Y,,,,,,,,,
8,0,88,4,4,2,['d'],N,['k'],N,None,Y,,,,,,,,,
8,1,89,6,6,2,['k'],N,['d'],N,None,Y,,,,,,,,,
8,2,90,4,4,2,['k'],Y,['k'],Y,['d'],N,,,,,,,,,
8,3,91,1,1,2,['d'],N,['k'],N,None,Y,,,,,,,,,
8,4,92,0,0,2,['k'],Y,['k'],Y,['d'],N,,,,,,,,,
8,5,93,0,0,2,['k'],N,['d'],Y,None,N,,,,,,,,,
8,6,94,8,8,2,['k'],Y,['k'],N,None,Y,,,,,,,,,
8,7,95,5,5,2,['d'],N,['k'],Y,['space'],Y,,,,,,,,,
8,8,96,3,3,2,['k'],N,['d'],Y,None,N,,,,,,,,,
8,9,97,4,4,2,['d'],Y,['d'],Y,None,N,,,,,,,,,
8,10,98,8,8,2,['k'],Y,['k'],Y,None,N,,,,,,,,,
9,0,99,1,1,2,['k'],Y,['k'],N,None,Y,24,34,20,,,,,,
9,1,100,3,3,3,['k'],N,['d'],,,,,,,,,,,,
9,2,101,8,8,3,['d'],Y,['d'],,,,,,,,,,,,
9,3,102,7,7,3,['k'],Y,['k'],Y,['space'],Y,,,,,,,,,
9,4,103,6,6,3,['d'],Y,['d'],Y,None,N,,,,,,,,,
9,5,104,10,10,3,['k'],Y,['k'],Y,['space'],Y,,,,,,,,,
9,6,105,8,8,3,['d'],N,['k'],N,None,Y,,,,,,,,,
9,7,106,4,4,3,['d'],Y,['d'],Y,['space'],Y,,,,,,,,,
9,8,107,6,6,3,['k'],Y,['k'],N,None,Y,,,,,,,,,
9,9,108,8,8,3,['k'],N,['d'],N,None,Y,,,,,,,,,
9,10,109,4,4,3,['d'],Y,['d'],N,None,Y,,,,,,,,,
10,0,110,10,10,3,['k'],N,['d'],Y,['space'],Y,,,,,,,,,
10,1,111,2,2,3,['d'],N,['k'],N,None,Y,,,,,,,,,
10,2,112,0,0,3,['d'],N,['k'],Y,None,N,,,,,,,,,
10,3,113,9,9,3,['k'],Y,['k'],Y,['space'],Y,,,,,,,,,
10,4,114,8,8,3,['d'],Y,['d'],Y,None,N,,,,,,,,,
10,5,115,3,3,3,['d'],N,['k'],Y,None,N,,,,,,,,,
10,6,116,2,2,3,['d'],N,['k'],Y,None,N,,,,,,,,,
10,7,117,6,6,3,['d'],Y,['d'],Y,None,N,,,,,,,,,
10,8,118,6,6,3,['k'],N,['d'],N,None,Y,,,,,,,,,
10,9,119,0,0,3,['k'],Y,['k'],Y,['space'],Y,,,,,,,,,
10,10,120,2,2,3,['k'],N,['d'],N,['space'],N,,,,,,,,,
11,0,121,7,7,3,['d'],N,['k'],Y,None,N,,,,,,,,,
11,1,122,7,7,3,['k'],N,['d'],N,None,Y,,,,,,,,,
11,2,123,7,7,3,['d'],Y,['d'],Y,None,N,,,,,,,,,
11,3,124,10,10,3,['d'],Y,['d'],Y,['space'],Y,,,,,,,,,
11,4,125,9,9,3,['d'],Y,['d'],N,None,Y,,,,,,,,,
11,5,126,1,1,3,['d'],N,['k'],Y,None,N,,,,,,,,,
11,6,127,3,3,3,['d'],N,['k'],N,None,Y,,,,,,,,,
11,7,128,5,5,3,['d'],Y,['d'],N,None,Y,,,,,,,,,
11,8,129,2,2,3,['k'],Y,['k'],Y,None,N,,,,,,,,,
11,9,130,8,8,3,['d'],N,['k'],Y,['space'],Y,,,,,,,,,
11,10,131,4,4,3,['k'],N,['d'],N,None,Y,,,,,,,,,
12,0,132,2,2,3,['d'],Y,['d'],N,['d'],N,,,,,,,,,
12,1,133,3,3,3,['d'],N,['k'],N,None,Y,,,,,,,,,
12,2,134,9,9,3,['k'],Y,['k'],Y,['k'],N,,,,,,,,,
12,3,135,1,1,3,['d'],Y,['d'],N,None,Y,,,,,,,,,
12,4,136,1,1,3,['d'],N,['k'],N,['space'],N,,,,,,,,,
12,5,137,3,3,3,['d'],N,['k'],Y,['space'],Y,,,,,,,,,
12,6,138,10,10,3,['k'],N,['d'],Y,['space'],Y,,,,,,,,,
12,7,139,1,1,3,['k'],N,['d'],N,None,Y,,,,,,,,,
12,8,140,2,2,3,['d'],Y,['d'],N,['d'],N,,,,,,,,,
12,9,141,4,4,3,['k'],Y,['k'],N,None,Y,,,,,,,,,
12,10,142,9,9,3,['d'],Y,['d'],N,None,Y,,,,,,,,,
13,0,143,1,1,3,['d'],N,['k'],N,['d'],N,,,,,,,,,
13,1,144,2,2,3,['k'],Y,['k'],N,None,Y,,,,,,,,,
13,2,145,7,7,3,['d'],Y,['d'],N,None,Y,,,,,,,,,
13,3,146,1,1,3,['k'],N,['d'],N,None,Y,,,,,,,,,
13,4,147,0,0,3,['d'],Y,['d'],N,None,Y,,,,,,,,,
13,5,148,10,10,3,['k'],Y,['k'],Y,None,N,,,,,,,,,
13,6,149,4,4,3,['d'],N,['k'],N,None,Y,26,31,22,,,,,,
13,7,150,2,2,4,['k'],N,['d'],,,,,,,,,,,,
13,8,151,2,2,4,['d'],Y,['d'],,,,,,,,,,,,
13,9,152,10,10,4,['k'],N,['d'],Y,['space'],Y,,,,,,,,,
13,10,153,10,10,4,['k'],Y,['k'],N,None,Y,,,,,,,,,
14,0,154,9,9,4,['d'],N,['k'],N,None,Y,,,,,,,,,
14,1,155,1,1,4,['k'],N,['d'],N,None,Y,,,,,,,,,
14,2,156,10,10,4,['d'],Y,['d'],N,None,Y,,,,,,,,,
14,3,157,1,1,4,['d'],N,['k'],N,None,Y,,,,,,,,,
14,4,158,6,6,4,['k'],N,['d'],Y,None,N,,,,,,,,,
14,5,159,8,8,4,['d'],N,['k'],N,None,Y,,,,,,,,,
14,6,160,5,5,4,['k'],Y,['k'],N,['k'],N,,,,,,,,,
14,7,161,6,6,4,['k'],Y,['k'],N,None,Y,,,,,,,,,
14,8,162,1,1,4,['d'],N,['k'],N,None,Y,,,,,,,,,
14,9,163,1,1,4,['k'],Y,['k'],Y,['space'],Y,,,,,,,,,
14,10,164,4,4,4,['k'],Y,['k'],Y,None,N,,,,,,,,,
15,0,165,2,2,4,['d'],Y,['d'],Y,['space'],Y,,,,,,,,,
15,1,166,7,7,4,['k'],Y,['k'],Y,None,N,,,,,,,,,
15,2,167,0,0,4,['d'],Y,['d'],N,None,Y,,,,,,,,,
15,3,168,10,10,4,['d'],N,['k'],N,None,Y,,,,,,,,,
15,4,169,10,10,4,['d'],N,['k'],N,['space'],N,,,,,,,,,
15,5,170,3,3,4,['k'],N,['d'],N,None,Y,,,,,,,,,
15,6,171,6,6,4,['k'],Y,['k'],Y,None,N,,,,,,,,,
15,7,172,2,2,4,['k'],Y,['k'],N,None,Y,,,,,,,,,
15,8,173,0,0,4,['k'],Y,['k'],N,None,Y,,,,,,,,,
15,9,174,6,6,4,['k'],Y,['k'],Y,None,N,,,,,,,,,
15,10,175,5,5,4,['d'],Y,['d'],N,None,Y,,,,,,,,,
16,0,176,6,6,4,['k'],N,['d'],Y,None,N,,,,,,,,,
16,1,177,4,4,4,['d'],N,['k'],Y,['d'],N,,,,,,,,,
16,2,178,3,3,4,['k'],Y,['k'],N,None,Y,,,,,,,,,
16,3,179,1,1,4,['d'],Y,['d'],Y,None,N,,,,,,,,,
16,4,180,5,5,4,['k'],Y,['k'],N,None,Y,,,,,,,,,
16,5,181,0,0,4,['k'],Y,['k'],N,None,Y,,,,,,,,,
16,6,182,10,10,4,['d'],N,['k'],Y,None,N,,,,,,,,,
16,7,183,4,4,4,['d'],Y,['d'],Y,['space'],Y,,,,,,,,,
16,8,184,4,4,4,['k'],Y,['k'],Y,None,N,,,,,,,,,
16,9,185,5,5,4,['k'],N,['d'],N,['space'],N,,,,,,,,,
16,10,186,10,10,4,['k'],Y,['k'],N,None,Y,,,,,,,,,
17,0,187,3,3,4,['d'],Y,['d'],N,None,Y,,,,,,,,,
17,1,188,1,1,4,['k'],N,['d'],Y,['space'],Y,,,,,,,,,
17,2,189,3,3,4,['k'],N,['d'],N,None,Y,,,,,,,,,
17,3,190,9,9,4,['d'],N,['k'],Y,None,N,,,,,,,,,
17,4,191,1,1,4,['k'],Y,['k'],Y,None,N,,,,,,,,,
17,5,192,9,9,4,['k'],N,['d'],N,None,Y,,,,,,,,,
17,6,193,5,5,4,['d'],Y,['d'],Y,['space'],Y,,,,,,,,,
17,7,194,1,1,4,['d'],Y,['d'],Y,['space'],Y,,,,,,,,,
17,8,195,5,5,4,['k'],Y,['k'],N,None,Y,,,,,,,,,
17,9,196,9,9,4,['d'],N,['k'],Y,['space'],Y,,,,,,,,,
17,10,197,7,7,4,['k'],N,['d'],N,None,Y,,,,,,,,,
18,0,198,10,10,4,['k'],Y,['k'],Y,None,N,,,,,,,,,
18,1,199,3,3,4,['d'],Y,['d'],N,None,Y,29,32,21,,,,,,
18,2,200,4,4,5,['k'],N,['d'],,,,,,,,,,,,
18,3,201,4,4,5,['k'],N,['d'],,,,,,,,,,,,
18,4,202,5,5,5,['d'],Y,['d'],N,None,Y,,,,,,,,,
18,5,203,3,3,5,['k'],N,['d'],Y,['space'],Y,,,,,,,,,
18,6,204,2,2,5,['d'],N,['k'],N,None,Y,,,,,,,,,
18,7,205,0,0,5,['k'],N,['d'],N,None,Y,,,,,,,,,
18,8,206,3,3,5,['k'],Y,['k'],N,['space'],N,,,,,,,,,
18,9,207,0,0,5,['k'],N,['d'],Y,None,N,,,,,,,,,
18,10,208,1,1,5,['k'],N,['d'],Y,['space'],Y,,,,,,,,,
19,0,209,10,10,5,['d'],N,['k'],N,None,Y,,,,,,,,,
19,1,210,4,4,5,['d'],Y,['d'],N,None,Y,,,,,,,,,
19,2,211,4,4,5,['d'],Y,['d'],Y,None,N,,,,,,,,,
19,3,212,10,10,5,['d'],Y,['d'],N,['space'],N,,,,,,,,,
19,4,213,1,1,5,['d'],N,['k'],Y,['space'],Y,,,,,,,,,
19,5,214,2,2,5,['d'],N,['k'],N,None,Y,,,,,,,,,
19,6,215,0,0,5,['k'],N,['d'],Y,None,N,,,,,,,,,
19,7,216,6,6,5,['d'],N,['k'],N,None,Y,,,,,,,,,
19,8,217,9,9,5,['k'],N,['d'],N,None,Y,,,,,,,,,
19,9,218,9,9,5,['d'],Y,['d'],N,None,Y,,,,,,,,,
19,10,219,3,3,5,['d'],Y,['d'],Y,None,N,,,,,,,,,
20,0,220,7,7,5,['k'],N,['d'],N,None,Y,,,,,,,,,
20,1,221,5,5,5,['d'],N,['k'],Y,None,N,,,,,,,,,
20,2,222,4,4,5,['k'],N,['d'],Y,['k'],N,,,,,,,,,
20,3,223,0,0,5,['d'],N,['k'],N,None,Y,,,,,,,,,
20,4,224,5,5,5,['d'],Y,['d'],Y,None,N,,,,,,,,,
20,5,225,3,3,5,['d'],Y,['d'],Y,None,N,,,,,,,,,
20,6,226,9,9,5,['k'],Y,['k'],Y,None,N,,,,,,,,,
20,7,227,8,8,5,['k'],Y,['k'],Y,['d'],N,,,,,,,,,
20,8,228,0,0,5,['k'],Y,['k'],Y,None,N,,,,,,,,,
20,9,229,2,2,5,['k'],N,['d'],N,None,Y,,,,,,,,,
20,10,230,3,3,5,['d'],Y,['d'],Y,None,N,,,,,,,,,
21,0,231,6,6,5,['d'],N,['k'],N,None,Y,,,,,,,,,
21,1,232,7,7,5,['d'],Y,['d'],N,None,Y,,,,,,,,,
21,2,233,3,3,5,['k'],N,['d'],N,None,Y,,,,,,,,,
21,3,234,6,6,5,['d'],Y,['d'],N,None,Y,,,,,,,,,
21,4,235,5,5,5,['k'],Y,['k'],N,None,Y,,,,,,,,,
21,5,236,1,1,5,['d'],Y,['d'],N,None,Y,,,,,,,,,
21,6,237,8,8,5,['d'],N,['k'],Y,None,N,,,,,,,,,
21,7,238,6,6,5,['k'],N,['d'],N,None,Y,,,,,,,,,
21,8,239,10,10,5,['d'],N,['k'],N,None,Y,,,,,,,,,
21,9,240,4,4,5,['k'],N,['d'],Y,None,N,,,,,,,,,
21,10,241,7,7,5,['d'],N,['k'],Y,None,N,,,,,,,,,
22,0,242,3,3,5,['d'],Y,['d'],Y,['space'],Y,,,,,,,,,
22,1,243,7,7,5,['k'],N,['d'],N,None,Y,,,,,,,,,
22,2,244,4,4,5,['d'],N,['k'],Y,None,N,,,,,,,,,
22,3,245,5,5,5,['d'],Y,['d'],N,None,Y,,,,,,,,,
22,4,246,7,7,5,['d'],Y,['d'],N,None,Y,,,,,,,,,
22,5,247,5,5,5,['k'],N,['d'],N,None,Y,,,,,,,,,
22,6,248,3,3,5,['d'],Y,['d'],Y,None,N,,,,,,,,,
22,7,249,10,10,5,['k'],Y,['k'],Y,None,N,22,28,22,,,,,,
22,8,250,0,0,6,['k'],Y,['k'],,,,,,,,,,,,
22,9,251,3,3,6,['d'],Y,['d'],,,,,,,,,,,,
22,10,252,2,2,6,['d'],Y,['d'],N,None,Y,,,,,,,,,
23,0,253,3,3,6,['d'],N,['k'],Y,['space'],Y,,,,,,,,,
23,1,254,1,1,6,['k'],Y,['k'],N,None,Y,,,,,,,,,
23,2,255,9,9,6,['d'],Y,['d'],Y,None,N,,,,,,,,,
23,3,256,3,3,6,['k'],N,['d'],N,['space'],N,,,,,,,,,
23,4,257,1,1,6,['d'],Y,['d'],N,None,Y,,,,,,,,,
23,5,258,3,3,6,['d'],N,['k'],Y,None,N,,,,,,,,,
23,6,259,10,10,6,['d'],Y,['d'],Y,['space'],Y,,,,,,,,,
23,7,260,8,8,6,['d'],Y,['d'],N,None,Y,,,,,,,,,
23,8,261,4,4,6,['k'],N,['d'],N,None,Y,,,,,,,,,
23,9,262,2,2,6,['k'],Y,['k'],N,None,Y,,,,,,,,,
23,10,263,0,0,6,['d'],N,['k'],N,None,Y,,,,,,,,,
24,0,264,9,9,6,['d'],Y,['d'],N,None,Y,,,,,,,,,
24,1,265,8,8,6,['d'],N,['k'],N,None,Y,,,,,,,,,
24,2,266,6,6,6,['d'],N,['k'],N,None,Y,,,,,,,,,
24,3,267,2,2,6,['k'],Y,['k'],Y,None,N,,,,,,,,,
24,4,268,7,7,6,['k'],N,['d'],Y,None,N,,,,,,,,,
24,5,269,0,0,6,['d'],Y,['d'],Y,None,N,,,,,,,,,
24,6,270,7,7,6,['d'],N,['k'],N,None,Y,,,,,,,,,
24,7,271,9,9,6,['k'],N,['d'],Y,None,N,,,,,,,,,
24,8,272,10,10,6,['d'],N,['k'],Y,None,N,,,,,,,,,
24,9,273,3,3,6,['k'],Y,['k'],Y,None,N,,,,,,,,,
24,10,274,7,7,6,['k'],N,['d'],Y,None,N,,,,,,,,,
25,0,275,9,9,6,['d'],N,['k'],Y,None,N,,,,,,,,,
25,1,276,6,6,6,['d'],N,['k'],Y,None,N,,,,,,,,,
25,2,277,3,3,6,['k'],N,['d'],N,None,Y,,,,,,,,,
25,3,278,8,8,6,['d'],N,['k'],N,None,Y,,,,,,,,,
25,4,279,2,2,6,['d'],Y,['d'],Y,None,N,,,,,,,,,
25,5,280,2,2,6,['k'],N,['d'],N,None,Y,,,,,,,,,
25,6,281,0,0,6,['k'],N,['d'],N,None,Y,,,,,,,,,
25,7,282,5,5,6,['d'],Y,['d'],Y,['space'],Y,,,,,,,,,
25,8,283,2,2,6,['k'],N,['d'],N,None,Y,,,,,,,,,
25,9,284,8,8,6,['d'],N,['k'],Y,['space'],Y,,,,,,,,,
25,10,285,6,6,6,['d'],Y,['d'],Y,None,N,,,,,,,,,
26,0,286,1,1,6,['d'],N,['k'],N,None,Y,,,,,,,,,
26,1,287,8,8,6,['d'],N,['k'],Y,None,N,,,,,,,,,
26,2,288,7,7,6,['k'],N,['d'],N,None,Y,,,,,,,,,
26,3,289,5,5,6,['k'],Y,['k'],Y,['d'],N,,,,,,,,,
26,4,290,4,4,6,['k'],Y,['k'],N,None,Y,,,,,,,,,
26,5,291,7,7,6,['d'],Y,['d'],N,None,Y,,,,,,,,,
26,6,292,10,10,6,['d'],Y,['d'],Y,None,N,,,,,,,,,
26,7,293,5,5,6,['k'],Y,['k'],Y,None,N,,,,,,,,,
26,8,294,0,0,6,['d'],Y,['d'],N,None,Y,,,,,,,,,
26,9,295,5,5,6,['d'],Y,['d'],Y,None,N,,,,,,,,,
26,10,296,3,3,6,['k'],Y,['k'],N,None,Y,,,,,,,,,
27,0,297,8,8,6,['k'],N,['d'],N,None,Y,,,,,,,,,
27,1,298,5,5,6,['d'],Y,['d'],N,None,Y,,,,,,,,,
27,2,299,0,0,6,['k'],N,['d'],N,None,Y,25,29,22,,,,,,
27,3,300,7,7,7,['k'],Y,['k'],,,,,,,,,,,,
27,4,301,8,8,7,['d'],Y,['d'],,,,,,,,,,,,
27,5,302,4,4,7,['d'],Y,['d'],N,None,Y,,,,,,,,,
27,6,303,8,8,7,['k'],N,['d'],N,['space'],N,,,,,,,,,
27,7,304,9,9,7,['k'],Y,['k'],Y,None,N,,,,,,,,,
27,8,305,6,6,7,['d'],Y,['d'],Y,['space'],Y,,,,,,,,,
27,9,306,3,3,7,['d'],Y,['d'],N,None,Y,,,,,,,,,
27,10,307,0,0,7,['d'],N,['k'],N,None,Y,,,,,,,,,
28,0,308,10,10,7,['k'],N,['d'],Y,None,N,,,,,,,,,
28,1,309,5,5,7,['d'],N,['k'],N,None,Y,,,,,,,,,
28,2,310,7,7,7,['k'],Y,['k'],Y,None,N,,,,,,,,,
28,3,311,6,6,7,['k'],Y,['k'],Y,['space'],Y,,,,,,,,,
28,4,312,8,8,7,['d'],N,['k'],Y,None,N,,,,,,,,,
28,5,313,9,9,7,['d'],N,['k'],Y,['space'],Y,,,,,,,,,
28,6,314,7,7,7,['k'],Y,['k'],Y,None,N,,,,,,,,,
28,7,315,10,10,7,['k'],N,['d'],N,None,Y,,,,,,,,,
28,8,316,2,2,7,['d'],Y,['d'],N,None,Y,,,,,,,,,
28,9,317,8,8,7,['k'],N,['d'],N,None,Y,,,,,,,,,
28,10,318,9,9,7,['d'],N,['k'],N,['d'],N,,,,,,,,,
29,0,319,3,3,7,['d'],N,['k'],N,None,Y,,,,,,,,,
29,1,320,1,1,7,['k'],N,['d'],Y,None,N,,,,,,,,,
29,2,321,0,0,7,['d'],Y,['d'],N,None,Y,,,,,,,,,
29,3,322,10,10,7,['d'],N,['k'],N,None,Y,,,,,,,,,
29,4,323,1,1,7,['k'],Y,['k'],Y,['space'],Y,,,,,,,,,
29,5,324,7,7,7,['k'],N,['d'],Y,None,N,,,,,,,,,
29,6,325,5,5,7,['k'],N,['d'],N,None,Y,,,,,,,,,
29,7,326,5,5,7,['d'],Y,['d'],N,None,Y,,,,,,,,,
29,8,327,8,8,7,['k'],N,['d'],N,None,Y,,,,,,,,,
29,9,328,3,3,7,['k'],N,['d'],N,None,Y,,,,,,,,,
29,10,329,5,5,7,['d'],N,['k'],N,None,Y,,,,,,,,,
30,0,330,4,4,7,['k'],N,['d'],N,None,Y,,,,,,,,,
30,1,331,5,5,7,['d'],N,['k'],Y,None,N,,,,,,,,,
30,2,332,9,9,7,['k'],Y,['k'],Y,None,N,,,,,,,,,
30,3,333,6,6,7,['k'],Y,['k'],N,None,Y,,,,,,,,,
30,4,334,0,0,7,['k'],N,['d'],Y,None,N,,,,,,,,,
30,5,335,0,0,7,['d'],N,['k'],Y,None,N,,,,,,,,,
30,6,336,1,1,7,['d'],N,['k'],N,None,Y,,,,,,,,,
30,7,337,1,1,7,['d'],Y,['d'],N,['space'],N,,,,,,,,,
30,8,338,6,6,7,['k'],N,['d'],N,None,Y,,,,,,,,,
30,9,339,1,1,7,['k'],Y,['k'],Y,['space'],Y,,,,,,,,,
30,10,340,4,4,7,['d'],Y,['d'],Y,['space'],Y,,,,,,,,,
31,0,341,8,8,7,['k'],N,['d'],Y,['space'],Y,,,,,,,,,
31,1,342,0,0,7,['d'],Y,['d'],Y,None,N,,,,,,,,,
31,2,343,9,9,7,['d'],N,['k'],N,None,Y,,,,,,,,,
31,3,344,9,9,7,['k'],Y,['k'],N,None,Y,,,,,,,,,
31,4,345,2,2,7,['k'],Y,['k'],N,None,Y,,,,,,,,,
31,5,346,9,9,7,['d'],Y,['d'],Y,['space'],Y,,,,,,,,,
31,6,347,10,10,7,['k'],Y,['k'],N,None,Y,,,,,,,,,
31,7,348,10,10,7,['d'],N,['k'],Y,['space'],Y,,,,,,,,,
31,8,349,4,4,7,['k'],Y,['k'],Y,None,N,24,32,22,,,,,,
31,9,350,5,5,8,['d'],N,['k'],,,,,,,,,,,,
31,10,351,3,3,8,['d'],N,['k'],,,,,,,,,,,,
32,0,352,9,9,8,['k'],Y,['k'],Y,['space'],Y,,,,,,,,,
32,1,353,6,6,8,['k'],N,['d'],N,None,Y,,,,,,,,,
32,2,354,9,9,8,['k'],N,['d'],N,None,Y,,,,,,,,,
32,3,355,2,2,8,['d'],Y,['d'],N,None,Y,,,,,,,,,
32,4,356,5,5,8,['k'],N,['d'],N,None,Y,,,,,,,,,
32,5,357,8,8,8,['d'],Y,['d'],N,None,Y,,,,,,,,,
32,6,358,3,3,8,['k'],N,['d'],N,None,Y,,,,,,,,,
32,7,359,9,9,8,['d'],N,['k'],Y,None,N,,,,,,,,,
32,8,360,10,10,8,['k'],N,['d'],N,None,Y,,,,,,,,,
32,9,361,4,4,8,['d'],N,['k'],N,None,Y,,,,,,,,,
32,10,362,4,4,8,['k'],Y,['k'],N,None,Y,,,,,,,,,
33,0,363,4,4,8,['d'],N,['k'],N,None,Y,,,,,,,,,
33,1,364,2,2,8,['d'],N,['k'],N,None,Y,,,,,,,,,
33,2,365,3,3,8,['k'],Y,['k'],Y,None,N,,,,,,,,,
33,3,366,1,1,8,['k'],N,['d'],N,None,Y,,,,,,,,,
33,4,367,9,9,8,['d'],Y,['d'],N,None,Y,,,,,,,,,
33,5,368,5,5,8,['d'],N,['k'],N,None,Y,,,,,,,,,
33,6,369,6,6,8,['k'],N,['d'],N,None,Y,,,,,,,,,
33,7,370,4,4,8,['d'],Y,['d'],N,None,Y,,,,,,,,,
33,8,371,10,10,8,['d'],Y,['d'],Y,None,N,,,,,,,,,
33,9,372,8,8,8,['d'],N,['k'],Y,None,N,,,,,,,,,
33,10,373,7,7,8,['k'],Y,['k'],N,None,Y,,,,,,,,,
34,0,374,2,2,8,['d'],Y,['d'],N,None,Y,,,,,,,,,
34,1,375,0,0,8,['d'],Y,['d'],N,None,Y,,,,,,,,,
34,2,376,6,6,8,['k'],Y,['k'],N,None,Y,,,,,,,,,
34,3,377,7,7,8,['d'],N,['k'],N,['space'],N,,,,,,,,,
34,4,378,3,3,8,['k'],N,['d'],N,None,Y,,,,,,,,,
34,5,379,6,6,8,['d'],Y,['d'],N,None,Y,,,,,,,,,
34,6,380,7,7,8,['k'],N,['d'],N,None,Y,,,,,,,,,
34,7,381,2,2,8,['d'],N,['k'],Y,['space'],Y,,,,,,,,,
34,8,382,4,4,8,['k'],Y,['k'],N,None,Y,,,,,,,,,
34,9,383,8,8,8,['k'],N,['d'],Y,['k'],N,,,,,,,,,
34,10,384,4,4,8,['k'],N,['d'],Y,['space'],Y,,,,,,,,,
35,0,385,1,1,8,['d'],N,['k'],Y,['space'],Y,,,,,,,,,
35,1,386,4,4,8,['d'],Y,['d'],Y,None,N,,,,,,,,,
35,2,387,2,2,8,['d'],Y,['d'],Y,None,N,,,,,,,,,
35,3,388,5,5,8,['d'],N,['k'],N,None,Y,,,,,,,,,
35,4,389,6,6,8,['d'],Y,['d'],Y,None,N,,,,,,,,,
35,5,390,5,5,8,['k'],Y,['k'],N,None,Y,,,,,,,,,
35,6,391,4,4,8,['k'],Y,['k'],N,None,Y,,,,,,,,,
35,7,392,1,1,8,['d'],Y,['d'],Y,None,N,,,,,,,,,
35,8,393,1,1,8,['d'],N,['k'],Y,None,N,,,,,,,,,
35,9,394,1,1,8,['d'],N,['k'],N,None,Y,,,,,,,,,
35,10,395,4,4,8,['k'],Y,['k'],N,None,Y,,,,,,,,,
36,0,396,10,10,8,['d'],Y,['d'],Y,None,N,,,,,,,,,
36,1,397,9,9,8,['d'],Y,['d'],Y,None,N,,,,,,,,,
36,2,398,9,9,8,['k'],N,['d'],Y,None,N,,,,,,,,,
36,3,399,10,10,8,['d'],N,['k'],N,None,Y,23,34,17,,,,,,
36,4,400,1,1,9,['d'],N,['k'],,,,,,,,,,,,
36,5,401,7,7,9,['d'],Y,['d'],,,,,,,,,,,,
36,6,402,9,9,9,['k'],Y,['k'],Y,None,N,,,,,,,,,
36,7,403,8,8,9,['d'],Y,['d'],Y,['space'],Y,,,,,,,,,
36,8,404,1,1,9,['k'],Y,['k'],N,None,Y,,,,,,,,,
36,9,405,6,6,9,['d'],Y,['d'],N,None,Y,,,,,,,,,
36,10,406,8,8,9,['k'],N,['d'],Y,None,N,,,,,,,,,
37,0,407,9,9,9,['d'],Y,['d'],Y,['space'],Y,,,,,,,,,
37,1,408,2,2,9,['d'],N,['k'],Y,None,N,,,,,,,,,
37,2,409,3,3,9,['k'],Y,['k'],N,None,Y,,,,,,,,,
37,3,410,3,3,9,['d'],N,['k'],N,None,Y,,,,,,,,,
37,4,411,10,10,9,['k'],N,['d'],Y,None,N,,,,,,,,,
37,5,412,10,10,9,['d'],Y,['d'],N,None,Y,,,,,,,,,
37,6,413,6,6,9,['k'],N,['d'],Y,['k'],N,,,,,,,,,
37,7,414,4,4,9,['d'],Y,['d'],Y,['space'],Y,,,,,,,,,
37,8,415,1,1,9,['d'],Y,['d'],N,None,Y,,,,,,,,,
37,9,416,4,4,9,['d'],N,['k'],Y,['space'],Y,,,,,,,,,
37,10,417,10,10,9,['k'],Y,['k'],N,['space'],N,,,,,,,,,
38,0,418,0,0,9,['d'],N,['k'],Y,None,N,,,,,,,,,
38,1,419,2,2,9,['d'],N,['k'],Y,None,N,,,,,,,,,
38,2,420,2,2,9,['k'],N,['d'],Y,None,N,,,,,,,,,
38,3,421,8,8,9,['d'],Y,['d'],N,None,Y,,,,,,,,,
38,4,422,3,3,9,['k'],N,['d'],N,None,Y,,,,,,,,,
38,5,423,8,8,9,['d'],N,['k'],Y,None,N,,,,,,,,,
38,6,424,1,1,9,['k'],Y,['k'],N,None,Y,,,,,,,,,
38,7,425,9,9,9,['k'],N,['d'],N,None,Y,,,,,,,,,
38,8,426,1,1,9,['d'],N,['k'],Y,['d'],N,,,,,,,,,
38,9,427,4,4,9,['k'],N,['d'],Y,['space'],Y,,,,,,,,,
38,10,428,3,3,9,['d'],N,['k'],Y,None,N,,,,,,,,,
39,0,429,8,8,9,['d'],N,['k'],Y,['space'],Y,,,,,,,,,
39,1,430,8,8,9,['k'],Y,['k'],N,None,Y,,,,,,,,,
39,2,431,5,5,9,['d'],N,['k'],N,None,Y,,,,,,,,,
39,3,432,0,0,9,['d'],Y,['d'],Y,['space'],Y,,,,,,,,,
39,4,433,7,7,9,['d'],N,['k'],N,None,Y,,,,,,,,,
39,5,434,8,8,9,['d'],Y,['d'],N,None,Y,,,,,,,,,
39,6,435,7,7,9,['k'],Y,['k'],N,None,Y,,,,,,,,,
39,7,436,0,0,9,['k'],N,['d'],N,None,Y,,,,,,,,,
39,8,437,7,7,9,['d'],N,['k'],N,None,Y,,,,,,,,,
39,9,438,7,7,9,['d'],Y,['d'],Y,None,N,,,,,,,,,
39,10,439,0,0,9,['d'],Y,['d'],Y,None,N,,,,,,,,,
40,0,440,9,9,9,['k'],N,['d'],Y,None,N,,,,,,,,,
40,1,441,10,10,9,['k'],N,['d'],Y,None,N,,,,,,,,,
40,2,442,9,9,9,['k'],N,['d'],N,None,Y,,,,,,,,,
40,3,443,0,0,9,['d'],N,['k'],Y,None,N,,,,,,,,,
40,4,444,9,9,9,['k'],Y,['k'],Y,None,N,,,,,,,,,
40,5,445,6,6,9,['k'],N,['d'],N,None,Y,,,,,,,,,
40,6,446,10,10,9,['d'],N,['k'],Y,None,N,,,,,,,,,
40,7,447,5,5,9,['d'],N,['k'],N,None,Y,,,,,,,,,
40,8,448,2,2,9,['k'],Y,['k'],N,None,Y,,,,,,,,,
40,9,449,0,0,9,['k'],N,['d'],N,None,Y,21,29,25,,,,,,
40,10,450,6,6,10,['d'],N,['k'],,,,,,,,,,,,
41,0,451,10,10,10,['k'],Y,['k'],,,,,,,,,,,,
41,1,452,8,8,10,['k'],N,['d'],N,None,Y,,,,,,,,,
41,2,453,3,3,10,['d'],N,['k'],N,None,Y,,,,,,,,,
41,3,454,5,5,10,['d'],Y,['d'],N,None,Y,,,,,,,,,
41,4,455,5,5,10,['d'],Y,['d'],Y,['space'],Y,,,,,,,,,
41,5,456,5,5,10,['k'],Y,['k'],N,None,Y,,,,,,,,,
41,6,457,1,1,10,['d'],Y,['d'],N,['space'],N,,,,,,,,,
41,7,458,9,9,10,['k'],N,['d'],N,None,Y,,,,,,,,,
41,8,459,2,2,10,['d'],N,['k'],Y,None,N,,,,,,,,,
41,9,460,9,9,10,['k'],Y,['k'],N,None,Y,,,,,,,,,
41,10,461,8,8,10,['k'],N,['d'],N,None,Y,,,,,,,,,
42,0,462,7,7,10,['k'],N,['d'],Y,None,N,,,,,,,,,
42,1,463,2,2,10,['d'],Y,['d'],N,None,Y,,,,,,,,,
42,2,464,0,0,10,['k'],Y,['k'],N,None,Y,,,,,,,,,
42,3,465,7,7,10,['d'],Y,['d'],N,None,Y,,,,,,,,,
42,4,466,2,2,10,['d'],Y,['d'],N,None,Y,,,,,,,,,
42,5,467,0,0,10,['k'],N,['d'],N,None,Y,,,,,,,,,
42,6,468,9,9,10,['d'],N,['k'],N,None,Y,,,,,,,,,
42,7,469,7,7,10,['d'],N,['k'],Y,['space'],Y,,,,,,,,,
42,8,470,5,5,10,['k'],Y,['k'],N,None,Y,,,,,,,,,
42,9,471,6,6,10,['d'],Y,['d'],N,None,Y,,,,,,,,,
42,10,472,2,2,10,['k'],Y,['k'],N,None,Y,,,,,,,,,
43,0,473,0,0,10,['d'],N,['k'],Y,None,N,,,,,,,,,
43,1,474,1,1,10,['k'],N,['d'],Y,None,N,,,,,,,,,
43,2,475,8,8,10,['d'],Y,['d'],Y,['space'],Y,,,,,,,,,
43,3,476,5,5,10,['k'],N,['d'],N,None,Y,,,,,,,,,
43,4,477,5,5,10,['d'],N,['k'],Y,['space'],Y,,,,,,,,,
43,5,478,6,6,10,['k'],Y,['k'],N,None,Y,,,,,,,,,
43,6,479,6,6,10,['k'],N,['d'],N,None,Y,,,,,,,,,
43,7,480,10,10,10,['d'],Y,['d'],Y,['space'],Y,,,,,,,,,
43,8,481,10,10,10,['d'],N,['k'],N,None,Y,,,,,,,,,
43,9,482,3,3,10,['d'],N,['k'],Y,['space'],Y,,,,,,,,,
43,10,483,9,9,10,['k'],Y,['k'],N,None,Y,,,,,,,,,
44,0,484,2,2,10,['k'],N,['d'],Y,['space'],Y,,,,,,,,,
44,1,485,7,7,10,['d'],Y,['d'],Y,None,N,,,,,,,,,
44,2,486,0,0,10,['d'],N,['k'],Y,['space'],Y,,,,,,,,,
44,3,487,5,5,10,['k'],N,['d'],N,None,Y,,,,,,,,,
44,4,488,4,4,10,['k'],N,['d'],N,None,Y,,,,,,,,,
44,5,489,2,2,10,['d'],Y,['d'],Y,['space'],Y,,,,,,,,,
44,6,490,10,10,10,['k'],Y,['k'],Y,['space'],Y,,,,,,,,,
44,7,491,8,8,10,['d'],N,['k'],N,None,Y,,,,,,,,,
44,8,492,3,3,10,['d'],N,['k'],N,None,Y,,,,,,,,,
44,9,493,7,7,10,['k'],Y,['k'],N,None,Y,,,,,,,,,
44,10,494,3,3,10,['k'],Y,['k'],N,None,Y,,,,,,,,,
45,0,495,2,2,10,['k'],Y,['k'],N,None,Y,,,,,,,,,
45,1,496,6,6,10,['k'],N,['d'],Y,['space'],Y,,,,,,,,,
45,2,497,10,10,10,['d'],N,['k'],Y,['space'],Y,,,,,,,,,
45,3,498,1,1,10,['k'],N,['d'],Y,['space'],Y,,,,,,,,,
45,4,499,9,9,10,['d'],N,['k'],Y,['space'],Y,23,42,19,,,,,,
45,5,500,8,8,11,None,Timed out,,,,,,,,Y,Y,Y,,,
45,6,501,10,10,11,None,Timed out,,,,,,,,,Y,Y,,,
45,7,502,6,6,11,['k'],N,['k'],N,None,Y,,,,,Y,Y,,,
45,8,503,6,6,11,['d'],Y,['k'],Y,None,N,,,,,Y,Y,,,
45,9,504,6,6,11,['d'],Y,['k'],N,None,Y,,,,,Y,Y,,,
45,10,505,10,10,11,['k'],Y,['d'],N,None,Y,,,,,Y,Y,,,
46,0,506,4,4,11,['d'],Y,['k'],Y,['space'],Y,,,,,Y,Y,,,
46,1,507,5,5,11,['k'],N,['k'],N,None,Y,,,,,Y,Y,,,
46,2,508,6,6,11,['d'],Y,['k'],Y,None,N,,,,,Y,Y,,,
46,3,509,5,5,11,['d'],Y,['k'],N,None,Y,,,,,Y,Y,,,
46,4,510,0,0,11,['k'],N,['k'],Y,['space'],Y,,,,,Y,Y,,,
46,5,511,9,9,11,['d'],Y,['k'],N,None,Y,,,,,Y,Y,,,
46,6,512,6,6,11,['d'],N,['d'],N,None,Y,,,,,Y,Y,,,
46,7,513,0,0,11,['k'],Y,['d'],N,None,Y,,,,,Y,Y,,,
46,8,514,9,9,11,['k'],N,['k'],Y,None,N,,,,,Y,Y,,,
46,9,515,3,3,11,['d'],Y,['k'],Y,['space'],Y,,,,,Y,Y,,,
46,10,516,9,9,11,['k'],N,['k'],Y,['space'],Y,,,,,Y,Y,,,
47,0,517,4,4,11,['d'],N,['d'],N,None,Y,,,,,Y,Y,,,
47,1,518,4,4,11,['k'],Y,['d'],N,None,Y,,,,,Y,Y,,,
47,2,519,5,5,11,['d'],Y,['k'],N,None,Y,,,,,Y,Y,,,
47,3,520,5,5,11,None,Timed out,,Y,['space'],Y,,,,,Y,Y,,,
47,4,521,1,1,11,['d'],Y,['k'],Y,['d'],N,,,,,Y,Y,,,
47,5,522,0,0,11,['k'],N,['k'],Y,['space'],Y,,,,,Y,Y,,,
47,6,523,6,6,11,['d'],Y,['k'],N,None,Y,,,,,Y,Y,,,
47,7,524,0,0,11,['k'],N,['k'],Y,['space'],Y,,,,,Y,Y,,,
47,8,525,4,4,11,['d'],Y,['k'],Y,['space'],Y,,,,,Y,Y,,,
47,9,526,10,10,11,['d'],N,['d'],Y,None,N,,,,,Y,Y,,,
47,10,527,9,9,11,['k'],Y,['d'],N,None,Y,,,,,Y,Y,,,
48,0,528,1,1,11,['d'],N,['d'],Y,None,N,,,,,Y,Y,,,
48,1,529,0,0,11,['d'],Y,['k'],N,None,Y,,,,,Y,Y,,,
48,2,530,1,1,11,['k'],N,['k'],Y,['d'],N,,,,,Y,Y,,,
48,3,531,6,6,11,['d'],Y,['k'],Y,None,N,,,,,Y,Y,,,
48,4,532,10,10,11,['d'],Y,['k'],Y,['d'],N,,,,,Y,Y,,,
48,5,533,10,10,11,['d'],Y,['k'],Y,None,N,,,,,Y,Y,,,
48,6,534,8,8,11,['k'],Y,['d'],Y,None,N,,,,,Y,Y,,,
48,7,535,1,1,11,['d'],Y,['k'],Y,['space'],Y,,,,,Y,Y,,,
48,8,536,7,7,11,['k'],N,['k'],N,None,Y,,,,,Y,Y,,,
48,9,537,3,3,11,['d'],N,['d'],Y,['space'],Y,,,,,Y,Y,,,
48,10,538,7,7,11,['k'],Y,['d'],Y,None,N,,,,,Y,Y,,,
49,0,539,6,6,11,['d'],Y,['k'],N,None,Y,,,,,Y,Y,,,
49,1,540,9,9,11,['d'],N,['d'],Y,None,N,,,,,Y,Y,,,
49,2,541,4,4,11,['k'],Y,['d'],N,None,Y,,,,,Y,Y,,,
49,3,542,5,5,11,['k'],N,['k'],Y,None,N,,,,,Y,Y,,,
49,4,543,8,8,11,['d'],N,['d'],N,None,Y,,,,,Y,Y,,,
49,5,544,2,2,11,['d'],N,['d'],N,None,Y,,,,,Y,Y,,,
49,6,545,3,3,11,['d'],N,['d'],N,['d'],N,,,,,Y,Y,,,
49,7,546,7,7,11,['k'],N,['k'],Y,None,N,,,,,Y,Y,,,
49,8,547,1,1,11,['d'],N,['d'],N,None,Y,,,,,Y,Y,,,
49,9,548,6,6,11,['k'],Y,['d'],N,None,Y,,,,,Y,Y,,,
49,10,549,2,2,11,['d'],Y,['k'],N,None,Y,26,32,25,,Y,Y,,,
50,0,550,1,1,12,['k'],Y,['d'],,,,,,,,Y,Y,,,
50,1,551,10,10,12,['k'],Y,['d'],,,,,,,,Y,Y,,,
50,2,552,8,8,12,['d'],N,['d'],N,None,Y,,,,,Y,Y,,,
50,3,553,7,7,12,['k'],Y,['d'],Y,None,N,,,,,Y,Y,,,
50,4,554,10,10,12,['k'],N,['k'],N,None,Y,,,,,Y,Y,,,
50,5,555,7,7,12,['d'],N,['d'],N,None,Y,,,,,Y,Y,,,
50,6,556,5,5,12,['k'],Y,['d'],N,None,Y,,,,,Y,Y,,,
50,7,557,6,6,12,['k'],N,['k'],Y,['space'],Y,,,,,Y,Y,,,
50,8,558,0,0,12,['d'],Y,['k'],N,None,Y,,,,,Y,Y,,,
50,9,559,0,0,12,['d'],Y,['k'],N,None,Y,,,,,Y,Y,,,
50,10,560,8,8,12,['k'],Y,['d'],Y,None,N,,,,,Y,Y,,,
51,0,561,1,1,12,['k'],Y,['d'],N,['k'],N,,,,,Y,Y,,,
51,1,562,2,2,12,['k'],Y,['d'],N,None,Y,,,,,Y,Y,,,
51,2,563,5,5,12,['k'],N,['k'],N,None,Y,,,,,Y,Y,,,
51,3,564,2,2,12,['d'],Y,['k'],N,['d'],N,,,,,Y,Y,,,
51,4,565,10,10,12,['d'],Y,['k'],N,None,Y,,,,,Y,Y,,,
51,5,566,7,7,12,['k'],N,['k'],N,None,Y,,,,,Y,Y,,,
51,6,567,10,10,12,['d'],N,['d'],Y,['space'],Y,,,,,Y,Y,,,
51,7,568,6,6,12,['k'],Y,['d'],Y,['space'],Y,,,,,Y,Y,,,
51,8,569,8,8,12,['k'],N,['k'],N,None,Y,,,,,Y,Y,,,
51,9,570,7,7,12,['k'],N,['k'],N,None,Y,,,,,Y,Y,,,
51,10,571,1,1,12,['k'],N,['k'],Y,['space'],Y,,,,,Y,Y,,,
52,0,572,6,6,12,['d'],N,['d'],Y,['space'],Y,,,,,Y,Y,,,
52,1,573,0,0,12,['d'],Y,['k'],Y,['space'],Y,,,,,Y,Y,,,
52,2,574,2,2,12,['k'],N,['k'],N,None,Y,,,,,Y,Y,,,
52,3,575,1,1,12,['d'],Y,['k'],Y,['space'],Y,,,,,Y,Y,,,
52,4,576,3,3,12,['d'],N,['d'],Y,None,N,,,,,Y,Y,,,
52,5,577,6,6,12,['d'],N,['d'],N,None,Y,,,,,Y,Y,,,
52,6,578,6,6,12,['d'],N,['d'],N,None,Y,,,,,Y,Y,,,
52,7,579,7,7,12,['d'],Y,['k'],N,None,Y,,,,,Y,Y,,,
52,8,580,2,2,12,['k'],Y,['d'],Y,None,N,,,,,Y,Y,,,
52,9,581,3,3,12,['d'],N,['d'],Y,['space'],Y,,,,,Y,Y,,,
52,10,582,4,4,12,['d'],Y,['k'],Y,['space'],Y,,,,,Y,Y,,,
53,0,583,5,5,12,['k'],Y,['d'],Y,['space'],Y,,,,,Y,Y,,,
53,1,584,7,7,12,['d'],Y,['k'],N,['space'],N,,,,,Y,Y,,,
53,2,585,2,2,12,['d'],N,['d'],N,None,Y,,,,,Y,Y,,,
53,3,586,8,8,12,['k'],N,['k'],N,['space'],N,,,,,Y,Y,,,
53,4,587,7,7,12,['d'],N,['d'],Y,None,N,,,,,Y,Y,,,
53,5,588,1,1,12,['k'],Y,['d'],N,None,Y,,,,,Y,Y,,,
53,6,589,5,5,12,['k'],Y,['d'],Y,None,N,,,,,Y,Y,,,
53,7,590,5,5,12,['d'],Y,['k'],Y,None,N,,,,,Y,Y,,,
53,8,591,10,10,12,['k'],N,['k'],Y,['space'],Y,,,,,Y,Y,,,
53,9,592,7,7,12,['d'],N,['d'],Y,None,N,,,,,Y,Y,,,
53,10,593,2,2,12,['k'],N,['k'],N,None,Y,,,,,Y,Y,,,
54,0,594,0,0,12,['d'],Y,['k'],N,None,Y,,,,,Y,Y,,,
54,1,595,6,6,12,['k'],Y,['d'],Y,['d'],N,,,,,Y,Y,,,
54,2,596,9,9,12,['d'],N,['d'],Y,['space'],Y,,,,,Y,Y,,,
54,3,597,6,6,12,['k'],Y,['d'],N,None,Y,,,,,Y,Y,,,
54,4,598,2,2,12,['k'],N,['k'],Y,None,N,,,,,Y,Y,,,
54,5,599,4,4,12,['d'],Y,['k'],N,None,Y,26,34,22,,Y,Y,,,
