.thisRepN,.thisTrialN,.thisN,.thisIndex,.thisTrial,Block Number,Key pressed,Correct?,Category,Int Match?,Int Response,Int Correct?,Line Accuracy,Interference Accuracy,Matching Interferences,New instruction shown?,Buttons switched?,Fast?,gender,age,
0,0,0,0,0,1,None,Timed out,,,,,,,,,,,F,20,
0,1,1,10,10,1,['k'],N,['d'],,,,,,,,,,F,20,
0,2,2,3,3,1,['d'],Y,['d'],Y,None,N,,,,,,,F,20,
0,3,3,4,4,1,['k'],N,['d'],Y,None,N,,,,,,,F,20,
0,4,4,1,1,1,['d'],N,['k'],Y,None,N,,,,,,,F,20,
0,5,5,2,2,1,['d'],Y,['d'],Y,['space'],Y,,,,,,,F,20,
0,6,6,9,9,1,['d'],N,['k'],N,None,Y,,,,,,,F,20,
0,7,7,9,9,1,['k'],N,['d'],N,None,Y,,,,,,,F,20,
0,8,8,5,5,1,['d'],Y,['d'],Y,['space'],Y,,,,,,,F,20,
0,9,9,2,2,1,['d'],N,['k'],N,None,Y,,,,,,,F,20,
0,10,10,5,5,1,['d'],N,['k'],Y,['space'],Y,,,,,,,F,20,
1,0,11,6,6,1,['d'],N,['k'],N,None,Y,,,,,,,F,20,
1,1,12,5,5,1,['d'],N,['k'],N,None,Y,,,,,,,F,20,
1,2,13,1,1,1,['k'],N,['d'],N,None,Y,,,,,,,F,20,
1,3,14,4,4,1,['d'],Y,['d'],N,None,Y,,,,,,,F,20,
1,4,15,10,10,1,['k'],N,['d'],Y,None,N,,,,,,,F,20,
1,5,16,0,0,1,['k'],Y,['k'],N,None,Y,,,,,,,F,20,
1,6,17,2,2,1,['d'],Y,['d'],N,None,Y,,,,,,,F,20,
1,7,18,6,6,1,['k'],N,['d'],N,None,Y,,,,,,,F,20,
1,8,19,2,2,1,['d'],N,['k'],Y,None,N,,,,,,,F,20,
1,9,20,8,8,1,['d'],N,['k'],N,None,Y,,,,,,,F,20,
1,10,21,9,9,1,['k'],Y,['k'],N,None,Y,,,,,,,F,20,
2,0,22,8,8,1,['k'],Y,['k'],Y,['d'],N,,,,,,,F,20,
2,1,23,1,1,1,['d'],N,['k'],N,None,Y,,,,,,,F,20,
2,2,24,4,4,1,['k'],N,['d'],N,None,Y,,,,,,,F,20,
2,3,25,6,6,1,['d'],N,['k'],Y,['space'],Y,,,,,,,F,20,
2,4,26,1,1,1,['d'],Y,['d'],Y,None,N,,,,,,,F,20,
2,5,27,10,10,1,['d'],Y,['d'],N,None,Y,,,,,,,F,20,
2,6,28,2,2,1,['k'],Y,['k'],N,None,Y,,,,,,,F,20,
2,7,29,10,10,1,['k'],Y,['k'],N,['space'],N,,,,,,,F,20,
2,8,30,8,8,1,['k'],N,['d'],N,None,Y,,,,,,,F,20,
2,9,31,8,8,1,['d'],N,['k'],Y,None,N,,,,,,,F,20,
2,10,32,5,5,1,['k'],N,['d'],N,None,Y,,,,,,,F,20,
3,0,33,4,4,1,['d'],Y,['d'],N,None,Y,,,,,,,F,20,
3,1,34,8,8,1,['k'],Y,['k'],N,['space'],N,,,,,,,F,20,
3,2,35,2,2,1,['k'],N,['d'],N,None,Y,,,,,,,F,20,
3,3,36,1,1,1,['d'],N,['k'],N,None,Y,,,,,,,F,20,
3,4,37,0,0,1,['d'],Y,['d'],N,None,Y,,,,,,,F,20,
3,5,38,6,6,1,['d'],Y,['d'],N,None,Y,,,,,,,F,20,
3,6,39,9,9,1,['d'],Y,['d'],Y,['space'],Y,,,,,,,F,20,
3,7,40,4,4,1,['d'],N,['k'],Y,['space'],Y,,,,,,,F,20,
3,8,41,4,4,1,['k'],N,['d'],Y,['space'],Y,,,,,,,F,20,
3,9,42,7,7,1,['d'],N,['k'],Y,['space'],Y,,,,,,,F,20,
3,10,43,10,10,1,['k'],N,['d'],N,None,Y,,,,,,,F,20,
4,0,44,7,7,1,['k'],Y,['k'],Y,['space'],Y,,,,,,,F,20,
4,1,45,1,1,1,['d'],N,['k'],Y,None,N,,,,,,,F,20,
4,2,46,5,5,1,['k'],Y,['k'],N,None,Y,,,,,,,F,20,
4,3,47,3,3,1,['d'],Y,['d'],N,None,Y,,,,,,,F,20,
4,4,48,1,1,1,['k'],N,['d'],Y,['b'],N,,,,,,,F,20,
4,5,49,7,7,1,['d'],Y,['d'],Y,None,N,21,35,20,,,,F,20,
4,6,50,10,10,2,['k'],N,['d'],,,,,,,,,,F,20,
4,7,51,4,4,2,['d'],Y,['d'],,,,,,,,,,F,20,
4,8,52,6,6,2,['d'],N,['k'],Y,['space'],Y,,,,,,,F,20,
4,9,53,2,2,2,['d'],Y,['d'],Y,['space'],Y,,,,,,,F,20,
4,10,54,9,9,2,['k'],Y,['k'],N,None,Y,,,,,,,F,20,
5,0,55,9,9,2,['d'],N,['k'],N,['space'],N,,,,,,,F,20,
5,1,56,6,6,2,['d'],N,['k'],N,None,Y,,,,,,,F,20,
5,2,57,10,10,2,['k'],Y,['k'],N,['space'],N,,,,,,,F,20,
5,3,58,6,6,2,['k'],Y,['k'],N,None,Y,,,,,,,F,20,
5,4,59,1,1,2,['k'],N,['d'],Y,None,N,,,,,,,F,20,
5,5,60,4,4,2,['d'],Y,['d'],N,None,Y,,,,,,,F,20,
5,6,61,5,5,2,['d'],Y,['d'],N,None,Y,,,,,,,F,20,
5,7,62,5,5,2,['k'],Y,['k'],Y,['space'],Y,,,,,,,F,20,
5,8,63,7,7,2,['d'],N,['k'],N,None,Y,,,,,,,F,20,
5,9,64,5,5,2,['k'],N,['d'],N,None,Y,,,,,,,F,20,
5,10,65,6,6,2,['k'],N,['d'],N,None,Y,,,,,,,F,20,
6,0,66,3,3,2,['d'],Y,['d'],N,None,Y,,,,,,,F,20,
6,1,67,0,0,2,['k'],Y,['k'],Y,['space'],Y,,,,,,,F,20,
6,2,68,10,10,2,['k'],N,['d'],Y,None,N,,,,,,,F,20,
6,3,69,3,3,2,['d'],N,['k'],Y,['space'],Y,,,,,,,F,20,
6,4,70,3,3,2,['d'],N,['k'],Y,['space'],Y,,,,,,,F,20,
6,5,71,8,8,2,['d'],Y,['d'],N,None,Y,,,,,,,F,20,
6,6,72,6,6,2,['d'],N,['k'],Y,None,N,,,,,,,F,20,
6,7,73,4,4,2,['k'],Y,['k'],N,['k'],N,,,,,,,F,20,
6,8,74,3,3,2,['d'],Y,['d'],Y,None,N,,,,,,,F,20,
6,9,75,7,7,2,['d'],N,['k'],N,None,Y,,,,,,,F,20,
6,10,76,1,1,2,['k'],Y,['k'],Y,['k'],N,,,,,,,F,20,
7,0,77,3,3,2,['k'],Y,['k'],N,None,Y,,,,,,,F,20,
7,1,78,4,4,2,['d'],Y,['d'],Y,['space'],Y,,,,,,,F,20,
7,2,79,4,4,2,['k'],Y,['k'],Y,['space'],Y,,,,,,,F,20,
7,3,80,4,4,2,['k'],Y,['k'],N,None,Y,,,,,,,F,20,
7,4,81,9,9,2,['d'],Y,['d'],N,None,Y,,,,,,,F,20,
7,5,82,9,9,2,['k'],Y,['k'],Y,['space'],Y,,,,,,,F,20,
7,6,83,4,4,2,['k'],Y,['k'],N,None,Y,,,,,,,F,20,
7,7,84,2,2,2,['k'],N,['d'],N,None,Y,,,,,,,F,20,
7,8,85,9,9,2,['d'],Y,['d'],Y,['space'],Y,,,,,,,F,20,
7,9,86,3,3,2,['k'],Y,['k'],N,None,Y,,,,,,,F,20,
7,10,87,4,4,2,['k'],Y,['k'],N,None,Y,,,,,,,F,20,
8,0,88,3,3,2,['d'],Y,['d'],Y,['space'],Y,,,,,,,F,20,
8,1,89,10,10,2,['k'],N,['d'],N,None,Y,,,,,,,F,20,
8,2,90,1,1,2,['k'],Y,['k'],N,None,Y,,,,,,,F,20,
8,3,91,7,7,2,['d'],N,['k'],Y,['space'],Y,,,,,,,F,20,
8,4,92,9,9,2,['k'],N,['d'],Y,['space'],Y,,,,,,,F,20,
8,5,93,0,0,2,['k'],Y,['k'],N,None,Y,,,,,,,F,20,
8,6,94,0,0,2,['k'],N,['d'],Y,['space'],Y,,,,,,,F,20,
8,7,95,1,1,2,['d'],N,['k'],N,None,Y,,,,,,,F,20,
8,8,96,7,7,2,['k'],N,['d'],Y,['space'],Y,,,,,,,F,20,
8,9,97,2,2,2,['k'],Y,['k'],Y,['space'],Y,,,,,,,F,20,
8,10,98,8,8,2,['k'],Y,['k'],Y,['space'],Y,,,,,,,F,20,
9,0,99,3,3,2,['k'],N,['d'],N,None,Y,29,40,22,,,,F,20,
9,1,100,10,10,3,['d'],N,['k'],,,,,,,,,,F,20,
9,2,101,4,4,3,['k'],N,['d'],,,,,,,,,,F,20,
9,3,102,1,1,3,['d'],Y,['d'],Y,['space'],Y,,,,,,,F,20,
9,4,103,8,8,3,['d'],Y,['d'],Y,['k'],N,,,,,,,F,20,
9,5,104,9,9,3,['d'],N,['k'],N,None,Y,,,,,,,F,20,
9,6,105,8,8,3,['d'],N,['k'],N,None,Y,,,,,,,F,20,
9,7,106,8,8,3,['k'],N,['d'],Y,['space'],Y,,,,,,,F,20,
9,8,107,1,1,3,['d'],N,['k'],N,None,Y,,,,,,,F,20,
9,9,108,6,6,3,['d'],Y,['d'],Y,None,N,,,,,,,F,20,
9,10,109,0,0,3,['k'],Y,['k'],Y,['space'],Y,,,,,,,F,20,
10,0,110,5,5,3,['k'],N,['d'],Y,['space'],Y,,,,,,,F,20,
10,1,111,10,10,3,['k'],N,['d'],Y,['space'],Y,,,,,,,F,20,
10,2,112,2,2,3,['d'],Y,['d'],N,None,Y,,,,,,,F,20,
10,3,113,8,8,3,['d'],N,['k'],Y,['space'],Y,,,,,,,F,20,
10,4,114,8,8,3,['d'],Y,['d'],N,None,Y,,,,,,,F,20,
10,5,115,2,2,3,['k'],N,['d'],Y,['space'],Y,,,,,,,F,20,
10,6,116,2,2,3,['k'],Y,['k'],N,None,Y,,,,,,,F,20,
10,7,117,7,7,3,['d'],N,['k'],Y,['space'],Y,,,,,,,F,20,
10,8,118,4,4,3,['k'],Y,['k'],Y,['space'],Y,,,,,,,F,20,
10,9,119,10,10,3,['d'],N,['k'],Y,['space'],Y,,,,,,,F,20,
10,10,120,0,0,3,['k'],Y,['k'],N,None,Y,,,,,,,F,20,
11,0,121,6,6,3,['k'],Y,['k'],Y,['space'],Y,,,,,,,F,20,
11,1,122,7,7,3,['k'],Y,['k'],N,None,Y,,,,,,,F,20,
11,2,123,2,2,3,['k'],Y,['k'],N,None,Y,,,,,,,F,20,
11,3,124,3,3,3,['k'],N,['d'],N,None,Y,,,,,,,F,20,
11,4,125,3,3,3,['d'],Y,['d'],Y,['space'],Y,,,,,,,F,20,
11,5,126,1,1,3,['k'],Y,['k'],N,None,Y,,,,,,,F,20,
11,6,127,1,1,3,['k'],Y,['k'],Y,['space'],Y,,,,,,,F,20,
11,7,128,10,10,3,['d'],Y,['d'],Y,['space'],Y,,,,,,,F,20,
11,8,129,5,5,3,['k'],N,['d'],N,None,Y,,,,,,,F,20,
11,9,130,3,3,3,['k'],N,['d'],Y,['space'],Y,,,,,,,F,20,
11,10,131,6,6,3,['d'],N,['k'],Y,['space'],Y,,,,,,,F,20,
12,0,132,9,9,3,['k'],Y,['k'],N,None,Y,,,,,,,F,20,
12,1,133,6,6,3,['k'],Y,['k'],N,None,Y,,,,,,,F,20,
12,2,134,6,6,3,['d'],N,['k'],Y,['space'],Y,,,,,,,F,20,
12,3,135,10,10,3,['k'],N,['d'],Y,['space'],Y,,,,,,,F,20,
12,4,136,7,7,3,['k'],N,['d'],N,None,Y,,,,,,,F,20,
12,5,137,0,0,3,['d'],N,['k'],Y,['space'],Y,,,,,,,F,20,
12,6,138,5,5,3,['k'],N,['d'],N,None,Y,,,,,,,F,20,
12,7,139,6,6,3,['d'],Y,['d'],N,None,Y,,,,,,,F,20,
12,8,140,2,2,3,['d'],Y,['d'],Y,['space'],Y,,,,,,,F,20,
12,9,141,2,2,3,['k'],Y,['k'],N,None,Y,,,,,,,F,20,
12,10,142,5,5,3,['d'],Y,['d'],N,None,Y,,,,,,,F,20,
13,0,143,5,5,3,['d'],N,['k'],N,None,Y,,,,,,,F,20,
13,1,144,6,6,3,['k'],N,['d'],Y,['space'],Y,,,,,,,F,20,
13,2,145,10,10,3,['d'],Y,['d'],Y,['space'],Y,,,,,,,F,20,
13,3,146,0,0,3,['k'],Y,['k'],N,None,Y,,,,,,,F,20,
13,4,147,6,6,3,['d'],N,['k'],N,None,Y,,,,,,,F,20,
13,5,148,2,2,3,['d'],N,['k'],Y,['space'],Y,,,,,,,F,20,
13,6,149,0,0,3,['d'],Y,['d'],N,['space'],N,25,45,25,,,,F,20,
13,7,150,0,0,4,['k'],Y,['k'],,,,,,,,,,F,20,
13,8,151,1,1,4,['d'],Y,['d'],,,,,,,,,,F,20,
13,9,152,5,5,4,['k'],N,['d'],Y,['space'],Y,,,,,,,F,20,
13,10,153,7,7,4,['d'],N,['k'],Y,None,N,,,,,,,F,20,
14,0,154,5,5,4,['k'],Y,['k'],N,None,Y,,,,,,,F,20,
14,1,155,8,8,4,['d'],Y,['d'],Y,['space'],Y,,,,,,,F,20,
14,2,156,4,4,4,['k'],N,['d'],N,None,Y,,,,,,,F,20,
14,3,157,0,0,4,['d'],N,['k'],Y,['space'],Y,,,,,,,F,20,
14,4,158,2,2,4,['k'],Y,['k'],Y,['space'],Y,,,,,,,F,20,
14,5,159,8,8,4,['d'],N,['k'],N,None,Y,,,,,,,F,20,
14,6,160,5,5,4,['k'],Y,['k'],N,None,Y,,,,,,,F,20,
14,7,161,6,6,4,['k'],N,['d'],Y,['space'],Y,,,,,,,F,20,
14,8,162,8,8,4,['d'],N,['k'],Y,['space'],Y,,,,,,,F,20,
14,9,163,0,0,4,['k'],N,['d'],Y,['space'],Y,,,,,,,F,20,
14,10,164,5,5,4,['d'],N,['k'],Y,['space'],Y,,,,,,,F,20,
15,0,165,6,6,4,['d'],N,['k'],Y,['space'],Y,,,,,,,F,20,
15,1,166,1,1,4,['k'],Y,['k'],N,None,Y,,,,,,,F,20,
15,2,167,5,5,4,['d'],Y,['d'],N,None,Y,,,,,,,F,20,
15,3,168,1,1,4,['k'],N,['d'],Y,['space'],Y,,,,,,,F,20,
15,4,169,8,8,4,['d'],N,['k'],Y,['space'],Y,,,,,,,F,20,
15,5,170,4,4,4,['k'],N,['d'],Y,None,N,,,,,,,F,20,
15,6,171,3,3,4,['d'],N,['k'],Y,None,N,,,,,,,F,20,
15,7,172,7,7,4,['k'],N,['d'],Y,['space'],Y,,,,,,,F,20,
15,8,173,1,1,4,['d'],N,['k'],N,None,Y,,,,,,,F,20,
15,9,174,9,9,4,['d'],N,['k'],Y,None,N,,,,,,,F,20,
15,10,175,2,2,4,['d'],Y,['d'],Y,['space'],Y,,,,,,,F,20,
16,0,176,2,2,4,['d'],N,['k'],Y,None,N,,,,,,,F,20,
16,1,177,7,7,4,['k'],N,['d'],Y,['space'],Y,,,,,,,F,20,
16,2,178,6,6,4,['d'],N,['k'],N,None,Y,,,,,,,F,20,
16,3,179,4,4,4,['d'],Y,['d'],Y,['space'],Y,,,,,,,F,20,
16,4,180,9,9,4,['k'],N,['d'],Y,None,N,,,,,,,F,20,
16,5,181,8,8,4,['d'],Y,['d'],N,None,Y,,,,,,,F,20,
16,6,182,1,1,4,['d'],N,['k'],N,None,Y,,,,,,,F,20,
16,7,183,6,6,4,['k'],Y,['k'],Y,['space'],Y,,,,,,,F,20,
16,8,184,3,3,4,['d'],Y,['d'],N,None,Y,,,,,,,F,20,
16,9,185,10,10,4,['k'],Y,['k'],N,None,Y,,,,,,,F,20,
16,10,186,9,9,4,['d'],Y,['d'],N,None,Y,,,,,,,F,20,
17,0,187,0,0,4,['k'],Y,['k'],Y,['space'],Y,,,,,,,F,20,
17,1,188,10,10,4,['d'],N,['k'],Y,['space'],Y,,,,,,,F,20,
17,2,189,0,0,4,['d'],N,['k'],Y,['space'],Y,,,,,,,F,20,
17,3,190,1,1,4,['k'],N,['d'],N,None,Y,,,,,,,F,20,
17,4,191,6,6,4,['d'],N,['k'],N,None,Y,,,,,,,F,20,
17,5,192,7,7,4,['d'],N,['k'],N,None,Y,,,,,,,F,20,
17,6,193,5,5,4,['k'],N,['d'],N,None,Y,,,,,,,F,20,
17,7,194,5,5,4,['d'],Y,['d'],N,None,Y,,,,,,,F,20,
17,8,195,9,9,4,['k'],N,['d'],N,None,Y,,,,,,,F,20,
17,9,196,5,5,4,['d'],Y,['d'],N,None,Y,,,,,,,F,20,
17,10,197,1,1,4,['d'],Y,['d'],N,None,Y,,,,,,,F,20,
18,0,198,7,7,4,['d'],N,['k'],N,None,Y,,,,,,,F,20,
18,1,199,5,5,4,['k'],N,['d'],N,None,Y,19,42,25,,,,F,20,
18,2,200,10,10,5,['k'],Y,['k'],,,,,,,,,,F,20,
18,3,201,3,3,5,['d'],Y,['d'],,,,,,,,,,F,20,
18,4,202,6,6,5,['d'],N,['k'],Y,['space'],Y,,,,,,,F,20,
18,5,203,5,5,5,['d'],Y,['d'],Y,['space'],Y,,,,,,,F,20,
18,6,204,10,10,5,['k'],Y,['k'],Y,['space'],Y,,,,,,,F,20,
18,7,205,1,1,5,['k'],Y,['k'],Y,['space'],Y,,,,,,,F,20,
18,8,206,9,9,5,['d'],N,['k'],N,None,Y,,,,,,,F,20,
18,9,207,3,3,5,['k'],N,['d'],Y,['space'],Y,,,,,,,F,20,
18,10,208,10,10,5,['d'],N,['k'],Y,['space'],Y,,,,,,,F,20,
19,0,209,3,3,5,['d'],N,['k'],Y,None,N,,,,,,,F,20,
19,1,210,3,3,5,['k'],N,['d'],N,['space'],N,,,,,,,F,20,
19,2,211,7,7,5,['k'],N,['d'],N,None,Y,,,,,,,F,20,
19,3,212,9,9,5,['d'],N,['k'],N,None,Y,,,,,,,F,20,
19,4,213,4,4,5,['k'],Y,['k'],Y,['space'],Y,,,,,,,F,20,
19,5,214,7,7,5,['k'],N,['d'],Y,['space'],Y,,,,,,,F,20,
19,6,215,9,9,5,['k'],Y,['k'],N,['space'],N,,,,,,,F,20,
19,7,216,9,9,5,['k'],Y,['k'],Y,['space'],Y,,,,,,,F,20,
19,8,217,6,6,5,['d'],Y,['d'],Y,['space'],Y,,,,,,,F,20,
19,9,218,0,0,5,['k'],Y,['k'],Y,['space'],Y,,,,,,,F,20,
19,10,219,7,7,5,['k'],Y,['k'],N,None,Y,,,,,,,F,20,
20,0,220,6,6,5,['d'],Y,['d'],N,None,Y,,,,,,,F,20,
20,1,221,9,9,5,['k'],N,['d'],N,None,Y,,,,,,,F,20,
20,2,222,8,8,5,['k'],N,['d'],Y,['space'],Y,,,,,,,F,20,
20,3,223,1,1,5,['d'],Y,['d'],N,None,Y,,,,,,,F,20,
20,4,224,3,3,5,['k'],Y,['k'],Y,['space'],Y,,,,,,,F,20,
20,5,225,3,3,5,['k'],Y,['k'],N,None,Y,,,,,,,F,20,
20,6,226,8,8,5,['k'],Y,['k'],Y,['space'],Y,,,,,,,F,20,
20,7,227,6,6,5,['d'],Y,['d'],N,['space'],N,,,,,,,F,20,
20,8,228,5,5,5,['k'],Y,['k'],N,None,Y,,,,,,,F,20,
20,9,229,4,4,5,['d'],Y,['d'],Y,['space'],Y,,,,,,,F,20,
20,10,230,2,2,5,['k'],Y,['k'],Y,['space'],Y,,,,,,,F,20,
21,0,231,2,2,5,['d'],N,['k'],Y,['space'],Y,,,,,,,F,20,
21,1,232,6,6,5,['d'],Y,['d'],Y,['space'],Y,,,,,,,F,20,
21,2,233,8,8,5,['d'],Y,['d'],Y,['space'],Y,,,,,,,F,20,
21,3,234,9,9,5,['d'],Y,['d'],Y,['space'],Y,,,,,,,F,20,
21,4,235,8,8,5,['d'],Y,['d'],N,None,Y,,,,,,,F,20,
21,5,236,2,2,5,['d'],N,['k'],N,None,Y,,,,,,,F,20,
21,6,237,10,10,5,['k'],Y,['k'],N,None,Y,,,,,,,F,20,
21,7,238,8,8,5,['k'],N,['d'],Y,['space'],Y,,,,,,,F,20,
21,8,239,0,0,5,['k'],Y,['k'],Y,None,N,,,,,,,F,20,
21,9,240,7,7,5,['d'],N,['k'],N,None,Y,,,,,,,F,20,
21,10,241,1,1,5,['k'],Y,['k'],Y,['space'],Y,,,,,,,F,20,
22,0,242,4,4,5,['d'],Y,['d'],Y,['space'],Y,,,,,,,F,20,
22,1,243,9,9,5,['d'],Y,['d'],N,None,Y,,,,,,,F,20,
22,2,244,7,7,5,['k'],N,['d'],N,None,Y,,,,,,,F,20,
22,3,245,4,4,5,['d'],Y,['d'],N,None,Y,,,,,,,F,20,
22,4,246,4,4,5,['d'],Y,['d'],N,None,Y,,,,,,,F,20,
22,5,247,7,7,5,['k'],N,['d'],N,None,Y,,,,,,,F,20,
22,6,248,6,6,5,['d'],Y,['d'],N,None,Y,,,,,,,F,20,
22,7,249,9,9,5,['k'],Y,['k'],N,None,Y,33,43,25,,,,F,20,
22,8,250,10,10,6,['k'],Y,['k'],,,,,,,,,,F,20,
22,9,251,4,4,6,['d'],Y,['d'],,,,,,,,,,F,20,
22,10,252,2,2,6,['k'],Y,['k'],N,None,Y,,,,,,,F,20,
23,0,253,10,10,6,['d'],N,['k'],N,None,Y,,,,,,,F,20,
23,1,254,5,5,6,['k'],Y,['k'],Y,['k'],N,,,,,,,F,20,
23,2,255,5,5,6,['d'],Y,['d'],Y,None,N,,,,,,,F,20,
23,3,256,8,8,6,['k'],Y,['k'],N,None,Y,,,,,,,F,20,
23,4,257,0,0,6,['d'],Y,['d'],N,None,Y,,,,,,,F,20,
23,5,258,6,6,6,['k'],N,['d'],N,None,Y,,,,,,,F,20,
23,6,259,8,8,6,['d'],N,['k'],Y,['space'],Y,,,,,,,F,20,
23,7,260,8,8,6,['k'],Y,['k'],Y,['space'],Y,,,,,,,F,20,
23,8,261,5,5,6,['d'],Y,['d'],N,None,Y,,,,,,,F,20,
23,9,262,1,1,6,['d'],Y,['d'],N,None,Y,,,,,,,F,20,
23,10,263,1,1,6,['k'],Y,['k'],Y,['space'],Y,,,,,,,F,20,
24,0,264,3,3,6,['d'],Y,['d'],Y,['space'],Y,,,,,,,F,20,
24,1,265,2,2,6,['k'],N,['d'],N,None,Y,,,,,,,F,20,
24,2,266,0,0,6,['d'],Y,['d'],N,None,Y,,,,,,,F,20,
24,3,267,6,6,6,['k'],Y,['k'],Y,['space'],Y,,,,,,,F,20,
24,4,268,10,10,6,['d'],Y,['d'],N,None,Y,,,,,,,F,20,
24,5,269,8,8,6,['k'],Y,['k'],N,None,Y,,,,,,,F,20,
24,6,270,1,1,6,['d'],Y,['d'],N,None,Y,,,,,,,F,20,
24,7,271,3,3,6,['d'],N,['k'],Y,['space'],Y,,,,,,,F,20,
24,8,272,9,9,6,['d'],N,['k'],N,None,Y,,,,,,,F,20,
24,9,273,10,10,6,['k'],Y,['k'],N,None,Y,,,,,,,F,20,
24,10,274,5,5,6,['k'],Y,['k'],N,None,Y,,,,,,,F,20,
25,0,275,5,5,6,['d'],Y,['d'],N,None,Y,,,,,,,F,20,
25,1,276,3,3,6,['d'],Y,['d'],N,None,Y,,,,,,,F,20,
25,2,277,9,9,6,['k'],Y,['k'],N,None,Y,,,,,,,F,20,
25,3,278,1,1,6,['d'],N,['k'],N,None,Y,,,,,,,F,20,
25,4,279,0,0,6,['k'],Y,['k'],N,None,Y,,,,,,,F,20,
25,5,280,4,4,6,['k'],N,['d'],N,None,Y,,,,,,,F,20,
25,6,281,7,7,6,['k'],Y,['k'],N,None,Y,,,,,,,F,20,
25,7,282,1,1,6,['d'],Y,['d'],Y,['space'],Y,,,,,,,F,20,
25,8,283,0,0,6,['k'],Y,['k'],N,None,Y,,,,,,,F,20,
25,9,284,0,0,6,['d'],N,['k'],Y,['space'],Y,,,,,,,F,20,
25,10,285,2,2,6,['k'],Y,['k'],N,None,Y,,,,,,,F,20,
26,0,286,6,6,6,['d'],Y,['d'],Y,['space'],Y,,,,,,,F,20,
26,1,287,8,8,6,['d'],Y,['d'],Y,['space'],Y,,,,,,,F,20,
26,2,288,3,3,6,['d'],Y,['d'],Y,['space'],Y,,,,,,,F,20,
26,3,289,7,7,6,['k'],Y,['k'],Y,['space'],Y,,,,,,,F,20,
26,4,290,1,1,6,['k'],Y,['k'],N,None,Y,,,,,,,F,20,
26,5,291,4,4,6,['k'],Y,['k'],Y,None,N,,,,,,,F,20,
26,6,292,1,1,6,['k'],Y,['k'],Y,['space'],Y,,,,,,,F,20,
26,7,293,6,6,6,['k'],Y,['k'],Y,['space'],Y,,,,,,,F,20,
26,8,294,0,0,6,['d'],Y,['d'],N,None,Y,,,,,,,F,20,
26,9,295,2,2,6,['d'],Y,['d'],N,None,Y,,,,,,,F,20,
26,10,296,9,9,6,['k'],Y,['k'],Y,['space'],Y,,,,,,,F,20,
27,0,297,10,10,6,['d'],Y,['d'],N,None,Y,,,,,,,F,20,
27,1,298,8,8,6,['d'],Y,['d'],Y,['space'],Y,,,,,,,F,20,
27,2,299,0,0,6,['k'],N,['d'],N,None,Y,40,45,19,,,,F,20,
27,3,300,6,6,7,['k'],Y,['k'],,,,,,,,,,F,20,
27,4,301,6,6,7,['k'],Y,['k'],,,,,,,,,,F,20,
27,5,302,10,10,7,['d'],Y,['d'],Y,['space'],Y,,,,,,,F,20,
27,6,303,10,10,7,['k'],Y,['k'],Y,['space'],Y,,,,,,,F,20,
27,7,304,5,5,7,['d'],Y,['d'],N,None,Y,,,,,,,F,20,
27,8,305,6,6,7,['k'],N,['d'],Y,['space'],Y,,,,,,,F,20,
27,9,306,5,5,7,['d'],Y,['d'],Y,['space'],Y,,,,,,,F,20,
27,10,307,8,8,7,['k'],Y,['k'],N,None,Y,,,,,,,F,20,
28,0,308,9,9,7,['d'],Y,['d'],N,None,Y,,,,,,,F,20,
28,1,309,9,9,7,['d'],Y,['d'],Y,['space'],Y,,,,,,,F,20,
28,2,310,5,5,7,['d'],Y,['d'],Y,['space'],Y,,,,,,,F,20,
28,3,311,0,0,7,['d'],Y,['d'],N,None,Y,,,,,,,F,20,
28,4,312,7,7,7,['k'],Y,['k'],Y,['space'],Y,,,,,,,F,20,
28,5,313,7,7,7,['k'],Y,['k'],Y,['space'],Y,,,,,,,F,20,
28,6,314,2,2,7,['k'],Y,['k'],N,None,Y,,,,,,,F,20,
28,7,315,10,10,7,['d'],Y,['d'],N,None,Y,,,,,,,F,20,
28,8,316,4,4,7,['d'],Y,['d'],Y,['space'],Y,,,,,,,F,20,
28,9,317,9,9,7,['d'],N,['k'],N,None,Y,,,,,,,F,20,
28,10,318,4,4,7,['k'],Y,['k'],N,None,Y,,,,,,,F,20,
29,0,319,7,7,7,['d'],Y,['d'],Y,['space'],Y,,,,,,,F,20,
29,1,320,9,9,7,['k'],Y,['k'],N,None,Y,,,,,,,F,20,
29,2,321,6,6,7,['d'],Y,['d'],Y,['space'],Y,,,,,,,F,20,
29,3,322,2,2,7,['d'],N,['k'],N,None,Y,,,,,,,F,20,
29,4,323,0,0,7,['d'],Y,['d'],Y,['space'],Y,,,,,,,F,20,
29,5,324,10,10,7,['d'],Y,['d'],Y,['space'],Y,,,,,,,F,20,
29,6,325,0,0,7,['d'],Y,['d'],Y,['space'],Y,,,,,,,F,20,
29,7,326,2,2,7,['d'],Y,['d'],N,None,Y,,,,,,,F,20,
29,8,327,2,2,7,['d'],Y,['d'],N,None,Y,,,,,,,F,20,
29,9,328,3,3,7,['k'],Y,['k'],Y,['space'],Y,,,,,,,F,20,
29,10,329,4,4,7,['d'],Y,['d'],N,None,Y,,,,,,,F,20,
30,0,330,0,0,7,['d'],Y,['d'],Y,['space'],Y,,,,,,,F,20,
30,1,331,0,0,7,['d'],Y,['d'],N,None,Y,,,,,,,F,20,
30,2,332,0,0,7,['d'],N,['k'],Y,['space'],Y,,,,,,,F,20,
30,3,333,2,2,7,['d'],Y,['d'],N,None,Y,,,,,,,F,20,
30,4,334,7,7,7,['d'],Y,['d'],Y,['space'],Y,,,,,,,F,20,
30,5,335,2,2,7,['d'],Y,['d'],Y,['space'],Y,,,,,,,F,20,
30,6,336,2,2,7,['d'],Y,['d'],Y,['space'],Y,,,,,,,F,20,
30,7,337,0,0,7,['k'],N,['d'],N,None,Y,,,,,,,F,20,
30,8,338,10,10,7,['k'],Y,['k'],Y,['space'],Y,,,,,,,F,20,
30,9,339,7,7,7,['k'],N,['d'],N,None,Y,,,,,,,F,20,
30,10,340,10,10,7,['d'],Y,['d'],Y,['space'],Y,,,,,,,F,20,
31,0,341,1,1,7,['d'],Y,['d'],Y,['space'],Y,,,,,,,F,20,
31,1,342,2,2,7,['d'],Y,['d'],Y,['space'],Y,,,,,,,F,20,
31,2,343,7,7,7,['d'],Y,['d'],Y,['space'],Y,,,,,,,F,20,
31,3,344,5,5,7,['k'],Y,['k'],N,None,Y,,,,,,,F,20,
31,4,345,9,9,7,['k'],Y,['k'],N,None,Y,,,,,,,F,20,
31,5,346,10,10,7,['d'],Y,['d'],N,None,Y,,,,,,,F,20,
31,6,347,7,7,7,['k'],N,['d'],N,None,Y,,,,,,,F,20,
31,7,348,6,6,7,['k'],Y,['k'],N,None,Y,,,,,,,F,20,
31,8,349,2,2,7,['d'],Y,['d'],N,None,Y,43,48,25,,,,F,20,
31,9,350,1,1,8,['k'],Y,['k'],,,,,,,,,,F,20,
31,10,351,2,2,8,['k'],Y,['k'],,,,,,,,,,F,20,
32,0,352,8,8,8,['d'],N,['k'],Y,['space'],Y,,,,,,,F,20,
32,1,353,2,2,8,['k'],Y,['k'],Y,None,N,,,,,,,F,20,
32,2,354,8,8,8,['k'],Y,['k'],N,None,Y,,,,,,,F,20,
32,3,355,5,5,8,['d'],Y,['d'],N,None,Y,,,,,,,F,20,
32,4,356,5,5,8,['k'],Y,['k'],N,None,Y,,,,,,,F,20,
32,5,357,8,8,8,['d'],Y,['d'],Y,['space'],Y,,,,,,,F,20,
32,6,358,5,5,8,['d'],Y,['d'],N,None,Y,,,,,,,F,20,
32,7,359,0,0,8,['k'],Y,['k'],N,None,Y,,,,,,,F,20,
32,8,360,5,5,8,['k'],N,['d'],N,None,Y,,,,,,,F,20,
32,9,361,6,6,8,['k'],Y,['k'],Y,['space'],Y,,,,,,,F,20,
32,10,362,4,4,8,['d'],Y,['d'],Y,['space'],Y,,,,,,,F,20,
33,0,363,3,3,8,['k'],Y,['k'],Y,None,N,,,,,,,F,20,
33,1,364,3,3,8,['k'],Y,['k'],Y,None,N,,,,,,,F,20,
33,2,365,10,10,8,['k'],Y,['k'],Y,['space'],Y,,,,,,,F,20,
33,3,366,3,3,8,['k'],N,['d'],Y,None,N,,,,,,,F,20,
33,4,367,2,2,8,['d'],Y,['d'],Y,None,N,,,,,,,F,20,
33,5,368,4,4,8,['k'],Y,['k'],Y,['space'],Y,,,,,,,F,20,
33,6,369,1,1,8,['k'],Y,['k'],Y,['space'],Y,,,,,,,F,20,
33,7,370,5,5,8,['k'],Y,['k'],N,None,Y,,,,,,,F,20,
33,8,371,3,3,8,['k'],N,['d'],Y,['space'],Y,,,,,,,F,20,
33,9,372,7,7,8,['d'],Y,['d'],Y,['space'],Y,,,,,,,F,20,
33,10,373,3,3,8,['k'],Y,['k'],N,None,Y,,,,,,,F,20,
34,0,374,4,4,8,['k'],Y,['k'],Y,['space'],Y,,,,,,,F,20,
34,1,375,10,10,8,['k'],Y,['k'],Y,['space'],Y,,,,,,,F,20,
34,2,376,1,1,8,['d'],Y,['d'],N,None,Y,,,,,,,F,20,
34,3,377,0,0,8,['d'],Y,['d'],Y,['space'],Y,,,,,,,F,20,
34,4,378,9,9,8,['k'],Y,['k'],Y,['space'],Y,,,,,,,F,20,
34,5,379,4,4,8,['k'],Y,['k'],Y,['space'],Y,,,,,,,F,20,
34,6,380,7,7,8,['d'],Y,['d'],N,None,Y,,,,,,,F,20,
34,7,381,2,2,8,['k'],Y,['k'],N,None,Y,,,,,,,F,20,
34,8,382,7,7,8,['k'],N,['d'],N,None,Y,,,,,,,F,20,
34,9,383,9,9,8,['k'],Y,['k'],N,None,Y,,,,,,,F,20,
34,10,384,5,5,8,['k'],Y,['k'],Y,['d'],N,,,,,,,F,20,
35,0,385,3,3,8,['k'],Y,['k'],Y,['space'],Y,,,,,,,F,20,
35,1,386,2,2,8,['d'],Y,['d'],Y,['space'],Y,,,,,,,F,20,
35,2,387,1,1,8,['k'],Y,['k'],Y,['space'],Y,,,,,,,F,20,
35,3,388,9,9,8,['d'],Y,['d'],N,['space'],N,,,,,,,F,20,
35,4,389,3,3,8,['k'],Y,['k'],N,None,Y,,,,,,,F,20,
35,5,390,10,10,8,['k'],N,['d'],N,None,Y,,,,,,,F,20,
35,6,391,5,5,8,['d'],Y,['d'],N,None,Y,,,,,,,F,20,
35,7,392,10,10,8,['k'],Y,['k'],Y,['space'],Y,,,,,,,F,20,
35,8,393,2,2,8,['k'],Y,['k'],N,None,Y,,,,,,,F,20,
35,9,394,8,8,8,['k'],Y,['k'],Y,['space'],Y,,,,,,,F,20,
35,10,395,9,9,8,['k'],Y,['k'],N,None,Y,,,,,,,F,20,
36,0,396,7,7,8,['k'],Y,['k'],N,None,Y,,,,,,,F,20,
36,1,397,5,5,8,['k'],Y,['k'],N,None,Y,,,,,,,F,20,
36,2,398,7,7,8,['k'],Y,['k'],N,None,Y,,,,,,,F,20,
36,3,399,3,3,8,['k'],Y,['k'],N,None,Y,44,41,25,,,,F,20,
36,4,400,1,1,9,['k'],N,['d'],,,,,,,,,,F,20,
36,5,401,10,10,9,['k'],Y,['k'],,,,,,,,,,F,20,
36,6,402,8,8,9,['d'],Y,['d'],Y,['space'],Y,,,,,,,F,20,
36,7,403,10,10,9,['d'],Y,['d'],Y,['space'],Y,,,,,,,F,20,
36,8,404,6,6,9,['k'],Y,['k'],Y,['space'],Y,,,,,,,F,20,
36,9,405,9,9,9,['d'],N,['k'],N,None,Y,,,,,,,F,20,
36,10,406,8,8,9,['k'],Y,['k'],N,None,Y,,,,,,,F,20,
37,0,407,2,2,9,['d'],Y,['d'],Y,['space'],Y,,,,,,,F,20,
37,1,408,6,6,9,['k'],Y,['k'],Y,['space'],Y,,,,,,,F,20,
37,2,409,4,4,9,['k'],Y,['k'],Y,['space'],Y,,,,,,,F,20,
37,3,410,6,6,9,['d'],Y,['d'],Y,['space'],Y,,,,,,,F,20,
37,4,411,2,2,9,['d'],Y,['d'],N,None,Y,,,,,,,F,20,
37,5,412,7,7,9,['k'],Y,['k'],Y,['space'],Y,,,,,,,F,20,
37,6,413,8,8,9,['k'],Y,['k'],N,None,Y,,,,,,,F,20,
37,7,414,9,9,9,['k'],Y,['k'],N,None,Y,,,,,,,F,20,
37,8,415,1,1,9,['k'],Y,['k'],N,None,Y,,,,,,,F,20,
37,9,416,4,4,9,['d'],Y,['d'],N,None,Y,,,,,,,F,20,
37,10,417,4,4,9,['k'],Y,['k'],N,None,Y,,,,,,,F,20,
38,0,418,8,8,9,['k'],N,['d'],Y,['k'],N,,,,,,,F,20,
38,1,419,0,0,9,['d'],Y,['d'],Y,['space'],Y,,,,,,,F,20,
38,2,420,4,4,9,['k'],Y,['k'],Y,['space'],Y,,,,,,,F,20,
38,3,421,7,7,9,['k'],Y,['k'],N,None,Y,,,,,,,F,20,
38,4,422,0,0,9,['d'],Y,['d'],Y,['space'],Y,,,,,,,F,20,
38,5,423,4,4,9,['k'],Y,['k'],Y,['space'],Y,,,,,,,F,20,
38,6,424,9,9,9,['k'],Y,['k'],Y,['space'],Y,,,,,,,F,20,
38,7,425,3,3,9,['d'],Y,['d'],N,None,Y,,,,,,,F,20,
38,8,426,7,7,9,['k'],Y,['k'],N,None,Y,,,,,,,F,20,
38,9,427,9,9,9,['d'],Y,['d'],Y,['space'],Y,,,,,,,F,20,
38,10,428,0,0,9,['k'],Y,['k'],Y,['space'],Y,,,,,,,F,20,
39,0,429,6,6,9,['k'],Y,['k'],N,None,Y,,,,,,,F,20,
39,1,430,1,1,9,['d'],Y,['d'],N,None,Y,,,,,,,F,20,
39,2,431,8,8,9,['d'],Y,['d'],Y,['space'],Y,,,,,,,F,20,
39,3,432,9,9,9,['k'],N,['d'],Y,['space'],Y,,,,,,,F,20,
39,4,433,10,10,9,['k'],Y,['k'],Y,['space'],Y,,,,,,,F,20,
39,5,434,9,9,9,['d'],Y,['d'],N,None,Y,,,,,,,F,20,
39,6,435,0,0,9,['d'],Y,['d'],Y,['space'],Y,,,,,,,F,20,
39,7,436,8,8,9,['k'],Y,['k'],N,None,Y,,,,,,,F,20,
39,8,437,2,2,9,['d'],Y,['d'],Y,['space'],Y,,,,,,,F,20,
39,9,438,7,7,9,['d'],Y,['d'],N,None,Y,,,,,,,F,20,
39,10,439,5,5,9,['d'],Y,['d'],Y,['space'],Y,,,,,,,F,20,
40,0,440,2,2,9,['k'],Y,['k'],Y,['space'],Y,,,,,,,F,20,
40,1,441,10,10,9,['d'],Y,['d'],Y,['space'],Y,,,,,,,F,20,
40,2,442,4,4,9,['k'],Y,['k'],N,None,Y,,,,,,,F,20,
40,3,443,3,3,9,['d'],Y,['d'],Y,['space'],Y,,,,,,,F,20,
40,4,444,9,9,9,['d'],Y,['d'],N,None,Y,,,,,,,F,20,
40,5,445,0,0,9,['d'],Y,['d'],N,None,Y,,,,,,,F,20,
40,6,446,6,6,9,['d'],Y,['d'],N,None,Y,,,,,,,F,20,
40,7,447,5,5,9,['k'],Y,['k'],N,None,Y,,,,,,,F,20,
40,8,448,7,7,9,['k'],Y,['k'],N,None,Y,,,,,,,F,20,
40,9,449,7,7,9,['d'],Y,['d'],N,None,Y,46,47,25,,,,F,20,
40,10,450,9,9,10,['k'],Y,['k'],,,,,,,,,,F,20,
41,0,451,1,1,10,['k'],N,['d'],,,,,,,,,,F,20,
41,1,452,0,0,10,['d'],Y,['d'],N,None,Y,,,,,,,F,20,
41,2,453,6,6,10,['k'],Y,['k'],N,None,Y,,,,,,,F,20,
41,3,454,4,4,10,['d'],Y,['d'],N,None,Y,,,,,,,F,20,
41,4,455,2,2,10,['d'],Y,['d'],N,None,Y,,,,,,,F,20,
41,5,456,6,6,10,['k'],Y,['k'],N,None,Y,,,,,,,F,20,
41,6,457,1,1,10,['k'],Y,['k'],N,None,Y,,,,,,,F,20,
41,7,458,7,7,10,['k'],Y,['k'],N,None,Y,,,,,,,F,20,
41,8,459,7,7,10,['d'],Y,['d'],N,None,Y,,,,,,,F,20,
41,9,460,4,4,10,['k'],Y,['k'],Y,['space'],Y,,,,,,,F,20,
41,10,461,4,4,10,['k'],N,['d'],Y,['space'],Y,,,,,,,F,20,
42,0,462,7,7,10,['d'],Y,['d'],Y,['space'],Y,,,,,,,F,20,
42,1,463,0,0,10,['d'],Y,['d'],Y,['space'],Y,,,,,,,F,20,
42,2,464,10,10,10,['k'],Y,['k'],N,None,Y,,,,,,,F,20,
42,3,465,3,3,10,['d'],Y,['d'],N,None,Y,,,,,,,F,20,
42,4,466,8,8,10,['d'],Y,['d'],Y,['space'],Y,,,,,,,F,20,
42,5,467,2,2,10,['d'],N,['k'],Y,['space'],Y,,,,,,,F,20,
42,6,468,2,2,10,['k'],Y,['k'],N,None,Y,,,,,,,F,20,
42,7,469,9,9,10,['d'],Y,['d'],Y,['space'],Y,,,,,,,F,20,
42,8,470,0,0,10,['k'],Y,['k'],N,None,Y,,,,,,,F,20,
42,9,471,5,5,10,['d'],Y,['d'],Y,['space'],Y,,,,,,,F,20,
42,10,472,8,8,10,['k'],Y,['k'],N,None,Y,,,,,,,F,20,
43,0,473,3,3,10,['d'],Y,['d'],N,None,Y,,,,,,,F,20,
43,1,474,4,4,10,['k'],Y,['k'],N,None,Y,,,,,,,F,20,
43,2,475,1,1,10,['d'],Y,['d'],N,None,Y,,,,,,,F,20,
43,3,476,0,0,10,['k'],Y,['k'],Y,None,N,,,,,,,F,20,
43,4,477,6,6,10,['k'],Y,['k'],N,None,Y,,,,,,,F,20,
43,5,478,3,3,10,['k'],Y,['k'],Y,['space'],Y,,,,,,,F,20,
43,6,479,7,7,10,['d'],Y,['d'],Y,['space'],Y,,,,,,,F,20,
43,7,480,8,8,10,['k'],N,['d'],N,None,Y,,,,,,,F,20,
43,8,481,1,1,10,['k'],Y,['k'],N,None,Y,,,,,,,F,20,
43,9,482,7,7,10,['k'],Y,['k'],N,None,Y,,,,,,,F,20,
43,10,483,2,2,10,['d'],Y,['d'],Y,['space'],Y,,,,,,,F,20,
44,0,484,1,1,10,['d'],Y,['d'],N,None,Y,,,,,,,F,20,
44,1,485,9,9,10,['k'],Y,['k'],N,None,Y,,,,,,,F,20,
44,2,486,1,1,10,['d'],Y,['d'],Y,['k'],N,,,,,,,F,20,
44,3,487,3,3,10,['k'],Y,['k'],Y,['space'],Y,,,,,,,F,20,
44,4,488,1,1,10,['k'],Y,['k'],N,None,Y,,,,,,,F,20,
44,5,489,9,9,10,['d'],Y,['d'],Y,['space'],Y,,,,,,,F,20,
44,6,490,2,2,10,['k'],Y,['k'],Y,['space'],Y,,,,,,,F,20,
44,7,491,9,9,10,['d'],Y,['d'],N,None,Y,,,,,,,F,20,
44,8,492,3,3,10,['d'],Y,['d'],Y,['space'],Y,,,,,,,F,20,
44,9,493,10,10,10,['k'],N,['d'],Y,['space'],Y,,,,,,,F,20,
44,10,494,4,4,10,['d'],Y,['d'],N,None,Y,,,,,,,F,20,
45,0,495,4,4,10,['k'],Y,['k'],N,None,Y,,,,,,,F,20,
45,1,496,5,5,10,['k'],Y,['k'],Y,['k'],N,,,,,,,F,20,
45,2,497,2,2,10,['d'],Y,['d'],Y,['space'],Y,,,,,,,F,20,
45,3,498,3,3,10,['d'],Y,['d'],Y,['space'],Y,,,,,,,F,20,
45,4,499,7,7,10,['d'],Y,['d'],N,None,Y,45,45,21,,,,F,20,
45,5,500,3,3,11,['d'],Y,['k'],,,,,,,Y,Y,Y,F,20,
45,6,501,10,10,11,['d'],Y,['k'],,,,,,,,Y,Y,F,20,
45,7,502,10,10,11,['k'],Y,['d'],Y,['space'],Y,,,,,Y,Y,F,20,
45,8,503,0,0,11,['d'],Y,['k'],N,None,Y,,,,,Y,Y,F,20,
45,9,504,1,1,11,['k'],N,['k'],N,None,Y,,,,,Y,Y,F,20,
45,10,505,5,5,11,['k'],Y,['d'],Y,['space'],Y,,,,,Y,Y,F,20,
46,0,506,4,4,11,['d'],Y,['k'],N,None,Y,,,,,Y,Y,F,20,
46,1,507,4,4,11,['k'],Y,['d'],Y,['space'],Y,,,,,Y,Y,F,20,
46,2,508,3,3,11,['d'],N,['d'],Y,['space'],Y,,,,,Y,Y,F,20,
46,3,509,9,9,11,['d'],Y,['k'],N,None,Y,,,,,Y,Y,F,20,
46,4,510,7,7,11,['k'],Y,['d'],Y,['space'],Y,,,,,Y,Y,F,20,
46,5,511,7,7,11,['k'],Y,['d'],N,None,Y,,,,,Y,Y,F,20,
46,6,512,2,2,11,['d'],Y,['k'],N,None,Y,,,,,Y,Y,F,20,
46,7,513,10,10,11,['d'],Y,['k'],N,None,Y,,,,,Y,Y,F,20,
46,8,514,0,0,11,['k'],Y,['d'],Y,['space'],Y,,,,,Y,Y,F,20,
46,9,515,8,8,11,['k'],Y,['d'],Y,['space'],Y,,,,,Y,Y,F,20,
46,10,516,10,10,11,['k'],Y,['d'],N,None,Y,,,,,Y,Y,F,20,
47,0,517,8,8,11,['d'],Y,['k'],N,None,Y,,,,,Y,Y,F,20,
47,1,518,8,8,11,['d'],Y,['k'],Y,['space'],Y,,,,,Y,Y,F,20,
47,2,519,9,9,11,['d'],N,['d'],N,None,Y,,,,,Y,Y,F,20,
47,3,520,9,9,11,['k'],Y,['d'],N,None,Y,,,,,Y,Y,F,20,
47,4,521,1,1,11,['d'],Y,['k'],N,None,Y,,,,,Y,Y,F,20,
47,5,522,3,3,11,['k'],Y,['d'],N,None,Y,,,,,Y,Y,F,20,
47,6,523,4,4,11,['k'],Y,['d'],N,None,Y,,,,,Y,Y,F,20,
47,7,524,8,8,11,['k'],N,['k'],Y,['space'],Y,,,,,Y,Y,F,20,
47,8,525,5,5,11,['k'],Y,['d'],N,None,Y,,,,,Y,Y,F,20,
47,9,526,0,0,11,['k'],Y,['d'],Y,['space'],Y,,,,,Y,Y,F,20,
47,10,527,5,5,11,['d'],Y,['k'],Y,['space'],Y,,,,,Y,Y,F,20,
48,0,528,2,2,11,['d'],Y,['k'],N,None,Y,,,,,Y,Y,F,20,
48,1,529,10,10,11,['k'],Y,['d'],N,None,Y,,,,,Y,Y,F,20,
48,2,530,9,9,11,['d'],Y,['k'],N,None,Y,,,,,Y,Y,F,20,
48,3,531,3,3,11,['k'],Y,['d'],Y,['space'],Y,,,,,Y,Y,F,20,
48,4,532,7,7,11,['d'],Y,['k'],Y,['space'],Y,,,,,Y,Y,F,20,
48,5,533,0,0,11,['d'],Y,['k'],N,None,Y,,,,,Y,Y,F,20,
48,6,534,7,7,11,['k'],Y,['d'],N,None,Y,,,,,Y,Y,F,20,
48,7,535,1,1,11,['d'],Y,['k'],N,None,Y,,,,,Y,Y,F,20,
48,8,536,7,7,11,['d'],N,['d'],Y,['space'],Y,,,,,Y,Y,F,20,
48,9,537,6,6,11,['k'],Y,['d'],Y,['space'],Y,,,,,Y,Y,F,20,
48,10,538,4,4,11,['k'],Y,['d'],Y,['space'],Y,,,,,Y,Y,F,20,
49,0,539,5,5,11,['d'],Y,['k'],Y,['space'],Y,,,,,Y,Y,F,20,
49,1,540,0,0,11,['d'],N,['d'],Y,None,N,,,,,Y,Y,F,20,
49,2,541,6,6,11,['d'],Y,['k'],Y,None,N,,,,,Y,Y,F,20,
49,3,542,4,4,11,['k'],Y,['d'],N,None,Y,,,,,Y,Y,F,20,
49,4,543,7,7,11,['k'],Y,['d'],Y,['space'],Y,,,,,Y,Y,F,20,
49,5,544,8,8,11,['d'],Y,['k'],Y,['space'],Y,,,,,Y,Y,F,20,
49,6,545,8,8,11,['k'],Y,['d'],Y,['space'],Y,,,,,Y,Y,F,20,
49,7,546,10,10,11,['k'],Y,['d'],N,None,Y,,,,,Y,Y,F,20,
49,8,547,1,1,11,['d'],N,['d'],N,None,Y,,,,,Y,Y,F,20,
49,9,548,5,5,11,['d'],Y,['k'],Y,['space'],Y,,,,,Y,Y,F,20,
49,10,549,8,8,11,['k'],Y,['d'],N,None,Y,43,46,23,,Y,Y,F,20,
50,0,550,0,0,12,None,Timed out,,,,,,,,,Y,Y,F,20,
50,1,551,8,8,12,['k'],Y,['d'],,,,,,,,Y,Y,F,20,
50,2,552,3,3,12,['d'],Y,['k'],Y,None,N,,,,,Y,Y,F,20,
50,3,553,0,0,12,['d'],Y,['k'],N,None,Y,,,,,Y,Y,F,20,
50,4,554,3,3,12,['d'],Y,['k'],N,None,Y,,,,,Y,Y,F,20,
50,5,555,7,7,12,['k'],Y,['d'],N,None,Y,,,,,Y,Y,F,20,
50,6,556,8,8,12,['d'],Y,['k'],N,None,Y,,,,,Y,Y,F,20,
50,7,557,9,9,12,['k'],Y,['d'],Y,['space'],Y,,,,,Y,Y,F,20,
50,8,558,0,0,12,['k'],Y,['d'],N,None,Y,,,,,Y,Y,F,20,
50,9,559,5,5,12,['d'],Y,['k'],N,None,Y,,,,,Y,Y,F,20,
50,10,560,10,10,12,['d'],Y,['k'],Y,['space'],Y,,,,,Y,Y,F,20,
51,0,561,3,3,12,['k'],Y,['d'],Y,['space'],Y,,,,,Y,Y,F,20,
51,1,562,3,3,12,['d'],Y,['k'],Y,['space'],Y,,,,,Y,Y,F,20,
51,2,563,4,4,12,['k'],Y,['d'],Y,['space'],Y,,,,,Y,Y,F,20,
51,3,564,5,5,12,['d'],N,['d'],N,None,Y,,,,,Y,Y,F,20,
51,4,565,6,6,12,['d'],Y,['k'],N,None,Y,,,,,Y,Y,F,20,
51,5,566,5,5,12,['k'],Y,['d'],N,None,Y,,,,,Y,Y,F,20,
51,6,567,6,6,12,['d'],Y,['k'],N,None,Y,,,,,Y,Y,F,20,
51,7,568,0,0,12,['k'],Y,['d'],Y,['space'],Y,,,,,Y,Y,F,20,
51,8,569,10,10,12,['k'],N,['k'],Y,['space'],Y,,,,,Y,Y,F,20,
51,9,570,6,6,12,['k'],Y,['d'],N,None,Y,,,,,Y,Y,F,20,
51,10,571,3,3,12,['d'],Y,['k'],Y,['space'],Y,,,,,Y,Y,F,20,
52,0,572,8,8,12,['d'],Y,['k'],Y,['space'],Y,,,,,Y,Y,F,20,
52,1,573,0,0,12,['d'],Y,['k'],N,None,Y,,,,,Y,Y,F,20,
52,2,574,5,5,12,['k'],Y,['d'],Y,['space'],Y,,,,,Y,Y,F,20,
52,3,575,2,2,12,['d'],Y,['k'],Y,['space'],Y,,,,,Y,Y,F,20,
52,4,576,9,9,12,['k'],Y,['d'],Y,['space'],Y,,,,,Y,Y,F,20,
52,5,577,10,10,12,['k'],Y,['d'],N,None,Y,,,,,Y,Y,F,20,
52,6,578,6,6,12,['k'],Y,['d'],N,None,Y,,,,,Y,Y,F,20,
52,7,579,1,1,12,['d'],Y,['k'],N,None,Y,,,,,Y,Y,F,20,
52,8,580,1,1,12,['k'],Y,['d'],N,None,Y,,,,,Y,Y,F,20,
52,9,581,8,8,12,['k'],Y,['d'],N,None,Y,,,,,Y,Y,F,20,
52,10,582,1,1,12,['d'],Y,['k'],N,None,Y,,,,,Y,Y,F,20,
53,0,583,0,0,12,['d'],Y,['k'],N,None,Y,,,,,Y,Y,F,20,
53,1,584,3,3,12,['k'],Y,['d'],N,None,Y,,,,,Y,Y,F,20,
53,2,585,3,3,12,['d'],Y,['k'],Y,['space'],Y,,,,,Y,Y,F,20,
53,3,586,7,7,12,['k'],N,['k'],N,None,Y,,,,,Y,Y,F,20,
53,4,587,3,3,12,['k'],Y,['d'],N,None,Y,,,,,Y,Y,F,20,
53,5,588,4,4,12,['d'],Y,['k'],N,None,Y,,,,,Y,Y,F,20,
53,6,589,3,3,12,['k'],Y,['d'],Y,['space'],Y,,,,,Y,Y,F,20,
53,7,590,0,0,12,['k'],Y,['d'],Y,['space'],Y,,,,,Y,Y,F,20,
53,8,591,10,10,12,['d'],N,['d'],N,None,Y,,,,,Y,Y,F,20,
53,9,592,6,6,12,['d'],Y,['k'],Y,['space'],Y,,,,,Y,Y,F,20,
53,10,593,5,5,12,['d'],N,['d'],Y,['space'],Y,,,,,Y,Y,F,20,
54,0,594,10,10,12,['d'],Y,['k'],Y,['space'],Y,,,,,Y,Y,F,20,
54,1,595,8,8,12,['k'],Y,['d'],Y,['space'],Y,,,,,Y,Y,F,20,
54,2,596,4,4,12,['d'],Y,['k'],N,None,Y,,,,,Y,Y,F,20,
54,3,597,2,2,12,['d'],Y,['k'],Y,['space'],Y,,,,,Y,Y,F,20,
54,4,598,4,4,12,['k'],Y,['d'],N,None,Y,,,,,Y,Y,F,20,
54,5,599,6,6,12,['d'],Y,['k'],Y,['space'],Y,44,47,22,,Y,Y,F,20,
